timestamp_ms,ax,ay,az,acs_adc
460,3.8475,-5.0793,20.2573,1491
93465,-15.9107,-0.0599,7.9739,1493
93470,-5.8873,5.1942,3.4572,1491
93475,10.0245,4.61,9.9323,1500
93480,9.4583,-3.7134,19.3044,1492
93485,-12.9227,0.1185,10.3082,1502
93490,-9.165,4.3874,3.8954,1497
93495,8.1139,4.5777,7.7009,1503
93500,12.9323,-1.2665,18.0331,1493
93505,-10.0449,-0.3627,13.9714,1495
93510,-12.1781,3.2394,4.6196,1527
93515,5.624,4.6771,5.8,1515
93520,14.273,1.3216,16.6601,1485
93525,-7.8889,-2.2446,17.6943,1507
93530,-14.9542,2.0458,5.4696,1499
93535,2.5582,5.0326,4.3598,1491
93540,13.8864,3.31,14.9817,1501
93545,-4.1049,-4.3203,20.0682,1501
93550,-16.8265,0.8607,6.4224,1501
93555,-1.057,5.3271,3.6811,1495
93560,12.5277,4.3347,12.9478,1495
93565,1.901,-5.1655,20.5339,1489
93570,-16.6816,0.0048,7.4795,1508
93575,-4.7645,5.3247,3.4201,1491
93580,10.7188,4.6831,10.586,1499
93585,7.9511,-4.1946,19.7629,1497
93590,-14.1102,0.012,9.3757,1495
93595,-8.2756,4.6615,3.6452,1487
93600,8.7137,4.5657,8.266,1495
93605,12.2284,-1.8687,18.4485,1481
93610,-10.7967,-0.2095,12.7743,1511
93615,-11.3461,3.5506,4.3215,1484
93620,6.4189,4.6388,6.2932,1500
93625,14.0145,0.8236,17.1341,1500
93630,-8.4348,-1.7274,16.8456,1487
93635,-14.4155,2.2841,5.1415,1490
93640,3.5231,4.9656,4.713,1479
93645,14.0671,2.9305,15.518,1487
93650,-5.2541,-3.8391,19.5786,1509
93655,-16.6852,1.0199,6.1699,1510
93660,-0.0575,5.4324,3.7733,1486
93665,12.815,4.1228,13.6314,1497
93670,0.0862,-5.0159,20.3962,1496
93675,-16.5595,0.0646,7.191,1483
93680,-3.9097,5.4827,3.4656,1489
93685,11.1306,4.543,11.4598,1495
93690,6.1734,-4.5059,19.6839,1499
93695,-14.048,-0.0958,8.7963,1495
93700,-7.4627,4.8973,3.6512,1548
93705,9.3099,4.5382,9.1087,1511
93710,10.9666,-2.5941,18.5479,1485
93715,-11.1713,-0.0599,11.722,1507
93720,-10.4507,3.8199,4.2461,1493
93725,7.2377,4.5885,6.9743,1491
93730,13.5548,0.0012,17.3639,1494
93735,-9.092,-1.0786,15.5611,1499
93740,-13.3632,2.6576,5.0853,1495
93745,4.4736,4.8315,5.1475,1499
93750,14.1761,2.3846,15.87,1493
93755,-6.5481,-3.1951,18.9393,1507
93760,-15.9885,1.4281,6.0202,1493
93765,1.0139,5.2277,4.0103,1487
93770,13.3237,3.9121,14.1485,1502
93775,-1.6963,-4.8028,20.3974,1491
93780,-17.0383,0.3041,6.9192,1501
93785,-2.7725,5.4253,3.4943,1485
93790,11.7543,4.5729,11.9483,1499
93795,4.61,-4.8842,20.2023,1508
93800,-15.4163,-0.1077,8.2708,1493
93805,-6.5027,5.1583,3.5111,1496
93810,9.8078,4.5921,9.6654,1511
93815,10.0712,-3.2178,19.1141,1479
93820,-12.2643,-0.0311,10.8074,1501
93825,-9.7037,4.2234,3.8834,1503
93830,7.7369,4.5358,7.3813,1495
93835,13.2016,-0.7087,17.8643,1501
93840,-9.4942,-0.7183,14.6094,1487
93845,-12.8377,2.9928,4.6543,1493
93850,5.2445,4.7429,5.5653,1511
93855,14.1354,1.7753,16.435,1499
93860,-7.2472,-2.6276,18.1433,1496
93865,-15.7658,1.7418,5.6575,1495
93870,2.0087,5.2409,4.2401,1496
93875,13.5847,3.468,14.8405,1511
93880,-3.2058,-4.464,20.0586,1486
93885,-16.9545,0.5423,6.6092,1499
93890,-1.7585,5.5785,3.5398,1499
93895,12.0596,4.2425,12.8114,1499
93900,2.7102,-5.0135,20.0933,1495
93905,-15.5108,-0.0575,7.7584,1503
93910,-5.5964,5.375,3.4632,1513
93915,10.3681,4.4341,10.4986,1514
93920,8.4503,-3.8714,19.1955,1485
93925,-12.6246,0.0371,9.8138,1491
93930,-8.9495,4.5262,3.881,1501
93935,8.4719,4.5298,8.2121,1493
93940,12.3481,-1.5383,18.0475,1485
93945,-9.9982,-0.2837,13.3333,1500
93950,-11.9507,3.3375,4.5645,1500
93955,6.1399,4.7285,6.1268,1511
93960,14.0037,1.0247,16.7546,1493
93965,-8.0146,-1.9656,17.1042,1489
93970,-14.8045,2.0267,5.5258,1497
93975,3.1544,5.0769,4.604,1485
93980,13.8074,3.134,15.2571,1493
93985,-4.7345,-4.0235,19.7079,1509
93990,-16.6397,0.8104,6.4272,1495
93995,-0.5507,5.5498,3.7864,1499
94000,12.6115,4.2569,13.313,1481
94005,0.7673,-5.0733,20.3567,1501
94010,-16.4039,-0.0084,7.3813,1503
94015,-4.3323,5.4971,3.4668,1487
94020,10.9044,4.5789,11.0684,1491
94025,6.924,-4.4173,19.806,1531
94030,-14.1425,-0.0622,8.9627,1490
94035,-7.7752,4.8435,3.5973,1511
94040,9.0369,4.5837,8.7293,1499
94045,11.576,-2.2769,18.6101,1491
94050,-10.8529,-0.0982,12.2188,1515
94055,-10.9463,3.7541,4.1827,1484
94060,6.7349,4.6364,6.5697,1499
94065,13.8624,0.3639,17.2299,1503
94070,-8.5114,-1.4509,16.2016,1484
94075,-14.0073,2.4445,5.0805,1495
94080,3.9361,4.9907,4.8578,1495
94085,14.0719,2.7845,15.773,1501
94090,-5.7712,-3.5733,19.3715,1499
94095,-16.3536,1.1277,6.1172,1489
94100,0.4166,5.3822,3.7685,1490
94105,12.9993,4.2198,13.8672,1499
94110,-0.7745,-5.0338,20.4836,1498
94115,-16.7474,0.0024,6.9983,1512
94120,-3.45,5.4612,3.4069,1483
94125,11.3581,4.7513,11.6502,1503
94130,5.4157,-4.7142,20.1388,1509
94135,-14.7339,-0.2466,8.5042,1494
94140,-7.0653,4.9141,3.5243,1493
94145,9.5325,4.6807,9.1937,1501
94150,10.4519,-2.7521,18.907,1490
94155,-11.3377,-0.152,11.3401,1499
94160,-10.2508,3.9337,3.9959,1491
94165,7.4328,4.6136,7.0641,1491
94170,13.3525,-0.0383,17.5663,1503
94175,-8.9818,-1.0068,15.196,1485
94180,-13.1873,2.6372,4.8411,1487
94185,4.8578,4.8219,5.2493,1507
94190,13.963,2.399,16.1345,1497
94195,-6.8235,-3.0299,18.6137,1501
94200,-15.8352,1.2797,5.8514,1483
94205,1.5071,5.272,4.0953,1495
94210,13.2794,3.9863,14.382,1511
94215,-2.6408,-4.7262,20.3495,1495
94220,-16.8205,0.1221,6.8007,1492
94225,-2.241,5.4899,3.5458,1486
94230,11.8573,4.7345,12.2918,1493
94235,3.3267,-4.8495,20.3591,1503
94240,-15.3768,-0.3627,7.9607,1493
94245,-5.8383,5.1811,3.4584,1492
94250,10.2005,4.7082,10.0628,1503
94255,8.8957,-3.3303,19.1704,1489
94260,-12.2451,-0.2035,10.2412,1501
94265,-9.1123,4.1922,3.8475,1501
94270,8.3103,4.5286,7.8602,1493
94275,12.4008,-0.7171,17.8715,1493
94280,-9.669,-0.6728,13.8469,1498
94285,-12.0069,2.9173,4.5071,1483
94290,6.0094,4.6795,5.8167,1515
94295,13.8086,1.8794,16.5918,1494
94300,-7.8446,-2.2996,17.6501,1500
94305,-14.7615,1.6077,5.4875,1499
94310,2.9365,5.0362,4.3993,1493
94315,13.6637,3.8774,15.0344,1513
94320,-4.6663,-4.2808,20.1891,1497
94325,-16.6098,0.3747,6.347,1497
94330,-0.6871,5.3247,3.5913,1507
94335,12.4953,4.8459,13.1346,1500
94340,0.9074,-5.0362,20.7793,1493
94345,-16.4194,-0.4513,7.3466,1503
94350,-4.561,5.1463,3.4034,1491
94355,10.8541,4.9668,10.8936,1491
94360,7.0701,-4.039,19.8407,1499
94365,-13.7786,-0.3711,9.1135,1497
94370,-7.9559,4.5346,3.5542,1509
94375,8.9807,4.7549,8.6443,1491
94380,11.5125,-1.6987,18.561,1481
94385,-10.404,-0.3903,12.4115,1508
94390,-11.0768,3.401,4.1468,1485
94395,6.8283,4.5705,6.4596,1494
94400,13.6446,1.093,17.0946,1497
94405,-8.3869,-1.7406,16.4853,1492
94410,-14.2407,1.9956,5.0589,1497
94415,4.0989,4.8782,4.8507,1494
94420,13.7858,3.3579,15.6126,1484
94425,-6.0059,-3.7254,19.4924,1511
94430,-16.4326,0.6261,5.9891,1493
94435,0.656,5.3917,3.814,1491
94440,12.8401,4.5837,13.854,1496
94445,-1.4784,-4.8626,20.5949,1493
94450,-16.5104,-0.3053,7.0689,1501
94455,-3.1556,5.4971,3.4105,1481
94460,11.4563,4.8518,11.8956,1495
94465,4.5179,-4.4772,20.0143,1511
94470,-14.3437,-0.4369,8.3701,1497
94475,-6.5661,4.9632,3.5602,1487
94480,9.742,4.6855,9.6187,1507
94485,9.675,-2.6576,18.9393,1491
94490,-11.5269,-0.2957,10.8745,1493
94495,-9.5996,3.9612,3.9169,1495
94500,7.8997,4.4736,7.4292,1493
94505,12.8676,-0.1604,17.6848,1503
94510,-9.3685,-0.8751,14.5579,1487
94515,-12.5971,2.7761,4.6543,1483
94520,5.4588,4.5933,5.5905,1501
94525,14.0528,2.3152,16.4254,1487
94530,-7.531,-2.6001,18.2558,1507
94535,-15.3301,1.5167,5.5198,1496
94540,2.4146,4.9524,4.1707,1491
94545,13.6565,4.0797,14.8548,1509
94550,-3.9636,-4.3826,20.4477,1496
94555,-16.9126,0.2717,6.444,1493
94560,-1.1959,5.2577,3.486,1498
94565,12.396,4.877,12.8844,1496
94570,1.67,-4.9045,20.6907,1491
94575,-16.1609,-0.4214,7.4831,1497
94580,-4.938,5.1559,3.2765,1483
94585,10.6362,4.7896,10.6087,1507
94590,7.44,-3.7338,19.7869,1491
94595,-13.0747,-0.3484,9.4487,1493
94600,-8.3522,4.5095,3.5757,1503
94605,8.9148,4.4855,8.4324,1499
94610,11.5269,-1.4772,18.5,1481
94615,-10.1107,-0.4118,12.6055,1500
94620,-11.2144,3.3914,4.2306,1494
94625,6.7852,4.4305,6.4069,1499
94630,13.6086,1.0977,17.2107,1499
94635,-8.3139,-1.6005,16.435,1490
94640,-14.1569,2.0865,5.0398,1494
94645,4.0546,4.7345,4.7692,1493
94650,13.9366,3.4213,15.6258,1492
94655,-5.9879,-3.6117,19.5259,1508
94660,-16.581,0.7578,5.9532,1501
94665,0.5806,5.1691,3.79,1497
94670,13.04,4.7501,13.9139,1495
94675,-1.3348,-4.798,20.6823,1491
94680,-16.9198,-0.3627,6.9923,1511
94685,-3.2118,5.3367,3.3375,1483
94690,11.4814,4.9752,11.8082,1491
94695,4.628,-4.3527,20.1436,1511
94700,-14.1964,-0.5243,8.4767,1497
94705,-6.8666,4.8746,3.4022,1489
94710,9.7588,4.6017,9.5541,1509
94715,9.6498,-2.5235,18.8819,1489
94720,-10.8505,-0.3412,10.9307,1499
94725,-9.9982,3.8798,3.9014,1491
94730,7.9464,4.3706,7.4172,1498
94735,12.5289,0.0802,17.6453,1498
94740,-8.855,-1.0163,14.5125,1489
94745,-12.8856,2.5857,4.7489,1495
94750,5.7808,4.6555,5.5881,1509
94755,13.5847,2.393,16.3668,1492
94760,-7.4675,-2.5809,17.996,1495
94765,-15.4007,1.2091,5.7054,1496
94770,2.7497,5.1882,4.2557,1487
94775,13.3142,3.948,14.8907,1499
94780,-4.3215,-4.203,20.1197,1497
94785,-16.6313,0.0599,6.4715,1496
94790,-1.0534,5.5091,3.5674,1509
94795,12.232,4.6974,13.1214,1487
94800,1.002,-4.7058,20.4094,1483
94805,-15.5132,-0.5459,7.5429,1509
94810,-4.7812,5.3115,3.4034,1485
94815,10.7524,4.7166,11.0648,1499
94820,6.7169,-3.6763,19.5391,1500
94825,-12.536,-0.4262,9.2907,1495
94830,-8.0888,4.5035,3.6464,1509
94835,9.092,4.4999,8.7592,1493
94840,10.9403,-1.5838,18.3288,1479
94845,-9.8581,-0.395,12.2511,1512
94850,-10.975,3.383,4.288,1481
94855,7.1024,4.4843,6.7062,1501
94860,13.2711,0.8942,17.1197,1487
94865,-8.3821,-1.4341,15.9023,1484
94870,-13.8469,2.1105,5.0841,1499
94875,4.4604,4.774,4.968,1493
94880,13.8876,3.1077,15.8436,1492
94885,-6.4967,-3.2477,19.0962,1515
94890,-16.362,0.8775,5.9352,1497
94895,1.0259,5.126,3.887,1497
94900,13.3596,4.4041,14.1761,1501
94905,-2.1799,-4.5526,20.6177,1493
94910,-17.0108,-0.1652,6.8019,1492
94915,-2.648,5.2122,3.3639,1495
94920,11.9171,4.8171,12.1997,1487
94925,3.7074,-4.4903,20.571,1507
94930,-15.1361,-0.6129,8.1499,1499
94935,-6.2656,4.8339,3.3495,1487
94940,10.1945,4.6519,9.9371,1511
94945,9.0932,-2.9257,19.3751,1483
94950,-11.5305,-0.4262,10.4842,1495
94955,-9.5852,3.9684,3.7026,1499
94960,8.1965,4.4353,7.7117,1493
94965,12.6534,-0.4178,17.9972,1491
94970,-9.0752,-0.7386,13.8457,1499
94975,-12.6833,2.9509,4.3287,1487
94980,5.8095,4.555,5.8191,1515
94985,14.2036,1.9381,16.7642,1497
94990,-7.7093,-2.1129,17.5339,1491
94995,-15.2618,1.8639,5.2397,1491
95000,2.8695,4.8231,4.4377,1491
95005,14.2862,3.7002,15.2343,1496
95010,-4.871,-3.8978,20.0586,1497
95015,-16.8875,0.5746,6.1208,1491
95020,-0.5602,4.9668,3.5961,1497
95025,13.1837,4.7896,13.3525,1490
95030,0.3268,-4.7238,20.9122,1496
95035,-16.9509,-0.4178,7.258,1512
95040,-4.3311,4.9297,3.2382,1487
95045,11.5472,5.0266,11.1199,1495
95050,6.4141,-4.0079,20.0826,1507
95055,-14.036,-0.4741,9.0309,1493
95060,-7.8422,4.4688,3.3782,1501
95065,9.4415,4.7118,8.9064,1501
95070,11.0684,-1.9776,18.8914,1493
95075,-10.2687,-0.3029,11.8645,1511
95080,-10.9188,3.6404,3.8702,1485
95085,7.1407,4.4987,6.7445,1506
95090,13.6003,0.5614,17.6441,1499
95095,-8.3821,-1.2905,15.5503,1479
95100,-13.8576,2.5738,4.634,1497
95105,4.379,4.6759,5.108,1507
95110,14.3676,2.7653,16.2937,1493
95115,-6.62,-3.1173,18.8711,1511
95120,-16.3751,1.3264,5.5258,1499
95125,1.2067,5.0027,3.9588,1497
95130,13.7906,4.2425,14.5232,1502
95135,-2.5343,-4.5969,20.7122,1484
95140,-17.4166,0.0,6.6152,1497
95145,-2.4948,5.1858,3.3627,1493
95150,12.2787,4.8399,12.39,1487
95155,3.3818,-4.6376,20.5746,1496
95160,-15.4773,-0.5028,7.9009,1495
95165,-6.1818,4.9392,3.2884,1495
95170,10.3872,4.786,10.1347,1512
95175,8.9519,-3.0921,19.4469,1487
95180,-11.5317,-0.3256,10.3106,1497
95185,-9.5493,4.1324,3.632,1498
95190,8.3282,4.5155,7.8961,1499
95195,12.4451,-0.8068,18.1217,1483
95200,-8.8693,-0.6764,13.6709,1493
95205,-12.7216,3.0921,4.3443,1495
95210,6.0071,4.6184,5.9101,1509
95215,13.9211,1.5993,16.9043,1486
95220,-7.4723,-2.1416,17.2837,1493
95225,-15.4893,1.883,5.2337,1500
95230,3.1029,4.962,4.4377,1499
95235,13.8708,3.468,15.5108,1519
95240,-4.8914,-3.8403,19.7665,1509
95245,-17.0647,0.5794,6.2549,1500
95250,-0.4741,5.3223,3.5805,1495
95255,12.9335,4.5203,13.5799,1495
95260,0.0838,-4.6962,20.553,1495
95265,-16.4781,-0.3543,7.2341,1513
95270,-4.2473,5.2756,3.3004,1491
95275,11.3389,4.7262,11.4467,1494
95280,6.0418,-4.124,19.97,1496
95285,-13.5105,-0.3723,8.916,1491
95290,-7.6998,4.7238,3.3926,1491
95295,9.3984,4.5095,9.1147,1507
95300,10.7093,-2.3535,18.9142,1481
95305,-10.1742,-0.2574,11.5843,1509
95310,-10.8146,3.8846,3.8607,1483
95315,7.3263,4.4257,7.0138,1495
95320,13.3453,0.018,17.8069,1501
95325,-8.3821,-1.0714,15.1242,1492
95330,-13.7691,2.8,4.6543,1484
95335,4.8207,4.707,5.205,1509
95340,14.1378,2.1979,16.4194,1498
95345,-6.8067,-2.7904,18.3049,1511
95350,-16.1884,1.6017,5.5306,1503
95355,1.5862,5.1966,4.0414,1486
95360,13.7595,3.7266,14.8548,1509
95365,-3.0873,-4.3323,20.2621,1485
95370,-17.2849,0.4034,6.4775,1499
95375,-2.1261,5.4097,3.4213,1493
95380,12.5193,4.3778,12.8186,1493
95385,2.9066,-4.7489,20.4082,1496
95390,-15.8077,-0.1844,7.7943,1497
95395,-5.8335,5.2433,3.2465,1490
95400,10.6374,4.458,10.5321,1501
95405,8.6143,-3.8116,19.6959,1495
95410,-12.5875,-0.0706,9.8114,1491
95415,-8.9926,4.6316,3.462,1507
95420,8.5808,4.397,8.1439,1496
95425,12.4091,-1.6939,18.7741,1493
95430,-10.0102,-0.2119,12.8676,1507
95435,-11.7687,3.7804,4.0917,1494
95440,6.1938,4.5286,6.11,1518
95445,14.4083,0.6345,17.6034,1487
95450,-8.424,-1.4461,16.4901,1493
95455,-14.2934,2.7892,4.8411,1497
95460,3.1915,4.81,4.6328,1494
95465,14.7148,2.5845,16.0088,1484
95470,-5.4887,-3.4046,19.4852,1503
95475,-16.192,1.5574,5.7437,1499
95480,-0.103,4.9656,3.644,1491
95485,13.5548,3.9684,13.8433,1493
95490,-0.2191,-4.8518,20.8343,1492
95495,-16.8552,0.1425,7.0018,1507
95500,-3.5111,5.0578,3.2825,1487
95505,11.7196,4.6495,11.4156,1490
95510,5.7377,-4.5717,20.6117,1508
95515,-15.7491,-0.5734,8.5521,1485
95520,-6.6858,4.7561,3.3615,1496
95525,9.6714,4.78,8.9435,1499
95530,10.6997,-2.6133,19.5846,1482
95535,-13.2854,-0.3376,11.1438,1513
95540,-9.3757,4.142,3.7792,1467
95545,7.3801,4.5215,6.8881,1497
95550,13.8397,-0.1041,18.1816,1503
95555,-11.0947,-0.8475,14.801,1483
95560,-11.5101,3.3004,4.3634,1487
95565,4.9213,4.2629,5.2002,1513
95570,14.8536,2.3631,16.5463,1491
95575,-8.8992,-2.4612,18.4988,1501
95580,-13.2687,2.1763,5.1846,1495
95585,2.162,4.2186,4.033,1497
95590,14.3149,4.2018,14.5424,1498
95595,-4.9356,-4.1312,21.0402,1481
95600,-14.4789,0.7638,6.3219,1483
95605,-0.8667,4.4077,3.3758,1505
95610,12.633,5.2098,12.4259,1487
95615,1.4078,-4.8076,21.4317,1495
95620,-15.0583,-0.5375,7.7991,1496
95625,-3.8427,4.5729,3.1807,1487
95630,10.2747,5.4109,10.2053,1502
95635,7.8901,-3.7912,20.249,1493
95640,-15.1062,-1.2438,9.9036,1495
95645,-6.9408,4.3622,3.4776,1487
95650,8.2061,4.962,8.1283,1496
95655,12.3373,-1.3827,18.4808,1493
95660,-14.4478,-1.3096,12.8569,1499
95665,-9.6319,3.6619,4.0689,1493
95670,6.2944,4.3407,6.2537,1511
95675,14.5496,1.3922,16.8648,1498
95680,-12.1973,-1.5969,16.7091,1485
95685,-12.0345,2.6516,4.8207,1507
95690,3.9696,3.984,4.78,1487
95695,14.935,3.7936,15.2427,1493
95700,-7.7824,-3.1364,20.1053,1509
95705,-14.455,1.3108,5.8526,1495
95710,1.0307,4.057,3.8535,1495
95715,13.775,5.2086,13.441,1495
95720,-1.5886,-4.5011,21.4066,1492
95725,-16.5128,-0.2382,7.0066,1506
95730,-2.5786,4.3766,3.2896,1487
95735,11.892,5.4779,11.3174,1495
95740,5.205,-4.3706,20.6799,1499
95745,-16.7415,-0.8679,8.5641,1499
95750,-6.2752,4.5741,3.3148,1505
95755,9.7683,5.0721,9.2763,1501
95760,10.9283,-2.8886,19.3176,1481
95765,-14.6657,-0.48,10.9774,1497
95770,-9.4248,4.2796,3.5398,1492
95775,7.5765,4.5681,7.2532,1492
95780,14.3844,-0.6081,17.9733,1499
95785,-11.7064,-0.5962,14.6274,1493
95790,-12.2607,3.6021,4.1324,1498
95795,5.1248,4.3191,5.5414,1509
95800,15.4737,1.5694,16.7582,1496
95805,-8.6814,-2.1859,18.1421,1497
95810,-14.9111,2.5929,4.9907,1498
95815,2.1596,4.5083,4.2569,1485
95820,14.7926,3.2417,15.2343,1499
95825,-3.9947,-4.1527,20.2514,1496
95830,-17.1856,1.2605,6.0322,1502
95835,-1.3216,4.9823,3.5207,1498
95840,13.1585,4.0175,13.3393,1484
95845,2.2601,-5.0973,20.5411,1499
95850,-17.2778,0.2574,7.1635,1502
95855,-5.0649,5.3474,3.2046,1487
95860,11.0516,4.2533,11.1163,1497
95865,8.3234,-4.5203,19.8826,1491
95870,-14.1737,0.1616,9.2177,1482
95875,-8.6862,5.1296,3.3375,1507
95880,8.9639,4.1982,8.843,1494
95885,12.6162,-2.7282,18.9441,1483
95890,-10.8098,0.0994,12.1446,1511
95895,-11.8262,4.4592,3.8499,1494
95900,6.6307,4.4388,6.8738,1491
95905,14.8309,-0.6225,17.941,1491
95910,-8.9735,-0.8667,15.5072,1487
95915,-14.5783,3.5075,4.5298,1495
95920,3.984,4.7238,5.2349,1500
95925,15.1756,1.4688,16.5296,1499
95930,-6.3243,-2.6995,18.5072,1499
95935,-16.6445,2.1895,5.4049,1469
95940,0.8847,4.9919,4.1037,1493
95945,14.2024,3.2094,14.8201,1503
95950,-1.7178,-4.4317,19.97,1494
95955,-17.5244,0.6788,6.4883,1497
95960,-2.5558,5.1535,3.468,1487
95965,12.5253,4.2258,12.7036,1484
95970,4.3802,-4.8267,20.0251,1501
95975,-16.4218,-0.2873,7.9703,1496
95980,-6.2752,5.0099,3.3483,1487
95985,10.4615,4.4772,10.3753,1513
95990,9.9335,-3.4979,19.1404,1491
95995,-12.7192,-0.2239,10.3932,1499
96000,-9.9204,4.4281,3.6715,1508
96005,8.2612,4.3479,8.1798,1492
96010,13.5667,-1.148,17.9805,1486
96015,-9.5696,-0.4992,13.7726,1501
96020,-13.4506,3.4093,4.3048,1491
96025,5.7353,4.3479,6.3339,1513
96030,15.02,1.3838,16.6996,1485
96035,-7.9715,-1.7825,17.0862,1483
96040,-16.1453,2.1153,5.0661,1491
96045,2.8132,4.531,4.9189,1497
96050,15.0057,3.4704,15.19,1484
96055,-5.1056,-3.3627,19.5199,1499
96060,-17.2921,0.6045,6.0681,1481
96065,-0.3735,4.6352,4.063,1485
96070,13.8205,4.9033,13.4817,1493
96075,0.1568,-4.1911,20.164,1487
96080,-17.3125,-0.7721,7.3574,1511
96085,-4.0055,4.6256,3.6787,1494
96090,11.9626,5.3463,11.5939,1491
96095,6.2477,-3.5446,19.1788,1507
96100,-14.03,-1.0235,9.1028,1486
96105,-7.908,4.2641,3.626,1491
96110,9.748,4.9476,9.5397,1503
96115,11.0349,-1.6747,17.8452,1478
96120,-9.7157,-0.7063,11.9806,1503
96125,-11.9124,3.5279,4.0833,1499
96130,7.3466,4.6364,7.4328,1501
96135,13.8385,0.6512,16.8672,1505
96140,-8.3378,-1.3072,15.3971,1491
96145,-15.3265,2.5402,4.7956,1495
96150,4.6998,4.7118,5.7209,1499
96155,14.7998,2.5319,15.8831,1495
96160,-6.7086,-2.5654,18.087,1509
96165,-17.4142,1.3479,5.6838,1511
96170,1.4473,4.8985,4.4496,1483
96175,14.3592,3.8918,14.6322,1501
96180,-2.8503,-3.8188,19.581,1490
96185,-17.5579,0.0227,6.7373,1499
96190,-2.2194,5.0661,3.7589,1497
96195,12.9287,4.6184,12.9885,1465
96200,2.7066,-4.1611,19.5558,1491
96205,-15.1876,-0.6057,8.005,1509
96210,-6.019,4.944,3.547,1483
96215,11.072,4.7285,11.0109,1492
96220,8.3175,-3.292,18.8711,1493
96225,-12.0081,-0.595,9.906,1496
96230,-9.4379,4.3778,3.7002,1505
96235,8.9902,4.6364,8.8681,1491
96240,12.4726,-1.4688,17.8236,1491
96245,-10.0533,-0.656,12.7743,1510
96250,-12.3002,3.5279,4.2282,1483
96255,6.6224,4.531,6.9216,1503
96260,14.5951,0.9708,16.5559,1493
96265,-8.6048,-1.5071,16.2997,1487
96270,-14.9829,2.3667,4.9392,1496
96275,3.8618,4.5274,5.3714,1492
96280,14.9326,3.2214,15.287,1493
96285,-6.0669,-3.0454,19.1512,1509
96290,-17.3424,0.759,6.0011,1493
96295,0.4405,4.6855,4.2701,1499
96300,14.1282,4.7202,13.7894,1495
96305,-1.3551,-3.972,20.1963,1497
96310,-17.2454,-0.6141,7.1491,1498
96315,-3.462,4.7585,3.6404,1483
96320,12.3613,5.1439,11.9997,1499
96325,4.5226,-3.6667,19.6217,1498
96330,-13.8804,-1.0283,8.7987,1485
96335,-7.1754,4.4065,3.5745,1485
96340,10.2771,4.871,10.0485,1501
96345,9.5229,-2.241,18.4653,1485
96350,-10.5632,-0.9254,10.9535,1491
96355,-10.6315,3.6823,3.9121,1503
96360,8.1535,4.6759,8.0625,1497
96365,12.9861,-0.1089,17.3125,1495
96370,-8.8693,-1.0654,14.1054,1496
96375,-13.7882,2.8563,4.5657,1483
96380,5.7317,4.6412,6.2441,1507
96385,14.7076,2.0961,16.0579,1489
96390,-7.6591,-1.9537,17.2849,1487
96395,-16.0292,1.8699,5.2684,1495
96400,2.7114,4.6735,4.7968,1496
96405,14.7914,3.7014,14.9326,1485
96410,-4.9344,-3.3758,19.642,1499
96415,-17.261,0.4477,6.2441,1491
96420,-0.7027,4.7573,3.8726,1487
96425,13.8397,4.5741,13.4626,1501
96430,0.1185,-4.2509,20.3292,1496
96435,-16.8875,-0.5399,7.3574,1510
96440,-4.5538,5.0003,3.4919,1479
96445,12.0548,4.7345,11.5808,1491
96450,6.2034,-3.9684,19.6959,1507
96455,-13.6637,-0.5614,8.9914,1491
96460,-8.3629,4.8195,3.3926,1486
96465,9.7336,4.4388,9.3817,1500
96470,11.0289,-2.5546,18.7574,1482
96475,-9.5972,-0.1712,11.6981,1498
96480,-12.2176,4.1863,3.8535,1482
96485,7.2018,4.2952,7.3753,1499
96490,13.7523,-0.5938,17.7518,1499
96495,-7.8254,-0.814,14.7279,1495
96500,-15.6174,3.1759,4.5849,1497
96505,4.4987,4.707,5.5941,1513
96510,14.4562,1.4353,16.5655,1495
96515,-6.2584,-2.1931,17.4944,1508
96520,-17.2933,1.8926,5.6515,1495
96525,1.4449,5.2888,4.3347,1495
96530,14.0623,2.9137,15.111,1503
96535,-3.0083,-3.6847,19.3954,1491
96540,-17.2059,0.5327,6.5589,1499
96545,-2.1416,5.4061,3.6823,1508
96550,12.9478,3.8499,13.3345,1501
96555,2.3379,-4.4317,19.97,1491
96560,-15.5013,-0.2717,7.7177,1506
96565,-5.9532,5.1894,3.456,1484
96570,11.1474,4.2282,11.1294,1497
96575,8.0302,-3.8379,19.4445,1486
96580,-11.8453,-0.2933,9.6391,1492
96585,-9.6666,4.6555,3.4704,1511
96590,8.9615,4.4269,8.934,1489
96595,12.2404,-1.9489,18.3396,1479
96600,-9.1004,-0.2993,12.5348,1511
96605,-13.3752,3.8235,4.0055,1483
96610,6.4129,4.6843,6.875,1497
96615,14.4358,0.2143,17.2323,1489
96620,-7.8027,-1.2941,15.9178,1495
96625,-16.672,2.6408,4.8052,1501
96630,3.3842,5.0159,5.2385,1497
96635,14.7998,2.156,15.9119,1486
96640,-5.4504,-2.9353,18.4174,1515
96645,-17.6896,1.2294,5.8119,1500
96650,-0.0108,5.4073,3.9588,1489
96655,13.5883,3.4836,14.5184,1509
96660,-1.1779,-4.2318,19.6935,1491
96665,-15.8209,-0.0156,7.0485,1497
96670,-3.7792,5.5103,3.4249,1495
96675,11.989,4.0666,12.7395,1483
96680,4.1707,-4.2976,19.66,1497
96685,-12.4271,-0.3771,8.4132,1491
96690,-7.6339,5.047,3.3303,1491
96695,10.2352,4.3491,10.6338,1499
96700,9.4547,-3.1292,18.6664,1479
96705,-9.6426,-0.3029,10.5668,1483
96710,-11.485,4.306,3.6835,1495
96715,8.0625,4.549,8.4455,1501
96720,13.1059,-1.1229,17.5483,1485
96725,-8.4467,-0.6871,13.8229,1489
96730,-14.929,3.3363,4.4436,1484
96735,5.5677,4.8088,6.4356,1507
96740,14.5184,1.2402,16.3596,1485
96745,-7.2544,-2.0255,16.9557,1499
96750,-17.0946,2.0255,5.4061,1495
96755,2.5965,5.1619,4.8662,1491
96760,14.4299,3.0825,15.1266,1493
96765,-4.3096,-3.5195,19.2518,1508
96770,-17.3795,0.4824,6.3997,1491
96775,-1.1552,5.3522,3.8666,1496
96780,13.4183,4.1587,13.5452,1487
96785,0.7494,-4.2904,19.9688,1499
96790,-15.5467,-0.5279,7.5669,1513
96795,-5.0817,5.1056,3.5171,1483
96800,11.8214,4.622,11.5221,1498
96805,6.5434,-3.7433,19.3859,1497
96810,-12.3948,-0.7661,9.3374,1495
96815,-8.8059,4.4496,3.541,1515
96820,9.8102,4.7621,9.3099,1496
96825,11.2551,-1.883,18.2295,1478
96830,-9.5337,-0.6273,12.1613,1508
96835,-12.4211,3.5757,4.0677,1481
96840,7.2939,4.8339,7.2125,1493
96845,13.8888,0.5614,16.8887,1500
96850,-8.1714,-1.4257,15.6018,1493
96855,-15.6377,2.3954,4.7537,1493
96860,4.1911,4.8997,5.4253,1499
96865,14.6489,2.7641,15.6114,1486
96870,-6.3446,-2.9748,18.6772,1513
96875,-17.3639,0.9349,5.8335,1493
96880,0.6812,5.0925,4.2042,1484
96885,14.0384,4.2102,14.2048,1509
96890,-2.3236,-4.1037,20.1053,1496
96895,-16.6182,-0.3651,7.0126,1486
96900,-3.0143,5.0697,3.553,1483
96905,12.7048,4.8926,12.3649,1499
96910,3.2358,-4.045,20.079,1501
96915,-14.1761,-0.9254,8.3905,1499
96920,-6.6068,4.7369,3.468,1493
96925,11.0337,5.0422,10.2687,1516
96930,8.7903,-2.8395,19.0614,1480
96935,-12.3002,-0.826,10.3872,1499
96940,-9.4834,4.0474,3.717,1499
96945,8.7137,4.9153,8.2444,1489
96950,12.9191,-0.7697,17.6955,1496
96955,-11.6466,-0.8691,13.3537,1499
96960,-11.6693,3.1999,4.1527,1497
96965,6.1914,4.6507,6.4248,1519
96970,15.0595,1.6173,16.1908,1499
96975,-10.307,-1.9561,17.2598,1495
96980,-13.4913,2.0853,4.9237,1483
96985,3.2968,4.4317,5.0075,1493
96990,15.1385,3.9792,14.7615,1497
96995,-6.2453,-3.6536,20.2645,1487
97000,-15.6401,0.5435,6.037,1495
97005,-0.2322,4.4807,3.869,1495
97010,13.8552,5.351,13.0975,1485
97015,0.091,-4.555,20.9062,1483
97020,-16.7534,-0.9661,7.4376,1529
97025,-4.4341,4.6112,3.5111,1493
97030,12.0213,5.5941,11.0337,1531
97035,6.7109,-3.6631,19.7246,1499
97040,-14.4837,-1.0798,9.4224,1497
97045,-8.2361,4.1911,3.5326,1501
97050,9.6295,5.1236,8.7795,1499
97055,11.7531,-1.4796,18.2426,1491
97060,-11.2085,-0.7254,12.6055,1501
97065,-11.4467,3.3076,3.9361,1485
97070,6.8175,4.7417,6.6188,1497
97075,14.3808,1.1756,16.7857,1495
97080,-9.0956,-1.6855,16.4685,1469
97085,-14.3365,2.2422,4.6855,1493
97090,3.5829,4.6412,5.0709,1491
97095,15.1828,3.4297,15.366,1495
97100,-6.4033,-3.3866,19.6073,1497
97105,-16.593,0.7649,5.7078,1493
97110,0.0227,4.6986,3.9744,1493
97115,14.3317,4.8471,13.6948,1495
97120,-1.4928,-4.4676,20.8391,1497
97125,-16.9869,-0.5375,7.0725,1501
97130,-3.7481,4.7561,3.4836,1482
97135,12.6007,5.3211,11.7005,1495
97140,4.7202,-4.136,20.2945,1509
97145,-14.6908,-0.8954,8.7688,1495
97150,-7.2197,4.5107,3.3986,1490
97155,10.4411,5.1116,9.5325,1507
97160,10.0413,-2.4157,19.0507,1484
97165,-11.2001,-0.6452,11.3473,1498
97170,-10.4603,3.7912,3.6224,1485
97175,7.8925,4.774,7.2808,1499
97180,13.3644,0.0192,17.6812,1507
97185,-9.0836,-1.1337,14.7818,1487
97190,-13.38,2.8048,4.2473,1491
97195,5.0554,4.7058,5.4839,1501
97200,14.7459,2.3966,16.3165,1492
97205,-7.4017,-2.6624,18.2941,1509
97210,-15.9586,1.5012,5.1404,1503
97215,1.6173,4.8614,4.2102,1483
97220,14.6477,4.0953,14.6561,1511
97225,-3.8583,-4.1503,20.577,1491
97230,-17.0611,0.0419,6.3554,1501
97235,-2.0746,4.9524,3.5255,1498
97240,13.3812,5.0661,12.6953,1482
97245,1.7909,-4.6112,20.8894,1496
97250,-15.9562,-0.7709,7.8063,1506
97255,-5.6683,4.7657,3.2765,1487
97260,11.4287,5.1475,10.4567,1507
97265,7.6136,-3.5578,19.9916,1491
97270,-13.0412,-0.6273,9.8809,1495
97275,-8.8897,4.2377,3.4536,1503
97280,9.1099,4.9644,8.26,1490
97285,12.0285,-1.4449,18.6089,1485
97290,-10.2364,-0.5543,12.894,1511
97295,-11.8956,3.4417,3.899,1485
97300,6.4404,4.7585,6.3015,1508
97305,14.3149,1.0786,17.2155,1493
97310,-8.1882,-1.7681,16.7008,1489
97315,-15.0164,2.3595,4.6112,1497
97320,3.2681,4.8518,4.6878,1483
97325,14.6525,3.1436,15.6892,1491
97330,-5.606,-3.5698,19.5367,1493
97335,-17.2131,0.8811,5.6994,1491
97340,-0.3747,5.0961,3.6739,1485
97345,13.8588,4.3574,13.8768,1496
97350,-0.9565,-4.5765,20.8116,1491
97355,-16.6421,-0.3687,7.0066,1501
97360,-4.142,5.0805,3.1975,1483
97365,12.2966,4.8219,11.6215,1493
97370,4.8495,-4.1671,20.5207,1501
97375,-13.9103,-0.6416,8.8131,1491
97380,-7.5944,4.6579,3.2477,1501
97385,10.2939,4.8854,9.3757,1495
97390,10.1023,-2.5857,19.3344,1482
97395,-11.2348,-0.4645,11.1845,1497
97400,-10.4351,3.8942,3.5434,1491
97405,7.9188,4.7716,7.3047,1502
97410,13.368,-0.1137,17.9218,1501
97415,-9.2919,-0.9864,14.7686,1485
97420,-13.2878,2.9341,4.1324,1485
97425,5.0326,4.7633,5.4947,1516
97430,14.6777,2.2242,16.4266,1483
97435,-7.3394,-2.6444,18.3528,1507
97440,-16.1968,1.6089,5.1344,1485
97445,1.6101,4.9225,4.1982,1496
97450,14.3676,3.9636,14.7962,1499
97455,-3.5578,-4.2641,20.4728,1493
97460,-17.3197,0.1101,6.3985,1493
97465,-2.2529,5.1284,3.3615,1507
97470,12.9873,4.7022,12.7791,1482
97475,2.0614,-4.5179,20.6213,1494
97480,-14.613,-0.5794,7.9679,1507
97485,-6.11,4.9333,3.1472,1439
97490,10.9798,4.7345,10.5884,1510
97495,7.6004,-3.304,19.7055,1481
97500,-10.7488,-0.5064,10.1155,1485
97505,-9.6893,4.2892,3.4081,1509
97510,8.8957,4.6926,8.3007,1491
97515,11.6562,-1.2055,18.3839,1487
97520,-8.5329,-0.7685,13.0975,1506
97525,-13.1657,3.3567,4.045,1497
97530,6.4464,4.8459,6.3817,1511
97535,13.7212,1.0702,17.0228,1491
97540,-7.4831,-1.8866,16.4254,1493
97545,-16.1238,2.1249,4.9009,1495
97550,3.4285,5.1104,4.7022,1485
97555,14.0372,2.9844,15.5827,1483
97560,-5.4743,-3.4441,19.223,1508
97565,-17.2849,0.6907,6.0573,1497
97570,-0.2622,5.4181,3.7074,1494
97575,13.38,4.1384,13.8995,1495
97580,-1.1001,-4.373,20.3627,1493
97585,-15.7742,-0.4764,7.2688,1503
97590,-4.0857,5.2014,3.3375,1483
97595,12.0069,4.7058,11.9064,1495
97600,4.6699,-4.0498,20.0419,1507
97605,-12.73,-0.668,8.8741,1501
97610,-7.5872,4.725,3.322,1493
97615,10.1897,4.7848,9.6822,1510
97620,9.827,-2.4493,18.9154,1483
97625,-9.8869,-0.4956,11.3521,1499
97630,-10.8421,3.9744,3.6308,1495
97635,8.0697,4.7285,7.4472,1496
97640,12.9921,-0.2131,17.7434,1493
97645,-8.5258,-1.057,14.5328,1484
97650,-13.7379,2.9808,4.2737,1485
97655,5.5318,4.7956,5.5809,1503
97660,14.3281,2.0387,16.4625,1480
97665,-7.2676,-2.5582,18.0152,1502
97670,-16.1477,1.7945,5.1727,1502
97675,2.2769,4.9644,4.1994,1481
97680,14.3664,3.7122,14.9853,1507
97685,-4.3275,-4.051,20.2442,1491
97690,-17.261,0.4477,6.2094,1497
97695,-1.3886,5.1858,3.3806,1499
97700,13.2758,4.4353,13.0951,1482
97705,0.7326,-4.6723,21.0091,1499
97710,-15.7562,-0.2969,7.5681,1509
97715,-5.0889,5.1344,3.0933,1483
97720,11.5101,4.5657,10.8098,1491
97725,6.2752,-3.9097,20.4776,1498
97730,-12.2763,-0.3005,9.432,1486
97735,-8.4084,4.6244,3.225,1503
97740,9.5577,4.5717,8.6143,1495
97745,10.7488,-2.1189,19.3667,1485
97750,-9.6151,-0.3448,12.0931,1503
97755,-11.3988,3.8954,3.6368,1481
97760,7.2868,4.6208,6.596,1497
97765,13.4159,0.1053,18.0415,1494
97770,-8.2744,-1.1875,15.4641,1496
97775,-13.9366,2.982,4.3658,1499
97780,4.4975,4.7992,4.9237,1499
97785,14.4071,2.2924,16.508,1491
97790,-6.6427,-2.9329,18.7023,1511
97795,-16.0627,1.6041,5.2086,1491
97800,1.1564,4.9608,3.7912,1480
97805,14.0013,3.9444,14.5855,1499
97810,-3.0035,-4.5478,20.7948,1465
97815,-17.1413,0.2191,6.5038,1491
97820,-2.6755,5.1499,3.1975,1485
97825,12.7276,4.6723,12.4187,1491
97830,2.727,-4.6651,20.9744,1501
97835,-15.19,-0.3759,8.0493,1491
97840,-6.256,4.9632,3.0658,1491
97845,10.8278,4.7477,10.0018,1509
97850,8.2528,-3.377,20.1939,1484
97855,-11.5233,-0.3208,10.2951,1497
97860,-9.3829,4.3239,3.286,1495
97865,8.6694,4.6208,7.7033,1469
97870,12.05,-1.1768,18.931,1493
97875,-9.3637,-0.5483,13.3393,1495
97880,-12.1661,3.4991,3.8391,1493
97885,6.1148,4.6699,5.8981,1513
97890,14.054,1.057,17.528,1495
97895,-8.0637,-1.8711,16.8348,1490
97900,-14.7327,2.411,4.5717,1497
97905,3.0646,4.8686,4.4999,1493
97910,14.5244,3.0526,15.7347,1485
97915,-5.436,-3.7158,19.8886,1502
97920,-17.0371,0.996,5.6767,1495
97925,-0.486,5.1451,3.5075,1491
97930,13.5344,4.2892,13.7415,1493
97935,-0.3675,-4.7393,20.9145,1487
97940,-16.4003,-0.1221,7.1216,1509
97945,-4.2581,5.2301,3.0442,1491
97950,11.7448,4.6029,11.461,1495
97955,5.2565,-4.2629,20.6488,1501
97960,-12.8628,-0.3627,8.9735,1496
97965,-7.8877,4.7633,3.0849,1500
97970,9.9048,4.6064,9.1435,1503
97975,10.0616,-2.5211,19.5223,1469
97980,-9.8126,-0.3316,11.5221,1479
97985,-11.0468,3.9002,3.5147,1493
97990,7.6172,4.7681,6.9647,1499
97995,13.1454,-0.079,18.1552,1493
98000,-8.1714,-1.1456,14.965,1485
98005,-14.1593,2.9042,4.1575,1497
98010,4.8339,4.871,5.1415,1505
98015,14.2383,2.1799,16.5978,1483
98020,-6.7253,-2.8623,18.3336,1511
98025,-16.7271,1.5718,5.2313,1497
98030,1.5167,5.1739,3.9911,1482
98035,13.8493,3.7577,14.8644,1499
98040,-3.4213,-4.379,20.3651,1487
98045,-17.0802,0.2071,6.4224,1499
98050,-2.1691,5.2876,3.225,1507
98055,12.6833,4.555,12.8162,1497
98060,1.7382,-4.6675,20.8319,1482
98065,-14.7231,-0.4812,7.926,1503
98070,-5.776,5.0506,3.1208,1493
98075,11.0648,4.701,10.5273,1510
98080,7.1994,-3.5326,20.1233,1487
98085,-11.4347,-0.4681,9.894,1499
98090,-8.9711,4.3443,3.2753,1513
98095,9.0633,4.61,8.3115,1498
98100,11.3102,-1.4569,18.8364,1483
98105,-9.0585,-0.5842,12.7838,1501
98110,-12.0249,3.4369,3.7864,1483
98115,6.7109,4.7752,6.2788,1513
98120,13.6374,1.0223,17.4573,1491
98125,-7.8362,-1.7466,16.4386,1479
98130,-15.0751,2.2972,4.5765,1502
98135,3.8223,4.9859,4.6495,1495
98140,14.1449,3.1807,15.9238,1493
98145,-5.8742,-3.5279,19.5032,1509
98150,-17.1557,0.9038,5.7054,1497
98155,0.2693,5.2469,3.5147,1494
98160,13.4075,4.4125,14.0899,1495
98165,-1.7202,-4.6292,20.82,1495
98170,-16.2698,-0.2442,7.015,1503
98175,-3.5255,5.2996,3.0442,1483
98180,11.9255,4.7621,11.9926,1494
98185,3.7445,-4.3167,20.6249,1508
98190,-13.2076,-0.6321,8.5497,1497
98195,-6.9599,4.7561,3.0909,1494
98200,10.3118,4.7513,9.669,1501
98205,8.7975,-2.7186,19.7234,1485
98210,-10.1167,-0.4501,10.8529,1493
98215,-10.1526,3.9816,3.4309,1499
98220,8.26,4.7369,7.4124,1486
98225,12.3708,-0.3938,18.3516,1497
98230,-8.3354,-0.9361,14.1018,1483
98235,-13.3561,3.0239,4.1037,1492
98240,5.6587,4.7908,5.5701,1503
98245,13.8744,2.0111,16.9007,1487
98250,-7.179,-2.4983,17.6644,1502
98255,-16.198,1.7095,5.0422,1499
98260,2.466,5.0793,4.1204,1483
98265,13.8193,3.7972,15.2092,1501
98270,-4.4412,-4.1384,20.1221,1503
98275,-17.1305,0.2598,6.2632,1499
98280,-1.221,5.3235,3.3591,1453
98285,12.7838,4.6855,13.222,1495
98290,0.486,-4.6268,20.8008,1497
98295,-15.3229,-0.5938,7.6591,1502
98300,-4.8495,5.1715,3.1005,1485
98305,11.2911,4.7716,10.8745,1498
98310,6.0154,-3.6703,20.2597,1497
98315,-12.0368,-0.5435,9.5421,1493
98320,-8.1977,4.5238,3.2609,1500
98325,9.4798,4.5873,8.5533,1495
98330,10.4447,-1.6783,19.0926,1481
98335,-9.3003,-0.5243,12.305,1497
98340,-11.3282,3.5865,3.6715,1503
98345,7.1814,4.6304,6.4272,1484
98350,13.0496,0.7242,17.8188,1496
98355,-7.859,-1.482,15.8616,1493
98360,-14.5148,2.545,4.5645,1487
98365,4.2114,4.9285,4.7321,1487
98370,13.9211,2.7509,16.3189,1502
98375,-6.104,-3.2633,18.9764,1507
98380,-16.7522,1.227,5.5031,1493
98385,0.6955,5.2984,3.6488,1493
98390,13.386,3.9744,14.5316,1505
98395,-2.0255,-4.6579,20.638,1491
98400,-16.6612,-0.0036,6.7888,1523
98405,-3.0801,5.3917,3.0933,1483
98410,11.9686,4.4305,12.214,1496
98415,3.4393,-4.6005,20.7458,1497
98420,-14.0025,-0.3783,8.3258,1491
98425,-6.7959,5.0458,3.0586,1451
98430,10.2568,4.5203,9.8174,1495
98435,8.7257,-3.1077,19.8635,1491
98440,-10.2137,-0.1796,10.6446,1505
98445,-10.1287,4.1575,3.3722,1503
98450,8.175,4.5538,7.4591,1496
98455,12.2344,-0.65,18.597,1497
98460,-7.9416,-0.7829,14.1186,1483
98465,-13.6721,3.1196,4.0857,1499
98470,5.5701,4.8447,5.4336,1500
98475,13.4877,1.6568,17.1844,1493
98480,-6.7516,-2.4529,17.5016,1496
98485,-16.1202,1.81,5.1703,1511
98490,2.405,5.3331,4.0007,1487
98495,13.3106,3.2525,15.5168,1513
98500,-4.0737,-4.1396,19.9377,1484
98505,-16.8911,0.4968,6.2489,1499
98510,-1.4473,5.6192,3.2406,1507
98515,12.7,4.1396,13.4494,1483
98520,0.9924,-4.8183,20.8032,1498
98525,-15.7993,-0.2813,7.4567,1503
98530,-5.2325,5.2517,3.0382,1491
98535,11.3485,4.5466,10.9666,1507
98540,6.9324,-3.978,20.3064,1461
98545,-12.5899,-0.2191,9.4834,1497
98550,-8.6311,4.5598,3.1364,1511
98555,9.3218,4.634,8.3187,1490
98560,11.3437,-1.6723,19.0818,1479
98565,-9.1602,-0.3938,12.7635,1501
98570,-11.9327,3.5075,3.6811,1497
98575,6.8007,4.7669,6.104,1516
98580,13.4518,1.0965,17.7877,1493
98585,-7.4783,-1.8244,16.3931,1487
98590,-14.8464,2.2063,4.4772,1491
98595,3.6943,4.9943,4.4281,1487
98600,13.8253,3.2501,16.1812,1491
98605,-5.545,-3.6883,19.4732,1501
98610,-16.6948,0.7542,5.6395,1497
98615,-0.1173,5.2672,3.4764,1491
98620,13.3381,4.5633,14.0456,1491
98625,-1.3515,-4.8554,21.0235,1479
98630,-16.6409,-0.3496,6.7959,1507
98635,-3.9756,5.1272,3.14,1491
98640,11.9279,4.9117,11.6885,1489
98645,4.6052,-4.3048,20.7901,1499
98650,-13.2148,-0.4465,8.7281,1491
98655,-7.6088,4.6675,3.067,1509
98660,9.924,4.7992,9.2069,1497
98665,9.748,-2.3044,19.4708,1493
98670,-9.153,-0.3555,11.6047,1510
98675,-11.0085,3.784,3.5398,1492
98680,7.5836,4.6412,6.9097,1496
98685,12.5516,0.2897,18.0894,1493
98690,-7.5693,-1.3001,14.9913,1491
98695,-14.0456,2.5343,4.3455,1497
98700,5.0254,4.9261,5.023,1491
98705,13.4506,2.6516,16.5595,1496
98710,-6.4943,-3.0706,18.4366,1506
98715,-16.3787,1.1313,5.5198,1492
98720,1.4389,5.3115,3.7972,1483
98725,13.2986,4.2222,14.7866,1508
98730,-3.0418,-4.5119,20.4477,1489
98735,-16.8935,-0.1329,6.6451,1503
98740,-2.5678,5.4348,3.1939,1493
98745,12.1673,4.7704,12.5348,1492
98750,2.6647,-4.5741,20.711,1509
98755,-13.9618,-0.5399,8.2181,1490
98760,-6.4871,5.0757,3.0239,1487
98765,10.4591,4.5885,10.1239,1503
98770,8.1511,-3.0394,19.5929,1493
98775,-9.7193,-0.4118,10.6434,1499
98780,-10.0245,4.2078,3.3986,1501
98785,8.3893,4.4724,7.6962,1493
98790,11.576,-0.6369,18.4473,1499
98795,-7.7788,-0.8583,13.7487,1491
98800,-13.028,3.0335,4.2689,1493
98805,6.116,4.7872,5.6072,1500
98810,13.0735,1.5897,17.3137,1500
98815,-7.0509,-2.2565,17.0719,1499
98820,-15.2918,1.8268,5.1332,1503
98825,2.8683,5.2744,4.1755,1490
98830,13.5428,3.2956,15.7251,1513
98835,-4.6244,-4.0833,19.8252,1494
98840,-17.0048,0.6069,5.9556,1501
98845,-1.1887,5.5234,3.2801,1519
98850,12.8401,4.2832,13.5153,1487
98855,0.826,-4.7992,20.9265,1487
98860,-15.6808,-0.2071,7.3837,1509
98865,-5.1799,5.4061,3.0011,1495
98870,11.1474,4.4544,10.9247,1501
98875,6.7373,-4.0318,20.4692,1487
98880,-12.2547,-0.2047,9.4152,1487
98885,-8.3366,4.7573,3.1615,1502
98890,9.1746,4.4568,8.242,1507
98895,11.1115,-2.0889,19.7857,1481
98900,-10.2077,-0.2107,12.2128,1506
98905,-10.586,3.8906,3.5913,1495
98910,6.6619,4.6436,6.0142,1516
98915,13.6924,0.3615,18.4473,1493
98920,-9.511,-1.245,15.7658,1495
98925,-12.2607,3.0131,4.2533,1493
98930,3.5865,4.6711,4.476,1486
98935,14.6513,2.575,16.4194,1491
98940,-7.2508,-3.2118,19.4206,1502
98945,-13.6829,1.6987,5.3163,1499
98950,0.4705,4.725,3.5243,1497
98955,13.629,4.2006,13.8995,1490
98960,-1.6065,-4.8028,21.3455,1483
98965,-14.9757,0.328,6.9121,1510
98970,-2.7749,4.962,3.0634,1493
98975,11.5508,4.9967,11.2539,1497
98980,4.9057,-4.786,21.4916,1499
98985,-15.1182,-0.735,8.7029,1491
98990,-5.952,4.9596,3.0742,1509
98995,9.3817,5.0458,8.7077,1497
99000,10.2639,-3.0478,20.4465,1485
99005,-14.6082,-0.9792,11.2635,1515
99010,-8.6084,4.4748,3.4836,1503
99015,6.9911,4.7022,6.5924,1503
99020,13.7008,-0.6129,18.7239,1511
99025,-13.7427,-1.2869,14.8656,1495
99030,-10.6482,3.5614,4.0809,1493
99035,4.6076,4.4496,4.9668,1493
99040,14.6465,2.0016,16.5739,1498
99045,-10.4112,-2.5606,18.8507,1485
99050,-12.633,2.3188,5.0757,1501
99055,1.7083,4.4951,3.7062,1497
99060,13.7415,4.0127,14.3592,1499
99065,-3.5578,-4.549,21.2916,1486
99070,-14.8859,0.6404,6.4464,1512
99075,-1.9225,4.78,3.0227,1491
99080,12.0297,4.9285,11.9794,1515
99085,3.7529,-5.1044,21.5215,1508
99090,-16.3021,-0.5842,8.1954,1484
99095,-6.1603,4.9033,2.964,1497
99100,10.1658,4.9823,9.3111,1503
99105,9.8833,-3.4333,20.2777,1493
99110,-13.8074,-0.1867,10.7548,1512
99115,-9.7875,4.1527,3.3124,1483
99120,7.7405,4.6651,6.93,1499
99125,13.7379,-0.4717,18.5287,1493
99130,-9.1662,-0.7638,15.1026,1499
99135,-13.7475,2.9233,3.9911,1498
99140,4.5981,4.6005,4.9225,1503
99145,14.5005,2.4014,16.7367,1484
99150,-6.3363,-2.9461,18.8484,1513
99155,-17.3628,1.3336,5.2014,1493
99160,0.8894,5.1547,3.6751,1495
99165,13.5105,4.0881,14.6753,1494
99170,-2.2254,-4.3934,20.5446,1495
99175,-16.7917,-0.0323,6.6631,1505
99180,-2.988,5.4672,3.1256,1489
99185,11.898,4.4664,12.4642,1491
99190,3.2262,-4.3562,20.7505,1514
99195,-14.0025,-0.4489,8.2001,1501
99200,-6.6643,5.1846,3.0622,1487
99205,10.4495,4.4448,9.9754,1503
99210,8.7161,-3.1939,19.976,1491
99215,-11.4144,-0.2861,10.3358,1491
99220,-9.7504,4.3251,3.3495,1487
99225,8.3127,4.622,7.7069,1487
99230,12.9407,-1.166,18.7394,1497
99235,-9.8294,-0.5195,13.6888,1483
99240,-12.4534,3.4297,3.8331,1497
99245,5.521,4.7429,5.7209,1511
99250,14.7267,1.257,17.182,1493
99255,-7.7476,-2.138,17.6752,1506
99260,-15.3576,2.2051,4.6962,1494
99265,2.2889,4.9009,4.2162,1491
99270,14.4227,3.3519,15.3504,1509
99275,-4.027,-4.1216,20.3292,1484
99280,-17.5112,0.5734,5.9711,1506
99285,-1.561,5.132,3.3495,1495
99290,13.0364,4.5909,13.0436,1491
99295,1.5694,-4.6304,21.0163,1495
99300,-15.6916,-0.4693,7.6674,1501
99305,-5.5964,4.9261,3.1017,1490
99310,11.0852,4.7202,10.422,1519
99315,7.3717,-3.2226,20.1592,1493
99320,-11.0229,-0.516,9.9922,1499
99325,-9.1698,4.1659,3.3639,1499
99330,8.8178,4.5562,8.0421,1501
99335,11.4156,-0.8308,18.755,1486
99340,-8.3917,-0.7207,13.0484,1508
99345,-12.3218,3.1077,3.9744,1496
99350,6.4631,4.5705,6.0645,1507
99355,13.5715,1.5862,17.2742,1485
99360,-7.5525,-1.8591,16.6205,1485
99365,-14.8369,2.0423,4.8135,1501
99370,3.4034,4.7309,4.5861,1490
99375,14.2623,3.4381,15.7119,1499
99380,-5.6515,-3.4872,19.6552,1501
99385,-16.8097,0.7829,5.7078,1502
99390,-0.2274,4.9033,3.6703,1492
99395,13.5883,4.4963,13.7343,1487
99400,-1.069,-4.4843,21.1623,1497
99405,-16.9869,-0.3364,7.0162,1513
99410,-4.0151,4.9871,3.1879,1485
99415,11.9866,4.8315,11.4,1501
99420,5.0901,-4.0091,20.729,1511
99425,-13.5213,-0.4764,8.8777,1493
99430,-7.6399,4.5538,3.1759,1503
99435,9.8497,4.5861,9.0429,1500
99440,10.1813,-2.1356,19.4732,1486
99445,-9.4188,-0.3651,11.6885,1509
99450,-11.1941,3.6703,3.6105,1496
99455,7.3801,4.4448,6.8414,1493
99460,13.0448,0.3017,18.0475,1496
99465,-7.8278,-1.1672,15.0966,1486
99470,-14.522,2.5534,4.3706,1499
99475,4.701,4.7812,5.0566,1501
99480,14.0528,2.5007,16.4913,1496
99485,-6.5302,-2.7701,18.4078,1512
99490,-16.9665,1.251,5.3738,1501
99495,1.2917,5.1475,3.8918,1495
99500,13.6098,3.9421,14.7207,1499
99505,-3.0682,-4.1096,20.3938,1490
99510,-16.8073,-0.0323,6.6846,1495
99515,-2.5821,5.2098,3.2202,1495
99520,12.0967,4.4987,12.7419,1491
99525,2.5474,-4.2449,20.4118,1513
99530,-13.0364,-0.5519,8.2277,1487
99535,-6.4332,4.9847,3.1017,1487
99540,10.1933,4.4496,10.5177,1509
99545,7.8254,-2.9568,19.3882,1486
99550,-9.2775,-0.4465,10.4567,1511
99555,-10.1227,4.1982,3.5171,1497
99560,8.2001,4.4077,8.1858,1495
99565,11.4886,-0.8954,18.0978,1491
99570,-7.7788,-0.7123,13.3561,1497
99575,-13.5572,3.2106,4.3191,1497
99580,6.0717,4.7836,6.0968,1515
99585,13.1609,1.2701,17.024,1497
99590,-7.1802,-1.9082,16.6194,1501
99595,-16.1022,1.9046,5.3702,1497
99600,3.0394,5.3056,4.5071,1487
99605,13.2663,2.8635,15.6605,1507
99610,-4.8231,-3.5446,19.0399,1487
99615,-16.6337,0.6045,6.3686,1500
99620,-0.8631,5.7724,3.5003,1507
99625,12.2679,3.7661,14.0288,1496
99630,0.2502,-4.4867,19.9437,1491
99635,-14.2623,-0.1628,7.5597,1508
99640,-4.9692,5.7257,3.1915,1483
99645,10.8302,4.0318,11.7316,1500
99650,6.1866,-3.9133,19.5056,1495
99655,-10.6099,-0.1329,9.3805,1498
99660,-8.819,4.9752,3.3351,1502
99665,9.0297,4.1563,9.2296,1501
99670,10.9738,-2.1919,18.5634,1497
99675,-8.5353,-0.2107,12.1637,1509
99680,-12.3517,3.9504,3.9421,1495
99685,6.8342,4.5179,6.8115,1509
99690,13.4806,0.097,17.6524,1495
99695,-7.7345,-1.2151,15.6772,1489
99700,-15.4163,2.8012,4.8147,1507
99705,3.8942,5.0578,4.8902,1491
99710,14.1402,2.1703,16.3811,1487
99715,-5.6443,-3.0933,18.7191,1496
99720,-16.9462,1.3791,5.6659,1486
99725,0.1401,5.3618,3.7409,1490
99730,13.5596,3.7182,14.4981,1481
99735,-0.9996,-4.5993,20.4417,1496
99740,-16.6469,0.0862,6.8761,1513
99745,-3.7828,5.2589,3.1951,1486
99750,12.0799,4.4173,11.9351,1500
99755,5.1727,-4.5322,20.5111,1493
99760,-14.1916,-0.2909,8.5796,1499
99765,-7.4723,4.9979,3.2118,1515
99770,9.9539,4.5478,9.3386,1496
99775,10.3801,-2.9245,19.7234,1481
99780,-10.7536,-0.0838,11.2599,1511
99785,-10.6781,4.2389,3.4692,1493
99790,7.501,4.549,6.8773,1503
99795,13.4614,-0.5555,18.664,1501
99800,-8.5748,-0.7961,14.868,1487
99805,-13.7032,3.2836,4.0701,1498
99810,4.5143,4.7645,5.0482,1491
99815,14.5436,1.7346,17.0575,1487
99820,-6.6391,-2.63,18.2737,1501
99825,-16.2087,1.8543,4.9883,1507
99830,0.984,4.9895,3.814,1496
99835,14.0767,3.5063,15.0392,1511
99840,-2.7629,-4.3586,20.5255,1495
99845,-17.1018,0.3591,6.3219,1501
99850,-2.7916,5.2038,3.1723,1495
99855,12.6174,4.3958,12.633,1483
99860,3.0754,-4.6699,20.8691,1510
99865,-14.9697,-0.2131,7.9811,1497
99870,-6.4045,5.0518,2.97,1499
99875,10.732,4.5478,10.2077,1510
99880,8.6347,-3.4812,20.1807,1485
99885,-11.4144,-0.1161,10.2089,1497
99890,-9.5828,4.3814,3.1723,1515
99895,8.3845,4.476,7.7129,1505
99900,12.311,-1.3563,19.1309,1485
99905,-8.9064,-0.4501,13.4518,1493
99910,-12.8473,3.4381,3.7852,1491
99915,5.7545,4.7118,5.7341,1509
99920,14.212,1.0702,17.7303,1493
99925,-7.5214,-1.9525,16.9414,1496
99930,-15.9071,2.2637,4.6088,1494
99935,2.6288,5.0793,4.312,1494
99940,14.3485,3.061,15.9753,1500
99945,-4.7692,-3.6703,19.7186,1511
99950,-17.2802,0.8332,5.8083,1507
99955,-0.9816,5.3235,3.3004,1501
99960,13.119,4.0594,13.8241,1493
99965,0.1472,-4.5179,20.6739,1493
99970,-15.2068,-0.1951,7.3263,1507
99975,-4.6591,5.272,2.9006,1481
99980,11.2911,4.3467,11.5496,1487
99985,5.5785,-4.0139,20.3543,1493
99990,-11.6119,-0.3819,9.1243,1493
99995,-8.2408,4.7333,3.1113,1512
100000,9.5026,4.4257,9.0848,1493
100005,10.2436,-2.2913,19.338,1493
100010,-9.232,-0.2849,11.6502,1512
100015,-11.5017,3.9193,3.5674,1481
100020,7.3634,4.6555,6.9456,1499
100025,13.3896,-0.0682,18.0954,1495
100030,-8.0804,-1.0175,15.0559,1490
100035,-14.4694,2.8479,4.2485,1493
100040,4.4604,4.8471,5.053,1481
100045,14.4095,2.1847,16.6481,1493
100050,-6.4572,-2.8216,18.5299,1507
100055,-16.9342,1.5215,5.2852,1493
100060,0.8511,5.1703,3.7637,1486
100065,13.9378,3.8104,14.9087,1503
100070,-2.5977,-4.3299,20.4704,1490
100075,-16.9797,0.2071,6.5649,1515
100080,-2.9712,5.3032,3.1568,1483
100085,12.5109,4.4365,12.6306,1487
100090,3.1675,-4.5789,20.7781,1501
100095,-14.2802,-0.3352,8.1666,1502
100100,-6.6583,5.0075,2.9916,1497
100105,10.6889,4.5442,10.064,1507
100110,8.6957,-3.377,19.9389,1494
100115,-10.8924,-0.2466,10.4256,1501
100120,-9.9647,4.3311,3.2765,1495
100125,8.4491,4.6017,7.6722,1501
100130,12.4115,-1.2007,18.8699,1503
100135,-8.7448,-0.5423,13.5715,1497
100140,-13.0975,3.4477,3.7912,1489
100145,5.7748,4.7968,5.6778,1511
100150,14.2012,1.1121,17.5507,1500
100155,-7.3777,-1.9656,17.0611,1487
100160,-15.9178,2.296,4.6807,1511
100165,2.6288,5.0386,4.1899,1493
100170,14.3532,2.8886,15.8748,1517
100175,-4.7453,-3.6308,19.7318,1497
100180,-17.2131,0.899,5.8155,1507
100185,-0.9469,5.3163,3.3172,1497
100190,13.4207,4.0438,13.811,1495
100195,-0.0048,-4.5191,20.9325,1499
100200,-16.0005,-0.1951,7.2449,1515
100205,-4.6543,5.2433,2.958,1493
100210,11.7926,4.4424,11.3952,1499
100215,5.5917,-4.1073,20.6213,1503
100220,-12.8269,-0.3891,9.1016,1498
100225,-8.0302,4.725,3.0263,1509
100230,9.8737,4.5909,8.9699,1499
100235,10.3214,-2.4469,19.7151,1493
100240,-9.8641,-0.2634,11.6322,1515
100245,-11.1989,3.9205,3.4105,1493
100250,7.5286,4.6256,6.7337,1495
100255,13.2794,-0.1939,18.4102,1501
100260,-8.1989,-1.0092,15.0033,1493
100265,-14.4311,2.9497,4.1156,1497
100270,4.537,4.8387,5.0254,1503
100275,14.3664,2.0698,16.8528,1493
100280,-6.5709,-2.6983,18.3228,1513
100285,-16.9845,1.5682,5.1583,1499
100290,1.1564,5.1619,3.7709,1496
100295,13.9211,3.626,15.0069,1503
100300,-3.0047,-4.1408,20.3232,1482
100305,-16.8648,0.1975,6.5062,1507
100310,-2.6025,5.3331,3.14,1487
100315,12.5923,4.3227,12.8796,1496
100320,2.2278,-4.4508,20.723,1497
100325,-14.2551,-0.4417,8.0122,1497
100330,-6.1316,5.0458,2.964,1493
100335,10.9032,4.5083,10.4902,1509
100340,7.6614,-3.4512,20.0897,1485
100345,-11.1223,-0.3627,10.0365,1503
100350,-9.3913,4.3455,3.2406,1497
100355,8.8538,4.5765,8.1678,1491
100360,11.7867,-1.3683,18.8974,1489
100365,-8.7879,-0.5459,13.0472,1501
100370,-12.785,3.486,3.814,1495
100375,6.3794,4.7453,6.0633,1512
100380,13.8995,0.9134,17.4932,1484
100385,-7.5046,-1.7107,16.6409,1497
100390,-15.9406,2.3152,4.6412,1501
100395,3.2908,5.0709,4.4628,1499
100400,14.1689,2.8108,15.9143,1507
100405,-5.2541,-3.3842,19.3894,1497
100410,-17.2071,0.9421,5.855,1493
100415,-0.2741,5.3247,3.4261,1497
100420,13.3704,3.9959,14.1066,1491
100425,-1.0032,-4.4041,20.6763,1487
100430,-15.9753,-0.2059,7.1168,1544
100435,-4.0175,5.2648,2.9916,1490
100440,11.9662,4.4245,11.8417,1491
100445,4.6304,-4.2054,20.5219,1492
100450,-13.1956,-0.4417,8.7867,1496
100455,-7.5765,4.8339,3.0742,1511
100460,10.252,4.5394,9.5002,1495
100465,9.7911,-2.8563,19.6313,1481
100470,-10.416,-0.255,11.1247,1515
100475,-10.6781,4.1456,3.3746,1487
100480,7.9332,4.6292,7.1694,1503
100485,13.1214,-0.5842,18.4976,1495
100490,-8.5234,-0.8452,14.4729,1495
100495,-13.8397,3.2034,3.984,1503
100500,5.102,4.8088,5.2816,1497
100505,14.3927,1.7406,17.0623,1494
100510,-6.9204,-2.4936,17.9948,1515
100515,-16.6936,1.8268,4.9955,1495
100520,1.7202,5.1116,3.9732,1484
100525,14.1569,3.5207,15.2415,1509
100530,-3.6236,-4.039,20.249,1487
100535,-17.2239,0.3627,6.3111,1495
100540,-2.0375,5.3032,3.1927,1497
100545,12.9299,4.2665,13.0903,1491
100550,1.6831,-4.5047,20.8571,1509
100555,-14.8596,-0.3831,7.8446,1501
100560,-5.7186,5.1511,2.9449,1491
100565,11.1917,4.4939,10.6841,1511
100570,7.1635,-3.6093,20.3088,1496
100575,-11.807,-0.4022,9.7995,1493
100580,-8.9555,4.4879,3.1819,1507
100585,9.1877,4.6208,8.2672,1495
100590,11.4922,-1.7382,19.1907,1491
100595,-9.4008,-0.3974,12.7563,1507
100600,-12.044,3.6571,3.6117,1501
100605,6.705,4.7034,6.1639,1515
100610,13.878,0.5399,17.8536,1497
100615,-7.9464,-1.5179,16.2674,1489
100620,-15.208,2.6504,4.4221,1502
100625,3.6847,4.9309,4.5215,1495
100630,14.4598,2.6097,16.2961,1497
100635,-5.7425,-3.2202,19.3092,1545
100640,-17.1353,1.2486,5.5234,1504
100645,0.1317,5.1595,3.4201,1494
100650,13.641,3.7912,14.3449,1501
100655,-1.5718,-4.3778,20.7338,1501
100660,-16.5008,-0.0168,6.8474,1518
100665,-3.6524,5.2672,2.9485,1485
100670,12.293,4.367,12.0776,1489
100675,3.9241,-4.3383,20.7505,1495
100680,-13.7451,-0.4513,8.5078,1501
100685,-7.1204,4.8686,2.9473,1491
100690,10.4818,4.5538,9.6414,1496
100695,9.0812,-3.0227,20.0095,1485
100700,-10.5836,-0.2957,10.8565,1509
100705,-10.2867,4.2114,3.3028,1493
100710,8.3486,4.6136,7.4196,1491
100715,12.5911,-0.7949,18.7466,1511
100720,-8.4886,-0.6943,13.9486,1493
100725,-13.4614,3.2298,3.8774,1495
100730,5.6443,4.7417,5.4708,1515
100735,14.1366,1.4904,17.3436,1499
100740,-7.2484,-2.1344,17.4765,1501
100745,-16.3596,2.0387,4.7968,1508
100750,2.3463,5.1056,4.0546,1487
100755,14.2455,3.2262,15.6353,1515
100760,-4.5645,-3.7721,19.9904,1487
100765,-17.2813,0.6572,6.025,1497
100770,-1.2641,5.3427,3.231,1508
100775,13.3142,4.0905,13.5655,1493
100780,0.2119,-4.5442,20.9002,1495
100785,-15.5444,-0.1927,7.4316,1517
100790,-4.8459,5.272,2.9102,1497
100795,11.7364,4.3874,11.3389,1492
100800,5.7437,-4.1192,20.5638,1495
100805,-12.5109,-0.3005,9.2392,1499
100810,-8.1882,4.7501,2.9951,1511
100815,9.839,4.476,8.9962,1491
100820,10.3178,-2.5391,19.6636,1490
100825,-9.7827,-0.2693,11.6981,1511
100830,-11.3964,4.0151,3.4429,1485
100835,7.5022,4.6292,6.8055,1498
100840,13.2088,-0.3711,18.4796,1494
100845,-8.09,-0.9625,15.0093,1495
100850,-14.5831,3.1077,4.1408,1495
100855,4.7752,4.9225,5.029,1487
100860,14.3054,1.7382,17.012,1493
100865,-6.602,-2.5426,18.1528,1515
100870,-16.8719,1.7992,5.102,1501
100875,1.5455,5.2481,3.7481,1495
100880,14.0228,3.2992,15.2295,1507
100885,-3.3782,-4.0115,20.2633,1497
100890,-17.0312,0.4513,6.3817,1493
100895,-2.1668,5.4444,3.0562,1485
100900,12.8329,4.045,13.0999,1487
100905,1.5586,-4.5873,20.9612,1509
100910,-14.6657,-0.31,7.8219,1501
100915,-5.8287,5.3127,2.8527,1487
100920,11.224,4.2952,10.7392,1503
100925,6.9001,-3.8199,20.4369,1494
100930,-10.9714,-0.267,9.7636,1519
100935,-9.2919,4.6866,3.037,1507
100940,9.3757,4.4377,8.3857,1493
100945,10.9894,-2.0099,19.4289,1495
100950,-8.4635,-0.3807,12.4834,1502
100955,-12.645,3.8523,3.5985,1498
100960,7.0509,4.6675,6.3003,1508
100965,13.1968,0.1616,18.1768,1499
100970,-7.3813,-1.324,15.6509,1501
100975,-15.5587,2.6983,4.397,1503
100980,4.2174,5.0673,4.5789,1493
100985,13.9522,2.0901,16.6481,1507
100990,-5.9185,-2.8551,18.5455,1507
100995,-17.1868,1.3408,5.6012,1495
101000,0.9074,5.4588,3.5003,1515
101005,13.5931,3.4465,14.8836,1499
101010,-2.5881,-4.0677,20.2933,1485
101015,-16.5176,0.1808,6.8091,1501
101020,-2.7557,5.5534,2.9521,1489
101025,12.402,4.1084,12.6558,1493
101030,2.3966,-4.367,20.8056,1513
101035,-13.4722,-0.3196,8.2313,1499
101040,-6.3925,5.2289,2.8383,1496
101045,10.7751,4.2401,10.2604,1503
101050,7.452,-3.4105,20.2107,1485
101055,-10.1754,-0.3795,10.1873,1491
101060,-9.7588,4.5071,3.2034,1501
101065,8.8741,4.4209,8.0505,1499
101070,11.2635,-1.4952,19.174,1496
101075,-8.2588,-0.5435,12.8832,1497
101080,-12.9024,3.5937,3.7613,1491
101085,6.675,4.7681,6.0298,1511
101090,13.4159,0.6249,17.8763,1498
101095,-7.4196,-1.5694,16.1908,1485
101100,-15.6712,2.5019,4.5741,1491
101105,3.7242,5.126,4.4592,1501
101110,14.1007,2.478,16.3009,1499
101115,-5.6755,-3.0801,19.0806,1507
101120,-17.2203,1.1408,5.7042,1499
101125,0.3795,5.3822,3.4237,1493
101130,13.6122,3.7242,14.449,1503
101135,-1.8627,-4.2545,20.6141,1491
101140,-16.5751,-0.0994,6.9192,1509
101145,-3.3686,5.4097,2.8958,1485
101150,12.4044,4.282,12.2978,1491
101155,3.2453,-4.2401,20.7697,1512
101160,-13.1286,-0.492,8.5724,1495
101165,-7.021,5.0865,2.8527,1496
101170,10.7356,4.3742,9.9216,1516
101175,8.0481,-3.0095,20.0395,1493
101180,-9.5409,-0.3711,10.6398,1502
101185,-10.4184,4.3527,3.1496,1503
101190,8.7436,4.4089,7.6794,1507
101195,11.4814,-1.1301,18.9908,1497
101200,-7.9188,-0.6859,13.3501,1495
101205,-13.5775,3.4536,3.9037,1497
101210,6.4775,4.725,5.7581,1517
101215,13.3106,0.8966,17.7925,1482
101220,-7.1503,-1.7813,16.3919,1495
101225,-16.1178,2.296,4.7812,1549
101230,3.626,5.1427,4.2856,1485
101235,13.8708,2.6001,16.1908,1491
101240,-5.4205,-3.1879,19.0255,1509
101245,-17.2885,0.9385,5.9173,1499
101250,0.1592,5.5174,3.4117,1495
101255,13.3142,3.7505,14.3652,1492
101260,-1.6915,-4.1707,20.4944,1490
101265,-16.0412,-0.1736,7.1407,1508
101270,-3.4022,5.4863,2.9401,1485
101275,12.1769,4.2677,12.1961,1497
101280,3.3196,-4.1647,20.7398,1499
101285,-13.0999,-0.5279,8.5832,1497
101290,-6.9516,4.9895,2.9401,1491
101295,10.6458,4.4365,9.8282,1505
101300,8.242,-3.0562,19.9712,1480
101305,-10.2053,-0.4238,10.6267,1503
101310,-10.1119,4.2198,3.2226,1492
101315,8.6826,4.6136,7.6471,1507
101320,11.9291,-1.0918,18.8962,1503
101325,-8.3629,-0.6428,13.5799,1497
101330,-13.2423,3.389,3.7697,1492
101335,6.2405,4.78,5.5929,1503
101340,13.8313,1.142,17.5866,1490
101345,-7.1958,-1.8411,16.909,1495
101350,-16.0519,2.2182,4.7357,1497
101355,3.1161,5.1272,4.1348,1495
101360,14.1497,2.9736,16.0555,1513
101365,-5.0853,-3.4201,19.5151,1495
101370,-17.2526,0.8128,5.8885,1497
101375,-0.4106,5.2792,3.1987,1507
101380,13.4075,4.0426,13.9881,1491
101385,-0.9828,-4.3562,20.8511,1495
101390,-16.0328,-0.3017,7.2305,1507
101395,-4.209,5.2457,2.8671,1496
101400,12.0428,4.537,11.6478,1501
101405,4.367,-4.0713,20.7781,1502
101410,-12.7563,-0.5578,8.8825,1495
101415,-7.6399,4.7836,2.9628,1516
101420,10.2065,4.5418,9.2907,1485
101425,9.3218,-2.5845,19.9066,1491
101430,-9.4499,-0.3926,11.1929,1517
101435,-11.0373,4.0115,3.3208,1483
101440,7.9787,4.6208,7.0162,1495
101445,12.5767,-0.4082,18.573,1483
101450,-7.8697,-0.9756,14.5232,1485
101455,-14.364,3.0275,4.0666,1491
101460,5.278,4.8973,5.2265,1497
101465,13.8983,1.8136,17.1161,1507
101470,-6.7612,-2.3786,17.7231,1507
101475,-16.7211,1.6843,5.0458,1498
101480,2.0794,5.217,3.8379,1495
101485,13.793,3.3172,15.4079,1507
101490,-3.9828,-3.814,19.9892,1493
101495,-16.9665,0.2993,6.3961,1497
101500,-1.652,5.4289,3.1376,1496
101505,12.8186,4.1958,13.4171,1491
101510,0.9589,-4.3981,20.6955,1507
101515,-14.7052,-0.4441,7.7165,1509
101520,-5.4121,5.1619,2.8659,1495
101525,11.3365,4.4831,10.9583,1503
101530,6.2776,-3.6392,20.225,1483
101535,-10.9595,-0.4597,9.6702,1497
101540,-9.013,4.531,3.0311,1503
101545,9.4487,4.5514,8.5305,1497
101550,10.6039,-1.8603,19.1943,1497
101555,-8.5102,-0.4956,12.408,1501
101560,-12.4211,3.699,3.6643,1496
101565,7.1144,4.7585,6.3506,1515
101570,13.1334,0.3663,18.0463,1496
101575,-7.4879,-1.3659,15.688,1485
101580,-15.3708,2.6169,4.4951,1499
101585,4.3383,5.0637,4.6471,1493
101590,13.884,2.3331,16.5116,1497
101595,-6.0741,-2.9054,18.6377,1501
101600,-17.0192,1.33,5.5713,1501
101605,0.8918,5.3989,3.5362,1498
101610,13.5057,3.6512,14.7998,1509
101615,-2.6588,-4.1336,20.4381,1491
101620,-16.4697,0.0132,6.778,1509
101625,-2.806,5.4265,2.9772,1494
101630,12.4367,4.2976,12.5803,1497
101635,2.4457,-4.3491,20.8679,1507
101640,-13.6589,-0.4549,8.2696,1495
101645,-6.3841,5.0949,2.891,1491
101650,10.7919,4.4616,10.2232,1511
101655,7.6423,-3.2693,20.1831,1483
101660,-10.4267,-0.3759,10.307,1495
101665,-9.6067,4.3491,3.1795,1529
101670,8.8562,4.5191,7.847,1507
101675,11.4598,-1.2953,19.0854,1496
101680,-8.4539,-0.6069,13.1561,1498
101685,-12.821,3.4249,3.7469,1500
101690,6.4524,4.7321,5.8215,1517
101695,13.5213,0.9385,17.7734,1487
101700,-7.4747,-1.7549,16.532,1497
101705,-15.7096,2.2745,4.5897,1495
101710,3.4465,5.0781,4.3132,1483
101715,14.0025,2.8084,16.2028,1506
101720,-5.4755,-3.3387,19.3416,1497
101725,-17.1545,0.899,5.7988,1502
101730,-0.0371,5.3271,3.3112,1493
101735,13.3225,3.9947,14.1916,1485
101740,-1.4329,-4.3455,20.6751,1494
101745,-15.84,-0.2274,7.1778,1512
101750,-3.7445,5.3175,2.8455,1485
101755,11.9746,4.4149,11.965,1491
101760,3.7781,-4.0558,20.6296,1502
101765,-12.4738,-0.6009,8.7532,1499
101770,-7.3071,4.8004,2.9245,1507
101775,10.2639,4.5502,9.5409,1495
101780,8.7077,-2.642,19.7905,1493
101785,-9.3302,-0.4717,11.0804,1505
101790,-10.7009,4.0043,3.3854,1491
101795,8.1654,4.6651,7.3035,1499
101800,12.129,-0.5064,18.5395,1480
101805,-7.8913,-0.8667,14.0911,1494
101810,-13.8696,2.9904,4.0713,1499
101815,5.7377,4.8866,5.3534,1514
101820,13.6122,1.6891,17.2047,1491
101825,-6.9564,-2.2015,17.4489,1511
101830,-16.3476,1.7693,5.0649,1507
101835,2.5271,5.1511,3.9828,1497
101840,13.7643,3.3651,15.5108,1502
101845,-4.701,-3.7026,19.8994,1493
101850,-17.0383,0.3627,6.2788,1508
101855,-1.1133,5.3558,3.1999,1491
101860,13.0029,4.2485,13.5632,1479
101865,-0.1305,-4.3491,20.8044,1497
101870,-14.9961,-0.516,7.6124,1509
101875,-4.8279,5.2194,2.8204,1477
101880,11.5436,4.5669,11.297,1503
101885,5.3139,-3.7038,20.389,1483
101890,-11.303,-0.5423,9.4379,1492
101895,-8.2492,4.5681,3.0227,1533
101900,9.7264,4.5238,8.9088,1493
101905,9.8474,-1.8806,19.3835,1493
101910,-8.7652,-0.5507,11.9147,1512
101915,-11.5209,3.6152,3.5889,1497
101920,7.5082,4.61,6.6822,1497
101925,12.651,0.3148,18.1816,1499
101930,-7.7417,-1.2282,15.1146,1499
101935,-14.6094,2.6552,4.3287,1498
101940,4.7884,4.9237,4.974,1497
101945,13.9175,2.3104,16.7415,1503
101950,-6.6068,-2.7031,18.2678,1511
101955,-16.757,1.385,5.3522,1485
101960,1.5742,5.2637,3.6931,1499
101965,13.7906,3.6847,15.0212,1508
101970,-3.5075,-3.8918,20.3447,1495
101975,-16.7606,0.1233,6.608,1495
101980,-1.9956,5.2708,3.0071,1490
101985,12.7084,4.3766,12.8928,1495
101990,1.391,-4.2569,20.8152,1512
101995,-14.285,-0.6117,8.0637,1496
102000,-5.5917,4.9668,2.8742,1497
102005,11.2108,4.5226,10.5704,1509
102010,6.5793,-3.3232,20.3471,1465
102015,-11.1007,-0.5555,9.924,1497
102020,-8.8945,4.3515,3.073,1507
102025,9.4068,4.5849,8.2061,1498
102030,10.732,-1.4497,19.2278,1495
102035,-8.764,-0.5662,12.5923,1495
102040,-12.0716,3.468,3.6129,1485
102045,7.003,4.7274,6.1088,1513
102050,13.2651,0.735,17.9817,1493
102055,-7.6267,-1.4736,15.9574,1480
102060,-15.1014,2.4241,4.3886,1505
102065,4.0522,4.9656,4.5286,1494
102070,14.0995,2.6624,16.4589,1494
102075,-6.0525,-3.0071,18.901,1498
102080,-17.115,1.1097,5.5198,1487
102085,0.6249,5.272,3.4022,1487
102090,13.6386,3.8714,14.6836,1493
102095,-2.4864,-4.1503,20.5746,1489
102100,-16.4218,-0.1161,6.8283,1509
102105,-2.988,5.3271,2.9532,1493
102110,12.475,4.4029,12.4331,1501
102115,2.6157,-4.1839,20.8008,1507
102120,-13.5979,-0.5842,8.3558,1499
102125,-6.4057,4.9524,2.8994,1499
102130,10.8517,4.5047,10.0892,1507
102135,7.6555,-3.122,20.1723,1491
102140,-10.6434,-0.486,10.3513,1503
102145,-9.5325,4.221,3.213,1501
102150,8.8849,4.6196,7.8709,1485
102155,11.4994,-1.1624,19.0794,1495
102160,-8.758,-0.6656,13.1059,1496
102165,-12.5528,3.3124,3.7134,1499
102170,6.4703,4.7477,5.8622,1544
102175,13.6924,1.0271,17.735,1499
102180,-7.6028,-1.7286,16.6325,1501
102185,-15.5408,2.296,4.5777,1501
102190,3.4441,5.0266,4.3132,1498
102195,14.2575,2.8742,16.1752,1499
102200,-5.618,-3.2118,19.4014,1463
102205,-17.1688,0.9313,5.6683,1496
102210,-0.0156,5.2696,3.3208,1496
102215,13.5524,3.9253,14.2659,1463
102220,-1.6388,-4.1899,20.7996,1485
102225,-15.8975,-0.1568,7.112,1507
102230,-3.6308,5.2313,2.8383,1491
102235,12.123,4.4245,12.0404,1496
102240,3.4764,-4.1444,20.7841,1507
102245,-13.0508,-0.5614,8.6,1499
102250,-6.9815,4.8064,2.8683,1513
102255,10.489,4.5813,9.6678,1499
102260,8.3989,-2.8814,20.073,1489
102265,-10.1287,-0.4441,10.7368,1515
102270,-10.088,4.0558,3.3279,1501
102275,8.5114,4.6543,7.428,1493
102280,12.0093,-0.8116,18.8531,1510
102285,-8.4096,-0.7542,13.7403,1512
102290,-13.1932,3.1795,3.8726,1501
102295,5.8993,4.7848,5.5498,1507
102300,13.8062,1.4676,17.4394,1490
102305,-7.2844,-2.0291,17.1557,1509
102310,-15.9705,1.9764,4.7764,1505
102315,2.9125,5.0003,4.0797,1490
102320,14.0085,3.2525,15.8209,1506
102325,-4.9907,-3.5374,19.8431,1514
102330,-17.2083,0.6381,5.9927,1507
102335,-0.5974,5.3199,3.1999,1501
102340,13.2591,4.1671,13.8744,1491
102345,-0.8104,-4.2748,20.9864,1448
102350,-15.7119,-0.3268,7.2963,1523
102355,-4.2401,5.2625,2.7749,1484
102360,11.9387,4.4065,11.5867,1492
102365,4.4628,-3.9421,20.905,1489
102370,-12.6905,-0.5662,8.9699,1497
102375,-7.5812,4.7393,2.8599,1507
102380,10.2244,4.5502,9.2021,1503
102385,9.1949,-2.5007,19.9748,1485
102390,-9.9216,-0.4956,11.236,1509
102395,-10.6135,3.9169,3.2489,1487
102400,8.1116,4.6615,7.0402,1507
102405,12.4283,-0.4417,18.7849,1499
102410,-8.2696,-0.9266,14.3951,1485
102415,-13.6984,2.982,3.8702,1491
102420,5.4911,4.8435,5.1715,1509
102425,14.0073,1.7897,17.2813,1492
102430,-7.0054,-2.2709,17.7063,1515
102435,-16.4458,1.6999,4.9033,1493
102440,2.387,5.0673,3.8535,1487
102445,14.0037,3.5231,15.5635,1515
102450,-4.4927,-3.6787,20.0466,1485
102455,-17.1161,0.334,6.1962,1497
102460,-1.0367,5.2313,2.9892,1510
102465,13.0448,4.3431,13.5979,1497
102470,-0.2394,-4.2306,21.069,1501
102475,-14.9745,-0.5327,7.6148,1507
102480,-4.6112,5.1691,2.721,1439
102485,11.6705,4.5238,11.3389,1491
102490,4.7357,-3.7625,20.7829,1497
102495,-11.9387,-0.6548,9.1973,1497
102500,-7.9284,4.6436,2.8623,1511
102505,10.0676,4.4963,9.0046,1495
102510,9.2895,-2.2793,19.9257,1493
102515,-9.1387,-0.492,11.4838,1507
102520,-11.084,3.869,3.2777,1496
102525,7.9164,4.5729,6.8354,1503
102530,12.396,-0.1736,18.6879,1507
102535,-7.7788,-0.996,14.613,1497
102540,-14.4598,2.8802,4.0235,1509
102545,5.3534,4.8076,5.1272,1507
102550,13.7355,1.7741,17.2694,1498
102555,-6.7121,-2.3128,17.7051,1503
102560,-16.8564,1.6723,5.0398,1500
102565,2.4086,5.2134,3.6739,1491
102570,13.6434,3.2298,15.597,1503
102575,-4.2533,-3.6176,19.8707,1485
102580,-16.8504,0.413,6.3722,1497
102585,-1.0008,5.5031,2.9868,1495
102590,12.8138,3.9564,13.7008,1494
102595,-0.182,-4.1899,20.7362,1493
102600,-14.9937,-0.4513,7.7045,1509
102605,-4.5059,5.3271,2.7402,1487
102610,11.6382,4.306,11.394,1493
102615,4.9213,-3.6679,20.5734,1493
102620,-12.0333,-0.6081,9.2859,1489
102625,-7.8781,4.7309,2.9137,1511
102630,10.064,4.3946,8.9399,1499
102635,9.3913,-2.2206,19.7498,1490
102640,-9.3063,-0.5435,11.5843,1517
102645,-11.0516,3.8535,3.3878,1483
102650,8.0026,4.5298,6.7098,1499
102655,12.3373,-0.0132,18.585,1499
102660,-7.75,-1.0439,14.7196,1497
102665,-14.2539,2.8096,4.1719,1492
102670,5.436,4.7321,4.95,1499
102675,13.6326,2.1368,17.0503,1491
102680,-6.6415,-2.3308,17.8572,1517
102685,-16.6601,1.4988,5.2385,1491
102690,2.2984,5.1463,3.6978,1487
102695,13.4949,3.5769,15.3875,1511
102700,-4.2533,-3.6416,20.0826,1487
102705,-16.8803,0.158,6.4667,1493
102710,-1.1516,5.2732,3.1184,1497
102715,12.8281,4.3263,13.3118,1486
102720,-0.1185,-4.0498,20.8607,1499
102725,-15.0607,-0.6572,7.8135,1495
102730,-4.7262,5.1368,2.8982,1491
102735,11.6502,4.5179,11.0636,1495
102740,5.0182,-3.3746,20.4489,1491
102745,-11.7148,-0.7925,9.4619,1499
102750,-8.1056,4.4125,3.0358,1513
102755,9.9096,4.476,8.7831,1496
102760,9.4451,-1.6676,19.3906,1490
102765,-8.5162,-0.6823,11.971,1511
102770,-11.5448,3.4692,3.5135,1486
102775,7.7249,4.4269,6.6475,1495
102780,12.1482,0.5303,18.0882,1495
102785,-7.3897,-1.2725,15.0212,1493
102790,-14.7591,2.3331,4.4664,1501
102795,5.2565,4.7764,4.9608,1501
102800,13.3118,2.5762,16.7223,1499
102805,-6.608,-2.5402,18.0259,1515
102810,-16.8923,0.9517,5.6216,1499
102815,2.065,5.1715,3.729,1487
102820,13.3788,3.9037,15.0392,1510
102825,-4.0426,-3.5853,19.994,1491
102830,-16.5188,-0.3232,6.8546,1495
102835,-1.6652,5.381,3.1268,1497
102840,12.481,4.452,13.204,1491
102845,0.68,-3.7721,20.3603,1510
102850,-13.4123,-0.9361,8.1247,1507
102855,-5.3858,5.0661,2.8802,1489
102860,11.0193,4.5023,10.9798,1509
102865,5.6611,-2.8431,19.7019,1483
102870,-9.5828,-0.8799,10.0137,1498
102875,-9.0429,4.3167,3.237,1507
102880,9.3482,4.3742,8.7089,1499
102885,9.6115,-1.1528,18.5658,1495
102890,-7.7177,-0.8835,12.3984,1499
102895,-12.3277,3.2561,3.9863,1487
102900,7.5106,4.5406,6.5457,1517
102905,12.0273,0.9074,17.4992,1496
102910,-7.343,-1.4078,15.3516,1495
102915,-15.1553,2.0446,4.938,1502
102920,4.9644,5.0135,4.9009,1496
102925,13.1825,2.654,16.2698,1495
102930,-6.5218,-2.5678,18.2211,1513
102935,-16.8408,0.7649,5.9927,1492
102940,1.7047,5.3846,3.6931,1498
102945,13.1502,3.8858,14.9099,1509
102950,-3.5853,-3.6919,19.9904,1495
102955,-16.1022,-0.2969,7.0437,1503
102960,-2.0626,5.5007,3.0131,1487
102965,12.3098,4.3395,12.9802,1484
102970,1.2941,-3.9133,20.3435,1508
102975,-13.2591,-0.729,8.272,1491
102980,-5.715,5.2122,2.9018,1494
102985,11.0504,4.3048,10.6973,1499
102990,6.365,-3.122,19.8587,1487
102995,-10.1909,-0.5734,9.991,1494
103000,-9.0716,4.5538,3.207,1497
103005,9.3625,4.2665,8.3653,1487
103010,10.4507,-1.5275,19.235,1485
103015,-8.3426,-0.5028,12.4666,1497
103020,-12.208,3.6978,3.7242,1495
103025,7.1874,4.5226,6.1687,1507
103030,13.0173,0.4046,18.2127,1492
103035,-7.6567,-1.221,15.4558,1497
103040,-14.8704,2.66,4.4784,1497
103045,4.4113,4.962,4.6316,1497
103050,14.218,2.1811,16.8588,1500
103055,-6.3171,-2.5762,18.5096,1499
103060,-16.6265,1.3922,5.381,1495
103065,1.1432,5.1667,3.5889,1484
103070,14.1557,3.571,14.9171,1499
103075,-3.073,-3.881,20.553,1492
103080,-16.9581,0.1616,6.5529,1505
103085,-2.3487,5.2481,3.0514,1484
103090,13.0496,4.2437,12.6534,1491
103095,1.883,-4.2413,21.1815,1498
103100,-15.3301,-0.5112,8.0553,1493
103105,-5.7174,4.9763,2.8551,1493
103110,11.4335,4.446,10.1251,1544
103115,7.0449,-3.2896,20.7027,1491
103120,-12.2224,-0.4585,10.0149,1493
103125,-8.8286,4.3718,3.1352,1505
103130,9.335,4.4807,7.7895,1496
103135,11.1163,-1.4246,19.6648,1489
103140,-9.6043,-0.4585,12.7012,1493
103145,-11.6454,3.4943,3.5626,1495
103150,6.8007,4.5909,5.8299,1509
103155,13.5536,0.7482,18.2929,1482
103160,-8.1223,-1.3324,16.0783,1491
103165,-14.2551,2.5295,4.3718,1499
103170,3.9492,4.7202,4.3503,1495
103175,14.4789,2.6995,16.4937,1495
103180,-6.2189,-2.8204,19.235,1509
103185,-16.6002,1.1696,5.3989,1491
103190,0.6895,4.8926,3.3914,1499
103195,14.0923,3.9528,14.4155,1497
103200,-2.654,-3.9576,20.9936,1495
103205,-17.1066,-0.0982,6.7804,1513
103210,-2.8886,5.0566,2.8539,1487
103215,12.7683,4.4173,12.0584,1496
103220,2.4732,-3.978,21.2857,1501
103225,-14.0863,-0.6357,8.406,1493
103230,-6.4979,4.7645,2.7964,1465
103235,10.8338,4.3646,9.7109,1497
103240,7.531,-2.7438,20.48,1491
103245,-10.1131,-0.5076,10.4962,1497
103250,-9.8138,4.0402,3.1173,1497
103255,8.7855,4.379,7.5501,1499
103260,11.1582,-0.8009,19.1404,1499
103265,-7.9703,-0.656,13.3237,1491
103270,-13.2292,3.1508,3.8343,1495
103275,6.4763,4.6304,5.7593,1519
103280,13.1358,1.1241,17.7506,1499
103285,-7.1443,-1.5981,16.4015,1491
103290,-16.0495,1.9848,4.8542,1495
103295,3.711,5.0769,4.2341,1493
103300,13.6841,2.7749,16.1788,1509
103305,-5.515,-2.897,19.0387,1497
103310,-17.1557,0.7242,6.025,1498
103315,0.3615,5.4672,3.316,1497
103320,13.1837,3.7769,14.3975,1494
103325,-1.962,-3.7493,20.3543,1499
103330,-15.6928,-0.2981,7.282,1513
103335,-3.2896,5.4229,2.8994,1485
103340,12.038,4.1216,12.208,1502
103345,2.9102,-3.7194,20.4872,1497
103350,-12.6893,-0.674,8.6706,1501
103355,-6.7959,4.9356,2.9305,1493
103360,10.6434,4.197,9.8402,1503
103365,7.7752,-2.6157,19.9018,1481
103370,-9.6462,-0.4788,10.6961,1511
103375,-10.0652,4.1695,3.3531,1491
103380,8.7771,4.3431,7.6148,1496
103385,11.4287,-0.8428,18.9764,1499
103390,-7.9595,-0.7254,12.9419,1487
103395,-12.9131,3.3327,4.1025,1490
103400,6.5254,4.4927,5.5929,1509
103405,13.3357,1.0606,17.7937,1479
103410,-7.1275,-1.5969,16.3332,1497
103415,-15.6988,2.1201,4.6962,1499
103420,3.6164,4.9967,4.1539,1493
103425,13.8708,2.7569,16.0759,1497
103430,-5.387,-2.9736,19.3655,1513
103435,-17.2945,0.8116,5.8095,1493
103440,0.0575,5.4001,3.1783,1509
103445,13.526,3.7362,14.3245,1443
103450,-1.7609,-3.96,20.6727,1500
103455,-16.4135,-0.1281,7.112,1511
103460,-3.5686,5.3486,2.8443,1495
103465,12.4786,4.1096,12.1015,1479
103470,3.3208,-4.0318,20.9253,1509
103475,-13.9474,-0.516,8.5102,1491
103480,-6.8833,4.9392,2.7749,1501
103485,10.7883,4.3,9.6726,1499
103490,8.2875,-3.0263,20.3914,1493
103495,-10.4758,-0.3208,10.6769,1516
103500,-10.1526,4.2222,3.1173,1491
103505,8.6143,4.3898,7.422,1499
103510,11.8788,-1.1672,19.2949,1499
103515,-8.1726,-0.5555,13.5368,1491
103520,-13.4422,3.2968,3.7182,1497
103525,6.2165,4.6555,5.5007,1515
103530,13.5811,0.9649,17.9805,1461
103535,-7.0306,-1.6053,16.6888,1503
103540,-16.2878,2.1021,4.7848,1497
103545,3.2908,5.0877,4.1192,1479
103550,13.9247,2.7294,16.2135,1517
103555,-5.138,-2.9832,19.223,1493
103560,-17.2191,0.7554,5.9759,1496
103565,-0.1305,5.381,3.2417,1487
103570,13.307,3.7218,14.1701,1491
103575,-1.47,-3.8355,20.5949,1493
103580,-15.9825,-0.2909,7.2077,1510
103585,-3.6775,5.2924,2.8156,1481
103590,12.147,4.1911,11.9459,1498
103595,3.4058,-3.7326,20.7601,1487
103600,-12.7743,-0.5842,8.7089,1492
103605,-7.1275,4.8195,2.8826,1515
103610,10.5369,4.276,9.6283,1497
103615,8.3055,-2.6923,20.0562,1487
103620,-9.6941,-0.419,10.7883,1518
103625,-10.3286,4.1108,3.2609,1489
103630,8.5593,4.4855,7.4316,1500
103635,11.9171,-0.9409,19.0231,1496
103640,-8.1211,-0.5866,13.6434,1500
103645,-13.398,3.2908,3.8271,1483
103650,6.0154,4.7537,5.5258,1502
103655,13.8445,0.9792,17.7901,1497
103660,-7.191,-1.6532,16.8253,1511
103665,-15.9334,2.2541,4.7405,1502
103670,2.9963,5.0733,4.1707,1493
103675,14.3568,2.5271,16.2806,1514
103680,-5.1571,-3.1328,19.393,1496
103685,-17.2454,0.9625,5.7389,1491
103690,-0.3915,5.3259,3.2106,1511
103695,13.7798,3.6739,14.2096,1485
103700,-1.087,-4.1515,20.8176,1494
103705,-16.5547,-0.0706,7.1132,1503
103710,-3.9277,5.302,2.8491,1487
103715,12.4355,4.1875,11.7986,1491
103720,4.0642,-4.0941,21.0175,1495
103725,-13.8529,-0.4118,8.5892,1491
103730,-7.1814,4.8171,2.8611,1508
103735,10.5309,4.3934,9.3745,1491
103740,8.8681,-2.8587,20.3794,1483
103745,-10.2484,-0.3771,10.8505,1519
103750,-10.5309,4.0438,3.1364,1493
103755,8.3103,4.4975,7.1407,1493
103760,12.2439,-0.8966,19.156,1497
103765,-8.0601,-0.6488,13.9355,1494
103770,-14.1174,3.1244,3.8954,1500
103775,5.685,4.8159,5.4348,1501
103780,13.799,1.257,17.5854,1496
103785,-6.9336,-1.8507,17.0312,1506
103790,-16.8468,1.8387,4.9704,1496
103795,2.8216,5.1463,4.0378,1487
103800,13.7487,2.9389,15.8592,1503
103805,-4.804,-3.0885,19.4026,1487
103810,-16.8863,0.4178,6.3734,1501
103815,-0.425,5.3929,3.1544,1499
103820,12.8114,3.8966,14.0133,1491
103825,-1.1037,-3.7553,20.3806,1499
103830,-14.8165,-0.5758,7.5465,1503
103835,-3.9397,5.284,2.9341,1485
103840,11.6765,4.3323,11.8968,1501
103845,3.711,-3.4668,20.2645,1493
103850,-11.5927,-0.747,9.0321,1493
103855,-7.4124,4.7333,2.9784,1509
103860,10.3034,4.3347,9.5277,1497
103865,8.3881,-2.1584,19.5139,1485
103870,-8.7736,-0.5363,11.0528,1515
103875,-10.799,3.9133,3.4105,1483
103880,8.3606,4.4137,7.4735,1498
103885,11.655,-0.3723,18.5287,1505
103890,-7.677,-0.8176,13.8648,1503
103895,-13.7714,2.9341,4.112,1517
103900,6.1842,4.6495,5.5354,1511
103905,13.3944,1.5191,17.279,1495
103910,-7.1311,-1.8088,16.8276,1511
103915,-16.3608,1.8771,5.0901,1509
103920,3.3004,5.0625,4.2437,1491
103925,13.7559,3.049,15.9837,1513
103930,-5.3319,-3.0837,19.2841,1491
103935,-17.2359,0.4764,6.0849,1495
103940,0.0072,5.3139,3.1891,1500
103945,13.2172,4.0462,14.0923,1483
103950,-1.5227,-3.8188,20.468,1491
103955,-15.3768,-0.4345,7.5274,1499
103960,-3.638,5.3127,2.8898,1497
103965,11.9674,4.2892,12.0764,1485
103970,3.4381,-3.6009,20.3208,1507
103975,-12.068,-0.8152,8.8585,1501
103980,-7.0162,4.7692,2.9078,1497
103985,10.4064,4.2713,9.827,1502
103990,7.9978,-2.3619,19.6217,1483
103995,-9.1554,-0.6488,10.999,1511
104000,-10.3573,3.9253,3.395,1456
104005,8.6395,4.3862,7.5753,1495
104010,11.2731,-0.4334,18.4581,1507
104015,-7.8123,-0.8332,13.6374,1489
104020,-13.5248,2.9389,4.142,1495
104025,6.4212,4.6112,5.6755,1508
104030,13.1741,1.567,17.3831,1495
104035,-7.1563,-1.7035,16.6409,1495
104040,-16.271,1.7801,5.0721,1509
104045,3.6164,4.9787,4.2365,1491
104050,13.6278,3.1041,15.937,1505
104055,-5.5019,-2.9317,19.1285,1501
104060,-17.1138,0.4489,6.2213,1500
104065,0.2298,5.29,3.4165,1497
104070,13.0999,3.9576,14.2635,1493
104075,-1.8914,-3.7134,20.304,1491
104080,-11.6837,-0.7997,9.1159,1510
104085,-3.2896,5.3032,2.8946,1487
104090,10.2232,4.306,9.4427,1501
104095,2.9808,-3.6679,20.5075,1511
104100,-8.9914,-0.6189,11.169,1496
104105,-6.754,4.8518,2.9616,1508
104110,8.3354,4.3934,7.3071,1498
104115,7.8075,-2.545,19.7989,1491
104120,-7.8458,-0.8715,13.9809,1511
104125,-10.0485,4.0067,3.3722,1497
104130,5.8634,4.6831,5.5366,1501
104135,11.4215,-0.741,18.7346,1508
104140,-7.1216,-1.8866,17.1126,1493
104145,-13.5069,3.1065,3.9851,1485
104150,2.8706,5.0338,4.0905,1510
104155,13.4207,1.2282,17.4561,1491
104160,-5.0135,-3.1089,19.4349,1501
104165,-16.186,1.9273,4.9416,1503
104170,-0.4549,5.2541,3.298,1497
104175,13.2675,4.0534,13.9618,1503
104180,-1.0163,-3.7493,20.5004,1501
104185,-15.4558,-0.5818,7.513,1494
104190,-3.8942,5.114,2.9078,1545
104195,12.0273,4.4843,11.7172,1485
104200,4.0151,-3.4225,20.3723,1493
104205,-12.4989,-0.8068,9.0297,1514
104210,-7.3466,4.5837,3.0706,1491
104215,10.3705,4.4041,9.4272,1495
104220,8.8274,-2.2302,19.6444,1493
104225,-9.9958,-0.6213,11.066,1515
104230,-10.5213,3.8343,3.3459,1499
104235,8.3175,4.6507,7.3921,1503
104240,12.3613,-0.9565,17.1676,1497
104245,-7.9487,-0.2885,15.8592,1512
104250,-13.7643,2.7964,3.7804,1494
104255,5.7377,4.7704,5.2146,1496
104260,14.6118,1.8364,17.4992,1545
104265,-7.9511,-1.9154,16.5942,1485
104270,-15.0452,2.0698,4.9189,1492
104275,2.885,4.6459,4.3958,1507
104280,14.6381,3.0071,15.3121,1515
104285,-5.12,-3.1173,20.6045,1495
104290,-17.2957,0.6333,5.7126,1500
104295,-0.5674,5.0362,3.3962,1497
104300,14.1042,4.0881,13.5117,1507
104305,-1.1061,-4.0474,21.1193,1499
104310,-16.8169,-0.4932,7.1156,1497
104315,-4.2437,4.9919,2.9365,1496
104320,12.6402,4.9644,11.8872,1491
104325,4.701,-3.79,20.9995,1497
104330,-14.4658,-0.7913,8.7508,1500
104335,-7.5274,4.4879,2.9532,1481
104340,10.5896,4.6364,8.8681,1497
104345,9.6319,-2.1991,20.0802,1501
104350,-10.5692,-0.5088,11.3629,1498
104355,-10.9116,3.711,3.3986,1512
104360,8.0409,4.6555,7.0617,1501
104365,12.9766,-0.1353,18.4892,1487
104370,-8.4683,-1.0247,14.449,1512
104375,-14.224,2.6145,3.9588,1483
104380,5.3822,4.7094,5.2996,1502
104385,14.2347,2.1883,17.0731,1509
104390,-6.9671,-2.1883,17.9481,1492
104395,-17.3161,1.2438,5.3151,1493
104400,2.223,4.9955,3.8882,1495
104405,13.9881,3.7242,15.3468,1495
104410,-4.4388,-3.2825,19.6552,1509
104415,-16.702,-0.1856,6.5864,1494
104420,-1.3455,5.2002,3.2585,1495
104425,12.7288,4.5047,13.5895,1508
104430,-0.1496,-3.6057,20.3543,1495
104435,-13.6134,-0.978,7.9799,1499
104440,-4.9572,4.8842,2.9257,1503
104445,11.4359,4.6328,11.3665,1487
104450,4.8171,-2.8826,19.7043,1495
104455,-9.7552,-1.0463,9.6211,1500
104460,-8.7173,4.2377,3.2777,1481
104465,9.6187,4.6208,9.3601,1491
104470,9.1566,-1.4138,18.5024,1489
104475,-7.835,-0.9086,11.886,1499
104480,-12.0991,3.2609,3.9145,1497
104485,7.7859,4.622,7.1491,1496
104490,11.8154,0.5806,17.3843,1495
104495,-7.4148,-1.2522,14.8991,1499
104500,-15.0164,2.1548,4.8734,1485
104505,5.4516,4.9823,5.2888,1493
104510,12.9682,2.3092,16.3464,1499
104515,-6.8678,-2.241,17.5339,1485
104520,-16.5822,0.826,5.8646,1500
104525,2.3679,5.3582,4.0654,1501
104530,13.0532,3.7469,15.2032,1495
104535,-4.4281,-3.3184,19.5271,1512
104540,-16.1501,-0.3831,6.9994,1486
104545,-1.3623,5.4827,3.2597,1497
104550,12.3996,4.4089,13.3848,1511
104555,0.2765,-3.6583,19.9629,1492
104560,-13.058,-0.9349,8.1822,1499
104565,-5.1667,5.1427,3.0586,1501
104570,11.0564,4.4999,11.3629,1495
104575,5.4312,-2.9329,19.5092,1498
104580,-9.8629,-0.8679,9.76,1513
104585,-8.6131,4.3682,3.292,1491
104590,9.572,4.385,8.9292,1499
104595,9.6103,-1.2546,18.6484,1485
104600,-7.9811,-0.8272,12.2368,1499
104605,-11.9387,3.2322,3.9385,1507
104610,7.6052,4.5035,6.766,1497
104615,12.2643,0.8715,17.5591,1491
104620,-7.4184,-1.403,15.2559,1507
104625,-14.9422,2.0387,4.8052,1491
104630,5.114,4.8291,4.8423,1501
104635,13.1525,2.8383,16.4829,1499
104640,-6.4236,-2.5414,18.2714,1497
104645,-16.6589,0.6835,5.8861,1496
104650,1.8399,5.2816,3.614,1487
104655,13.0292,4.0318,14.9147,1491
104660,-3.6236,-3.5781,20.0909,1503
104665,-16.1668,-0.3687,6.9971,1500
104670,-1.8818,5.3558,3.0849,1499
104675,12.2511,4.5071,12.9335,1494
104680,1.1815,-3.7781,20.5375,1490
104685,-14.0815,-0.8691,8.1475,1485
104690,-5.521,4.8949,2.9736,1497
104695,11.078,4.4724,10.4926,1492
104700,6.4608,-2.8371,20.0981,1498
104705,-11.1103,-0.7183,10.0736,1485
104710,-8.7927,4.118,3.237,1491
104715,9.3745,4.4329,8.157,1513
104720,10.6219,-1.0139,19.1009,1481
104725,-8.4611,-0.7051,12.7719,1499
104730,-12.05,3.0442,3.7661,1507
104735,7.0569,4.4089,5.9831,1491
104740,12.8018,1.5107,17.7985,1493
104745,-7.2496,-1.6269,16.1261,1507
104750,-15.4079,1.7693,4.695,1495
104755,4.2557,4.6962,4.373,1509
104760,13.4015,3.5662,16.3129,1492
104765,-6.0585,-2.9389,18.9082,1478
104770,-16.9617,0.2897,5.9161,1501
104775,0.9804,5.047,3.4213,1483
104780,13.1956,4.6663,14.5005,1499
104785,-3.0694,-3.6404,20.4213,1507
104790,-16.1453,-0.838,7.1706,1489
104795,-2.5845,5.0051,3.0095,1487
104800,12.3277,4.9081,12.4163,1505
104805,1.8447,-3.383,20.4585,1492
104810,-13.1813,-1.2019,8.521,1511
104815,-6.0813,4.5777,3.0263,1483
104820,10.7416,4.725,10.2903,1493
104825,6.839,-2.2206,19.6899,1502
104830,-9.572,-0.9218,10.3765,1493
104835,-9.4523,3.7661,3.3423,1496
104840,8.9639,4.4604,8.011,1506
104845,10.5333,-0.3232,18.5191,1492
104850,-7.6614,-0.9792,13.1406,1493
104855,-12.8473,2.7809,4.0247,1541
104860,6.7876,4.6256,6.0334,1500
104865,12.6761,1.6592,17.3735,1499
104870,-7.2113,-1.7573,16.2626,1503
104875,-15.694,1.6293,4.9392,1497
104880,4.0127,5.0386,4.4424,1513
104885,13.4686,3.207,16.2207,1494
104890,-5.9412,-2.891,18.9477,1487
104895,-17.0934,0.4741,5.9699,1491
104900,0.4669,5.381,3.4656,1495
104905,13.2519,4.0857,14.5771,1492
104910,-2.3236,-3.7816,20.225,1499
104915,-15.8712,-0.5255,7.0916,1471
104920,-3.2597,5.2792,3.0035,1493
104925,12.1925,4.3742,12.5696,1496
104930,2.8754,-3.7385,20.2885,1499
104935,-12.5157,-0.7614,8.5593,1512
104940,-6.8941,4.8303,2.9365,1481
104945,10.6458,4.4101,10.1945,1491
104950,7.9045,-2.636,19.6899,1503
104955,-9.42,-0.5375,10.55,1487
104960,-10.2771,4.0761,3.2932,1500
104965,8.77,4.4951,7.8518,1496
104970,11.5568,-0.7147,18.7358,1479
104975,-7.8243,-0.7578,13.3728,1511
104980,-13.4626,3.073,3.9169,1495
104985,6.3327,4.6747,5.7461,1495
104990,13.5464,1.4485,17.6608,1497
104995,-7.1216,-1.7921,16.6696,1494
105000,-16.2303,1.834,4.8447,1487
105005,3.2501,5.0805,4.2485,1501
105010,13.9845,3.1903,16.1273,1492
105015,-5.2996,-3.1137,19.3128,1503
105020,-17.279,0.4609,5.9125,1499
105025,-0.2646,5.2828,3.3627,1491
105030,13.5572,4.1611,14.2659,1514
105035,-1.4126,-3.9277,20.7757,1497
105040,-16.2949,-0.4812,7.1311,1499
105045,-3.9157,5.0805,2.9377,1499
105050,12.39,4.5478,11.8968,1497
105055,4.0486,-3.6895,20.717,1487
105060,-13.3225,-0.735,8.7819,1513
105065,-7.2712,4.6088,2.897,1495
105070,10.5261,4.561,9.4882,1497
105075,8.9615,-2.3762,19.9629,1494
105080,-10.0628,-0.504,11.0301,1495
105085,-10.386,3.8595,3.225,1510
105090,8.2384,4.5203,7.1587,1499
105095,12.3026,-0.3974,18.9776,1481
105100,-8.2349,-0.7997,13.9211,1511
105105,-13.3321,2.9975,3.8295,1491
105110,5.5378,4.7345,5.3283,1507
105115,14.1198,1.5897,17.7219,1501
105120,-7.1982,-1.9166,17.2227,1485
105125,-15.6569,1.9034,4.7082,1493
105130,2.4002,4.9392,4.0606,1497
105135,14.4753,3.2777,15.8903,1491
105140,-4.8064,-3.3914,19.9198,1508
105145,-17.115,0.492,5.8347,1499
105150,-1.0822,5.023,3.2346,1508
105155,13.5967,4.3203,13.7032,1509
105160,-0.2322,-4.1456,20.9792,1491
105165,-16.1932,-0.6381,7.2508,1507
105170,-4.7058,4.8961,2.9006,1496
105175,11.9112,4.604,11.321,1496
105180,5.3319,-3.4955,20.7015,1501
105185,-12.0919,-0.7195,9.2344,1500
105190,-8.2851,4.3479,2.9401,1489
105195,9.8749,4.5011,8.8801,1507
105200,10.0233,-1.7729,19.5714,1485
105205,-8.752,-0.6069,11.8357,1497
105210,-11.7412,3.48,3.3878,1495
105215,7.4651,4.6088,6.8307,1497
105220,12.8401,0.4322,18.3097,1487
105225,-7.6136,-1.1887,14.9697,1507
105230,-14.6872,2.4636,4.1659,1490
105235,4.9105,4.8064,5.0697,1499
105240,14.0204,2.4744,16.8719,1497
105245,-6.7301,-2.3906,18.105,1493
105250,-16.8205,1.1157,5.2194,1495
105255,1.6987,5.0554,3.9253,1485
105260,14.1066,3.9528,15.2535,1501
105265,-4.0354,-3.5757,20.2753,1509
105270,-17.17,-0.1472,6.3865,1506
105275,-1.8639,5.0027,3.1472,1486
105280,13.2148,4.6507,13.1334,1501
105285,0.8404,-3.7948,20.8774,1493
105290,-15.0128,-0.8487,7.8278,1491
105295,-5.3283,4.725,2.9305,1485
105300,11.6705,4.7285,10.8649,1485
105305,6.1794,-3.0287,20.4465,1501
105310,-12.0608,-0.8811,9.5732,1491
105315,-8.3234,4.0917,3.0837,1493
105320,9.7085,4.6388,8.5066,1509
105325,10.5261,-1.3084,19.5247,1479
105330,-10.398,-0.7087,11.9794,1502
105335,-10.6841,3.4393,3.4884,1501
105340,7.4508,4.64,6.4739,1497
105345,13.5057,0.7219,18.2917,1485
105350,-9.6774,-1.1277,15.129,1508
105355,-12.6426,2.4983,4.033,1485
105360,4.7106,4.476,4.9871,1513
105365,14.8728,2.8048,16.7379,1484
105370,-7.9332,-2.4445,18.7574,1494
105375,-15.0775,1.2558,4.9321,1496
105380,1.6161,4.44,3.8032,1493
105385,14.6202,4.4233,14.8883,1493
105390,-3.9217,-3.8247,20.8906,1508
105395,-17.3651,-0.3148,6.3063,1500
105400,-2.1991,4.6639,3.1196,1486
105405,13.1418,5.0386,12.7802,1506
105410,1.8184,-3.9576,20.9421,1485
105415,-14.437,-0.8523,8.0553,1516
105420,-6.1016,4.5466,2.8683,1489
105425,10.9906,4.7621,10.4567,1495
105430,7.3071,-2.5654,20.0347,1511
105435,-9.6881,-0.7446,10.3022,1491
105440,-9.8749,3.954,3.0682,1499
105445,8.8669,4.5334,8.1068,1507
105450,11.0528,-0.6788,18.9046,1486
105455,-7.8542,-0.8847,12.9586,1501
105460,-13.2483,3.0035,3.8176,1494
105465,6.6487,4.5957,6.177,1491
105470,13.143,1.3503,17.5722,1497
105475,-7.434,-1.6831,16.1393,1491
105480,-16.113,1.7849,4.725,1497
105485,3.8355,4.9464,4.5861,1515
105490,13.793,3.0742,16.1633,1497
105495,-5.9268,-2.8455,18.8735,1496
105500,-17.2945,0.4154,5.9113,1497
105505,0.4932,5.2397,3.5889,1493
105510,13.1861,4.2078,14.5184,1499
105515,-2.0842,-3.5674,20.1137,1510
105520,-15.1625,-0.6883,7.3083,1501
105525,-3.207,5.2601,3.043,1495
105530,11.6729,4.4173,12.4415,1493
105535,3.1149,-3.3363,19.9377,1495
105540,-11.2839,-1.0116,8.8178,1507
105545,-7.021,4.7262,3.0981,1485
105550,10.0856,4.385,10.2292,1496
105555,7.8721,-2.1057,19.1153,1511
105560,-8.5976,-0.8619,10.8002,1493
105565,-10.4303,3.7589,3.6105,1507
105570,8.4958,4.4424,7.9631,1495
105575,11.3138,-0.2191,18.0188,1515
105580,-7.6914,-0.9924,13.6757,1514
105585,-13.8193,2.6264,4.2629,1487
105590,6.2345,4.7513,5.9687,1499
105595,13.2363,1.8866,16.8683,1495
105600,-7.1658,-1.9477,16.927,1485
105605,-16.6589,1.3096,5.2134,1492
105610,3.1292,5.1547,4.2916,1499
105615,13.5272,3.6332,15.5635,1491
105620,-5.023,-3.1053,19.4134,1500
105625,-16.8935,-0.0527,6.5242,1499
105630,-0.5578,5.3451,3.3507,1495
105635,12.6186,4.4209,13.9139,1511
105640,-0.7087,-3.7026,20.2597,1479
105645,-14.3173,-0.8835,7.6746,1499
105650,-4.4341,5.1128,3.0323,1509
105655,11.3461,4.5119,11.8238,1487
105660,4.6591,-3.2298,20.0179,1493
105665,-10.9235,-0.8667,9.2213,1511
105670,-8.0158,4.4388,3.1807,1498
105675,9.839,4.446,9.341,1503
105680,9.4367,-1.6843,19.0566,1484
105685,-8.6754,-0.6979,11.5592,1495
105690,-11.4072,3.5111,3.6488,1509
105695,7.7045,4.5418,7.0844,1495
105700,12.6342,0.407,17.9278,1495
105705,-7.7117,-1.1648,14.7483,1509
105710,-14.6717,2.4169,4.3203,1491
105715,5.0206,4.8135,5.1787,1511
105720,13.8564,2.5175,16.7343,1493
105725,-6.6463,-2.4146,18.1193,1485
105730,-17.0719,1.0977,5.4181,1498
105735,1.6759,5.1679,3.7661,1491
105740,13.6493,3.8511,15.2032,1498
105745,-3.5255,-3.5733,20.1388,1512
105750,-16.7427,-0.1951,6.6283,1493
105755,-2.1883,5.2553,3.0382,1481
105760,12.5779,4.3084,13.1454,1503
105765,1.4617,-3.8211,20.6428,1486
105770,-13.9797,-0.7757,8.0613,1500
105775,-5.946,4.859,2.9616,1481
105780,10.9978,4.3862,10.7212,1487
105785,6.9887,-2.8659,20.0179,1507
105790,-10.404,-0.6512,10.0197,1493
105795,-9.5074,4.0773,3.1975,1497
105800,8.9866,4.5645,8.2396,1510
105805,11.2204,-0.9577,18.9573,1487
105810,-8.1391,-0.6704,12.8784,1511
105815,-13.0065,3.1879,3.7948,1487
105820,6.5206,4.6388,6.0178,1503
105825,13.3968,1.2103,17.7482,1499
105830,-7.1156,-1.5682,16.2506,1496
105835,-16.0064,1.9872,4.7992,1497
105840,3.4919,4.9704,4.3934,1511
105845,13.7918,2.9724,16.3464,1499
105850,-5.2218,-3.0095,19.0303,1495
105855,-17.2598,0.5112,5.8957,1499
105860,-0.2921,5.2565,3.3758,1491
105865,13.2459,4.0294,14.3688,1511
105870,-1.1253,-3.7792,20.5315,1489
105875,-15.6856,-0.5938,7.2269,1496
105880,-4.2234,5.1811,2.9257,1461
105885,11.8561,4.3096,11.8633,1496
105890,4.4987,-3.3698,20.3902,1493
105895,-11.9878,-0.7039,8.934,1497
105900,-7.7309,4.5693,3.0131,1485
105905,10.0497,4.3455,9.3889,1509
105910,9.3625,-1.8914,19.5798,1495
105915,-9.0249,-0.5997,11.3353,1493
105920,-10.9547,3.6571,3.3459,1506
105925,7.8793,4.3958,6.9719,1493
105930,12.5049,0.2346,18.5263,1487
105935,-7.7668,-1.0391,14.5831,1499
105940,-14.212,2.6049,4.1288,1489
105945,5.0003,4.7178,5.1092,1503
105950,13.951,2.2182,17.1353,1501
105955,-6.6044,-2.3355,17.9876,1494
105960,-16.9701,1.2653,5.114,1497
105965,1.5227,5.0817,3.7697,1487
105970,13.7918,3.6787,15.3827,1499
105975,-3.4153,-3.565,20.1544,1541
105980,-16.8085,-0.0946,6.523,1501
105985,-2.2625,5.2481,2.9592,1499
105990,12.4726,4.276,13.2064,1509
105995,1.6819,-3.729,20.5171,1491
106000,-13.3309,-0.7697,8.1032,1515
106005,-5.9855,4.8961,2.8012,1491
106010,10.7978,4.3144,10.7512,1497
106015,6.8211,-2.6791,19.9245,1503
106020,-9.9958,-0.7207,9.973,1499
106025,-9.3757,4.0737,3.207,1495
106030,9.104,4.3515,8.2815,1501
106035,10.835,-0.8296,18.9585,1479
106040,-8.09,-0.7362,12.6917,1507
106045,-12.7108,3.1316,3.796,1499
106050,6.7792,4.5945,6.1052,1495
106055,13.2076,1.3036,17.7769,1508
106060,-7.2341,-1.5502,16.1788,1501
106065,-15.8748,1.9357,4.6843,1495
106070,3.723,4.8949,4.4329,1513
106075,13.7882,3.0562,16.3632,1499
106080,-5.5091,-2.8551,18.9597,1493
106085,-17.3221,0.4525,5.855,1507
106090,0.1065,5.1954,3.3878,1494
106095,13.2124,4.1013,14.5172,1503
106100,-1.7286,-3.644,20.4225,1498
106105,-15.864,-0.6548,7.1754,1501
106110,-3.6045,5.1212,3.0167,1507
106115,12.1087,4.4676,12.1602,1485
106120,3.5745,-3.3411,20.4513,1495
106125,-12.8377,-0.9134,8.7771,1501
106130,-7.0916,4.4951,3.0658,1486
106135,10.4962,4.4891,9.6127,1501
106140,8.764,-1.9501,19.6169,1499
106145,-9.8246,-0.7147,10.963,1495
106150,-10.2963,3.6033,3.3196,1511
106155,8.345,4.4831,7.3179,1489
106160,12.2092,0.1101,18.5575,1485
106165,-7.9978,-0.8966,14.121,1511
106170,-13.7451,2.624,3.9456,1491
106175,5.521,4.628,5.2912,1499
106180,13.8588,2.1476,17.3723,1503
106185,-6.9168,-2.0375,17.5172,1483
106190,-16.7666,1.3743,4.9943,1493
106195,2.2039,5.0147,3.9648,1496
106200,14.0348,3.6188,15.6904,1495
106205,-4.2545,-3.2286,19.8084,1511
106210,-17.1281,0.0802,6.3015,1495
106215,-1.3755,5.1559,3.1747,1495
106220,12.9143,4.1779,13.5811,1509
106225,0.3615,-3.6679,20.6045,1486
106230,-14.771,-0.6871,7.7093,1501
106235,-5.0817,4.9261,2.9317,1491
106240,11.3617,4.276,11.1546,1493
106245,5.7174,-3.0275,20.2645,1501
106250,-11.5017,-0.735,9.3913,1491
106255,-8.418,4.3072,3.1137,1493
106260,9.5493,4.3311,8.8538,1507
106265,10.2927,-1.5311,19.4481,1490
106270,-8.8514,-0.5183,11.9782,1501
106275,-11.8262,3.553,3.5255,1498
106280,7.3322,4.4472,6.6487,1496
106285,13.0999,0.4717,18.2259,1485
106290,-7.5705,-1.1289,15.2439,1500
106295,-15.1888,2.4672,4.3179,1485
106300,4.5526,4.7872,4.8794,1510
106305,13.9977,2.4648,16.8731,1495
106310,-6.2968,-2.4014,18.3396,1495
106315,-17.249,1.0283,5.3953,1503
106320,1.2893,5.0578,3.614,1496
106325,13.5296,3.7697,15.0667,1493
106330,-3.134,-3.5338,20.2178,1501
106335,-16.5966,-0.1556,6.7397,1495
106340,-2.2697,5.1942,3.0646,1491
106345,12.3984,4.2569,12.9778,1497
106350,1.743,-3.6799,20.5806,1486
106355,-13.8924,-0.729,8.0577,1511
106360,-5.8395,4.8758,2.8898,1496
106365,10.902,4.2677,10.6626,1492
106370,6.9983,-2.8359,20.1149,1497
106375,-10.4962,-0.5962,9.985,1493
106380,-9.2572,4.1551,3.134,1495
106385,9.0082,4.2772,8.3127,1503
106390,11.0864,-1.0834,19.0543,1483
106395,-8.4084,-0.6201,12.6773,1493
106400,-12.7312,3.2789,3.6284,1495
106405,6.7888,4.4149,6.2465,1499
106410,13.3201,1.081,17.9098,1489
106415,-7.4687,-1.3946,15.9035,1484
106420,-15.7287,2.156,4.5322,1495
106425,4.1587,4.7537,4.6148,1515
106430,13.9199,2.8659,16.5128,1491
106435,-5.9795,-2.6264,18.7466,1496
106440,-17.2574,0.8009,5.7042,1499
106445,0.8811,5.1392,3.5398,1491
106450,13.4291,3.966,14.7722,1499
106455,-2.4924,-3.5781,20.3615,1503
106460,-16.3991,-0.425,6.8414,1500
106465,-2.7869,5.0506,3.0047,1493
106470,12.3038,4.4472,12.6186,1495
106475,2.5211,-3.5398,20.6296,1491
106480,-13.708,-0.8033,8.2732,1513
106485,-6.3231,4.6184,2.9389,1491
106490,10.7224,4.4831,10.2089,1491
106495,7.8135,-2.5462,19.8803,1499
106500,-10.7512,-0.6369,10.2699,1499
106505,-9.5493,3.9911,3.1867,1493
106510,8.7903,4.4748,7.9128,1509
106515,11.8262,-0.7925,18.8962,1489
106520,-8.6263,-0.6045,13.1789,1515
106525,-12.8473,3.1867,3.7266,1481
106530,6.4081,4.4508,5.9017,1493
106535,13.8241,1.342,17.7327,1501
106540,-7.4268,-1.549,16.5475,1493
106545,-15.919,2.0087,4.5837,1493
106550,3.4728,4.725,4.3718,1511
106555,14.0923,3.1879,16.35,1486
106560,-5.5043,-2.9904,19.2518,1501
106565,-17.4202,0.5674,5.7796,1507
106570,0.0359,5.0266,3.3471,1492
106575,13.3848,4.2054,14.3149,1507
106580,-1.5921,-3.6835,20.5985,1501
106585,-16.0136,-0.559,7.088,1496
106590,-3.5434,5.0015,2.9413,1503
106595,12.0357,4.4197,12.0823,1483
106600,3.6117,-3.4512,20.626,1491
106605,-13.1274,-0.7626,8.6107,1515
106610,-6.8438,4.5825,2.9173,1481
106615,10.3477,4.361,9.6522,1499
106620,8.4934,-2.2541,19.9892,1499
106625,-10.331,-0.5878,10.6686,1503
106630,-9.9132,3.8774,3.2453,1502
106635,8.3893,4.3658,7.5094,1491
106640,12.0919,-0.5219,18.9417,1493
106645,-8.6239,-0.6991,13.5201,1510
106650,-12.9778,3.1137,3.7086,1491
106655,6.0897,4.4831,5.6743,1495
106660,14.0408,1.3767,17.8033,1497
106665,-7.4759,-1.5251,16.8312,1490
106670,-15.8137,2.1009,4.5741,1499
106675,3.2513,4.7537,4.2653,1503
106680,14.3987,2.982,16.2399,1493
106685,-5.5797,-2.8683,19.4708,1503
106690,-17.261,0.7566,5.6395,1502
106695,0.0395,4.9943,3.3232,1485
106700,13.7188,3.9672,14.4107,1507
106705,-1.749,-3.7697,20.7649,1495
106710,-16.5942,-0.3663,6.9013,1503
106715,-3.3854,4.9524,2.8958,1495
106720,12.3325,4.3539,12.1218,1485
106725,3.3746,-3.6212,20.8679,1495
106730,-13.7092,-0.6931,8.503,1511
106735,-6.8187,4.5933,2.909,1478
106740,10.5453,4.3718,9.8198,1531
106745,8.4671,-2.4277,20.1077,1495
106750,-10.082,-0.5279,10.5728,1505
106755,-10.2077,3.9277,3.1663,1503
106760,8.4934,4.3467,7.5753,1492
106765,11.9902,-0.5459,18.9441,1493
106770,-7.9487,-0.7147,13.5344,1510
106775,-13.787,3.0466,3.8176,1493
106780,6.0585,4.4903,5.7006,1491
106785,13.6553,1.4808,17.759,1507
106790,-7.1658,-1.6508,16.6457,1486
106795,-16.4673,1.8818,4.7022,1487
106800,3.316,4.8734,4.2868,1497
106805,13.8888,2.9987,16.2375,1493
106810,-5.3774,-2.8575,19.1764,1503
106815,-17.2754,0.5483,5.9268,1501
106820,-0.012,5.1811,3.3758,1487
106825,13.1561,3.8451,14.4179,1513
106830,-1.5071,-3.6224,20.3663,1493
106835,-15.5803,-0.4334,7.1658,1485
106840,-3.5231,5.1583,2.8922,1494
106845,11.7076,4.148,12.2416,1491
106850,3.7074,-3.4608,20.3986,1497
106855,-12.2547,-0.6692,8.655,1501
106860,-7.039,4.6902,2.9185,1492
106865,10.1514,4.1982,9.8533,1497
106870,8.5964,-2.2182,19.6863,1493
106875,-9.4511,-0.5303,10.8098,1495
106880,-10.3884,3.8978,3.3172,1507
106885,8.2576,4.3431,7.604,1495
106890,12.1973,-0.2897,18.6472,1479
106895,-8.1271,-0.7422,13.7726,1509
106900,-13.7295,2.9509,3.9373,1491
106905,5.8287,4.537,5.6551,1499
106910,13.9869,1.652,17.528,1487
106915,-7.1467,-1.7861,17.158,1485
106920,-16.5439,1.828,4.8854,1499
106925,2.7797,4.804,4.1432,1501
106930,13.957,3.2513,15.9765,1497
106935,-4.6184,-3.1113,19.5487,1507
106940,-17.3256,0.3376,6.0478,1499
106945,-0.8284,5.0853,3.2501,1486
106950,13.0233,4.2186,13.9558,1501
106955,-0.0491,-3.7781,20.6847,1491
106960,-15.5252,-0.6177,7.3717,1493
106965,-4.6172,4.9811,2.8958,1493
106970,11.4742,4.4065,11.4156,1495
106975,5.5186,-3.2178,20.3567,1509
106980,-11.9914,-0.6452,9.1961,1495
106985,-8.1415,4.294,3.043,1483
106990,9.6283,4.385,8.9711,1511
106995,10.2747,-1.5538,19.5391,1489
107000,-9.0944,-0.498,11.7292,1494
107005,-11.461,3.5195,3.3746,1495
107010,7.3275,4.4017,6.6272,1503
107015,13.1346,0.6404,18.2893,1496
107020,-7.7021,-1.1049,15.2906,1497
107025,-15.0332,2.4313,4.1767,1487
107030,4.458,4.6914,4.8435,1511
107035,14.0995,2.5881,16.9282,1483
107040,-6.2656,-2.5402,18.518,1485
107045,-17.3376,0.9912,5.3032,1505
107050,0.9936,5.0218,3.5506,1491
107055,13.447,3.7601,15.1361,1495
107060,-2.5809,-3.6739,20.2526,1501
107065,-16.4123,-0.1951,6.6858,1501
107070,-2.7689,5.193,2.9066,1507
107075,12.0452,4.1635,12.8952,1491
107080,2.6899,-3.7266,20.5183,1493
107085,-13.1238,-0.5782,8.1738,1505
107090,-6.3973,4.8447,2.8443,1497
107095,10.3178,4.2569,10.4148,1485
107100,7.9942,-2.6671,19.9473,1503
107105,-9.8569,-0.3627,10.3178,1501
107110,-9.7899,4.0582,3.1352,1503
107115,8.3989,4.2641,7.9236,1491
107120,11.8621,-0.82,19.0794,1481
107125,-8.102,-0.4681,13.2148,1514
107130,-13.1537,3.2645,3.7218,1486
107135,5.9903,4.5693,5.8574,1494
107140,13.6781,1.1384,18.069,1506
107145,-7.2101,-1.6029,16.6026,1483
107150,-16.1417,2.1332,4.5191,1491
107155,2.8599,5.0051,4.1755,1493
107160,13.9307,2.7414,16.5691,1490
107165,-5.0159,-3.1232,19.2913,1511
107170,-17.2299,0.7147,5.6898,1497
107175,-0.8607,5.3211,3.2166,1487
107180,12.9215,3.6416,14.5508,1501
107185,-0.3771,-3.9744,20.3854,1495
107190,-14.7638,-0.2658,7.1287,1501
107195,-4.531,5.2732,2.8132,1501
107200,11.1857,4.0043,12.1218,1493
107205,5.3079,-3.5219,20.2095,1501
107210,-10.586,-0.3316,9.001,1501
107215,-8.2516,4.8016,2.903,1483
107220,9.3781,4.0127,9.4822,1513
107225,9.8629,-2.0099,19.417,1477
107230,-8.1487,-0.3268,11.4203,1507
107235,-11.6801,3.8415,3.45,1495
107240,7.4627,4.3191,7.0557,1489
107245,12.6258,0.0012,18.4796,1486
107250,-7.5537,-0.8954,14.5843,1500
107255,-14.6669,2.8024,4.2796,1483
107260,4.9297,4.6771,5.0781,1507
107265,13.8277,1.9956,17.2634,1493
107270,-6.5218,-2.1931,17.8631,1493
107275,-16.8049,1.4377,5.2038,1498
107280,1.5263,5.1032,3.7816,1497
107285,13.714,3.474,15.4725,1491
107290,-3.158,-3.5434,20.1101,1496
107295,-17.0731,0.1077,6.3829,1495
107300,-2.1787,5.1763,3.0095,1490
107305,12.4439,4.197,12.9478,1495
107310,2.2972,-3.893,20.8272,1497
107315,-14.5065,-0.4908,7.8997,1509
107320,-5.94,4.8399,2.9125,1491
107325,10.6087,4.2605,10.2292,1503
107330,7.865,-2.7749,20.3663,1493
107335,-10.9523,-0.4441,10.0485,1490
107340,-9.165,4.0642,3.1304,1513
107345,8.5078,4.3299,7.75,1491
107350,11.8477,-0.5818,19.3284,1489
107355,-8.7879,-0.6357,13.1921,1513
107360,-12.311,3.0921,3.5937,1497
107365,5.9807,4.4796,5.6994,1497
107370,13.9618,1.7549,17.7985,1499
107375,-7.6591,-1.7478,16.921,1487
107380,-15.0535,1.8806,4.44,1496
107385,2.9425,4.616,4.2485,1499
107390,14.2359,3.6356,16.0555,1501
107395,-5.2457,-3.3279,19.9389,1507
107400,-17.0814,0.34,5.5474,1496
107405,-0.4896,4.78,3.2813,1487
107410,13.2758,4.725,13.872,1509
107415,-0.7099,-4.0127,21.1707,1485
107420,-16.2722,-0.8906,7.1323,1502
107425,-4.4053,4.6412,2.9401,1495
107430,11.6083,4.9009,11.5269,1490
107435,5.2577,-3.2034,20.4884,1509
107440,-11.6454,-0.8619,9.0776,1507
107445,-8.2109,4.0618,2.9173,1497
107450,9.4846,4.6124,9.1004,1511
107455,10.0832,-1.2246,19.1512,1484
107460,-8.0541,-0.7638,11.9878,1501
107465,-12.4331,3.2322,3.3842,1507
107470,7.1311,4.3658,6.845,1495
107475,12.4606,1.0379,17.8751,1484
107480,-7.3334,-1.4437,15.1625,1501
107485,-15.4606,1.9992,4.5322,1495
107490,4.8722,4.7034,5.0805,1509
107495,13.1585,2.9868,16.6086,1496
107500,-6.6631,-2.4888,18.0355,1495
107505,-16.8648,0.6213,5.7233,1499
107510,1.7801,5.1415,3.814,1493
107515,13.0149,4.039,15.1062,1485
107520,-3.6188,-3.389,19.8551,1511
107525,-16.0591,-0.4717,6.8091,1501
107530,-2.0782,5.3067,3.1424,1493
107535,11.898,4.4173,13.2687,1499
107540,1.8387,-3.4716,20.0814,1492
107545,-12.5923,-0.923,8.09,1503
107550,-5.9448,4.9117,2.9269,1485
107555,10.3765,4.4005,10.9379,1493
107560,7.2101,-2.5043,19.4086,1495
107565,-9.3266,-0.7219,10.1766,1493
107570,-9.6929,3.9816,3.2645,1493
107575,8.8059,4.2377,8.4731,1499
107580,11.2001,-0.6728,18.4617,1485
107585,-7.8817,-0.7626,13.0089,1509
107590,-13.2962,2.9772,4.0067,1483
107595,6.5721,4.5238,6.195,1501
107600,13.3656,1.5095,17.4621,1499
107605,-7.3035,-1.5526,16.4673,1491
107610,-16.4206,1.7214,4.9153,1500
107615,3.4333,4.8854,4.4245,1499
107620,13.7068,3.2178,16.1345,1495
107625,-5.2553,-2.873,19.0926,1505
107630,-17.2526,0.2239,6.1088,1497
107635,-0.231,5.1619,3.322,1487
107640,12.8461,4.197,14.364,1509
107645,-0.8655,-3.571,20.1735,1497
107650,-14.9374,-0.7829,7.3969,1501
107655,-4.1934,5.0913,2.8814,1485
107660,11.4299,4.3814,11.9698,1499
107665,4.6615,-3.0754,20.0299,1512
107670,-11.1522,-0.7889,9.1028,1512
107675,-8.0589,4.47,3.0993,1483
107680,9.7264,4.2904,9.3553,1509
107685,9.6007,-1.5826,19.1668,1483
107690,-8.2768,-0.6069,11.5233,1503
107695,-11.825,3.5039,3.6033,1495
107700,7.4795,4.3072,6.9599,1531
107705,12.481,0.5303,18.0595,1527
107710,-7.446,-1.1672,14.9566,1507
107715,-15.4905,2.3224,4.5693,1495
107720,4.7716,4.6747,5.0793,1519
107725,13.368,2.4301,16.8097,1491
107730,-6.3722,-2.2757,17.7626,1484
107735,-16.915,0.8559,5.7413,1501
107740,1.5467,5.2134,3.7828,1491
107745,12.7814,3.6595,15.2894,1493
107750,-3.1077,-3.2836,19.5175,1499
107755,-15.5288,-0.3843,6.9564,1493
107760,-2.2422,5.4097,3.1352,1496
107765,11.5999,4.1911,13.2663,1495
107770,2.156,-3.4907,19.7426,1499
107775,-12.2487,-0.814,8.2492,1511
107780,-6.2058,5.0314,3.0131,1485
107785,10.1646,4.118,10.9176,1496
107790,7.4627,-2.5079,19.0973,1497
107795,-9.0597,-0.6309,10.2639,1501
107800,-10.0748,4.0737,3.3914,1499
107805,8.4839,4.1073,8.3929,1497
107810,11.2863,-0.5638,18.2151,1482
107815,-7.7859,-0.7051,13.2663,1511
107820,-13.9163,2.885,4.221,1493
107825,6.3817,4.5418,6.1112,1501
107830,13.1071,1.5167,17.2251,1499
107835,-7.3526,-1.6424,16.4553,1483
107840,-16.5727,1.5562,5.2301,1501
107845,3.4441,5.1212,4.3491,1501
107850,13.2052,3.0694,16.0998,1491
107855,-5.1679,-2.8371,18.8687,1515
107860,-16.4182,0.2191,6.4236,1497
107865,-0.2789,5.4803,3.3363,1486
107870,12.2284,3.899,14.4945,1501
107875,-0.8308,-3.6236,19.7007,1490
107880,-13.6924,-0.5842,7.5262,1495
107885,-4.221,5.4049,3.0215,1497
107890,10.8709,4.1049,12.3254,1486
107895,4.725,-3.2777,19.5822,1509
107900,-10.4483,-0.6129,8.9627,1503
107905,-7.9787,4.7381,3.1675,1481
107910,9.4188,4.0893,9.8366,1511
107915,9.6558,-1.8603,18.8053,1482
107920,-8.4815,-0.425,11.3353,1503
107925,-11.546,3.7505,3.6536,1493
107930,7.6411,4.3371,7.3346,1499
107935,12.8509,0.1856,18.0188,1495
107940,-7.8757,-0.9768,14.6549,1495
107945,-14.9326,2.5929,4.3299,1490
107950,4.8806,4.7082,5.1954,1513
107955,14.0827,2.2374,16.9474,1485
107960,-6.535,-2.2841,18.0391,1492
107965,-17.2586,1.2019,5.3726,1498
107970,1.2246,5.1392,3.7421,1489
107975,13.8588,3.5674,15.3432,1511
107980,-2.8036,-3.4919,19.9018,1493
107985,-16.7079,-0.1173,6.6283,1511
107990,-2.8072,5.2397,3.0562,1497
107995,12.5217,4.1348,13.0676,1491
108000,2.7426,-3.6595,20.316,1496
108005,-13.3944,-0.6033,8.2756,1503
108010,-6.6978,4.8518,2.9197,1489
108015,10.6638,4.2329,10.2927,1499
108020,8.1678,-2.5989,19.8755,1492
108025,-9.9479,-0.5028,10.4315,1497
108030,-10.2316,4.0235,3.2597,1503
108035,8.4551,4.385,7.7321,1499
108040,12.0596,-0.7614,19.0495,1487
108045,-8.1666,-0.6261,13.38,1513
108050,-13.556,3.1017,3.7936,1479
108055,5.7688,4.616,5.6431,1503
108060,13.9893,1.4042,17.8416,1501
108065,-7.1347,-1.7059,16.8827,1487
108070,-16.3704,1.8364,4.7776,1501
108075,2.4193,4.8926,4.1061,1495
108080,14.2347,3.1412,16.1178,1493
108085,-4.5969,-3.0885,19.4852,1501
108090,-17.267,0.3436,6.049,1501
108095,-1.3515,5.1152,3.2561,1496
108100,13.0759,4.0833,13.8852,1500
108105,0.3639,-3.7469,20.468,1486
108110,-14.5113,-0.6129,7.5489,1479
108115,-5.2996,4.9416,2.8994,1481
108120,11.2001,4.3323,11.4575,1481
108125,6.1268,-3.0538,19.8922,1507
108130,-9.7444,-0.6404,9.6235,1495
108135,-9.3745,4.2976,3.1017,1493
108140,8.8777,4.1922,9.0082,1501
108145,10.3501,-1.1588,18.8112,1485
108150,-7.61,-0.6788,12.3265,1495
108155,-13.0735,3.2777,3.8894,1493
108160,6.9073,4.3814,6.699,1501
108165,12.5097,0.9876,17.4992,1499
108170,-7.3921,-1.3396,15.4246,1497
108175,-15.6353,1.8423,5.0613,1496
108180,4.3826,4.8387,4.9404,1503
108185,13.2064,2.8958,16.3452,1492
108190,-6.2968,-2.478,18.3444,1499
108195,-16.8384,0.4417,6.0765,1502
108200,0.9409,5.2218,3.6739,1493
108205,12.7671,4.1348,14.7543,1503
108210,-2.2924,-3.4465,19.8132,1499
108215,-15.1888,-0.6404,7.1527,1498
108220,-3.0418,5.217,3.1184,1507
108225,11.4575,4.4185,12.7491,1485
108230,3.5434,-3.3627,19.7103,1491
108235,-11.2492,-0.8511,8.7041,1512
108240,-7.276,4.6807,3.0574,1485
108245,9.7863,4.2832,10.1885,1513
108250,8.7233,-1.9118,18.9226,1487
108255,-8.2911,-0.5878,11.1031,1497
108260,-11.2563,3.7469,3.565,1501
108265,7.8865,4.2737,7.6136,1493
108270,12.0787,0.1628,17.9218,1491
108275,-7.5908,-0.9206,14.2036,1496
108280,-14.6513,2.4924,4.4149,1493
108285,5.4348,4.6052,5.515,1507
108290,13.5967,2.2374,16.8971,1493
108295,-6.948,-2.0542,17.5435,1496
108300,-16.8612,1.1576,5.448,1492
108305,2.1512,4.9464,4.0019,1501
108310,13.4315,3.7529,15.4234,1512
108315,-3.8487,-3.2609,19.6899,1500
108320,-16.4458,-0.2981,6.6702,1503
108325,-1.6807,5.0338,3.2022,1494
108330,12.1733,4.5514,13.362,1489
108335,1.5957,-3.5063,20.0826,1497
108340,-13.052,-0.9697,8.1271,1509
108345,-5.7305,4.7238,3.0179,1491
108350,10.4471,4.4245,10.8733,1485
108355,7.1419,-2.3595,19.3392,1501
108360,-9.3661,-0.8068,10.2663,1495
108365,-9.56,3.9373,3.3662,1511
108370,8.6239,4.2198,8.2265,1491
108375,11.0995,-0.3867,18.3851,1480
108380,-7.8578,-0.8332,13.1442,1517
108385,-13.2699,2.8108,4.1096,1483
108390,6.3446,4.3443,6.0226,1495
108395,13.3249,1.7909,17.3496,1493
108400,-7.3622,-1.6316,16.6421,1501
108405,-16.3823,1.6209,5.0913,1495
108410,3.3315,4.7297,4.3072,1507
108415,13.6745,3.4644,15.937,1495
108420,-5.2744,-2.8695,19.0866,1504
108425,-17.0491,0.2191,6.2644,1503
108430,-0.1963,5.1451,3.3782,1493
108435,12.6953,4.1551,14.1785,1499
108440,-0.8835,-3.5626,20.0682,1491
108445,-14.5687,-0.6991,7.5465,1493
108450,-4.1288,5.1511,2.9317,1500
108455,11.2132,4.2449,11.9195,1496
108460,4.5071,-3.1065,19.8743,1511
108465,-10.7464,-0.7566,9.104,1499
108470,-7.9655,4.5633,3.0538,1487
108475,9.5672,4.1515,9.5146,1499
108480,9.2751,-1.7322,19.083,1491
108485,-8.4384,-0.5986,11.4323,1497
108490,-11.4982,3.6547,3.626,1498
108495,7.7417,4.2892,7.2233,1496
108500,12.3661,0.0922,18.1923,1485
108505,-7.6758,-0.8727,14.4119,1510
108510,-14.777,2.6145,4.4149,1479
108515,5.3463,4.6663,5.3211,1511
108520,13.6972,1.8902,17.1616,1491
108525,-6.863,-1.907,17.3939,1485
108530,-16.9821,1.3108,5.3917,1502
108535,2.2996,5.0302,3.8942,1492
108540,13.6374,3.3363,15.7431,1501
108545,-4.2629,-3.0706,19.5307,1497
108550,-16.6433,0.0251,6.5242,1499
108555,-1.3946,5.2241,3.0598,1498
108560,12.5396,3.9624,13.787,1450
108565,0.3448,-3.5015,20.1496,1485
108570,-13.6338,-0.6967,7.8781,1513
108575,-5.1451,5.0793,2.8982,1483
108580,11.078,4.1073,11.4598,1492
108585,5.6395,-2.879,19.8312,1508
108590,-10.1502,-0.6943,9.5349,1499
108595,-8.8071,4.3958,3.1328,1496
108600,9.3829,4.0905,8.9914,1499
108605,10.0736,-1.3659,19.0183,1483
108610,-8.0888,-0.5351,11.9686,1497
108615,-12.4451,3.48,3.7529,1493
108620,7.3346,4.2521,6.7516,1495
108625,12.7084,0.4537,18.0846,1497
108630,-7.4687,-1.0032,14.9494,1497
108635,-15.5946,2.3511,4.6843,1485
108640,4.7824,4.719,4.9464,1519
108645,13.6829,2.2027,16.9629,1492
108650,-6.365,-2.15,17.8248,1495
108655,-17.1904,0.9337,5.697,1495
108660,1.494,5.2026,3.6763,1489
108665,13.4135,3.5003,15.3373,1495
108670,-3.2286,-3.1196,19.5654,1499
108675,-15.9143,-0.2957,6.924,1493
108680,-2.2865,5.3546,3.1041,1493
108685,12.1602,4.0582,13.1837,1491
108690,1.7131,-3.322,20.0107,1495
108695,-12.6785,-0.7877,8.2325,1512
108700,-6.0777,4.9536,2.9856,1487
108705,10.6231,4.13,10.7308,1502
108710,6.8594,-2.5331,19.5894,1503
108715,-9.5229,-0.7254,10.088,1495
108720,-9.7456,4.1204,3.2836,1495
108725,8.9507,4.1623,8.3917,1502
108730,10.9463,-0.9601,18.7849,1481
108735,-7.9535,-0.6548,12.7288,1517
108740,-13.3357,3.14,3.9684,1492
108745,6.7349,4.4329,6.1842,1497
108750,13.2878,1.0487,17.7698,1501
108755,-7.3502,-1.2414,15.9478,1466
108760,-16.3237,2.0171,4.8842,1499
108765,3.8738,4.8842,4.5454,1510
108770,13.8409,2.8216,16.526,1499
108775,-5.7545,-2.4708,18.567,1500
108780,-17.2897,0.6105,5.9771,1503
108785,0.4082,5.2026,3.4285,1493
108790,13.3776,3.8128,14.795,1517
108795,-2.0889,-3.3734,19.9784,1493
108800,-15.7263,-0.4657,7.2472,1496
108805,-3.4536,5.2301,2.9844,1506
108810,12.1446,4.1061,12.4929,1487
108815,3.2058,-3.3746,20.1771,1497
108820,-12.123,-0.7973,8.5533,1503
108825,-7.197,4.6783,3.0107,1493
108830,10.337,4.2114,10.0545,1501
108835,8.248,-2.3248,19.6073,1495
108840,-8.8729,-0.5758,10.6865,1502
108845,-10.8697,3.8618,3.3543,1498
108850,8.351,4.2904,7.7464,1497
108855,11.6969,-0.5088,18.6496,1483
108860,-7.6231,-0.7063,13.4865,1515
108865,-14.218,2.8802,4.1755,1481
108870,6.116,4.61,5.843,1501
108875,13.3716,1.4042,17.5184,1497
108880,-7.1982,-1.5167,16.4577,1491
108885,-16.5439,1.5646,5.132,1509
108890,3.3375,4.9943,4.3431,1497
108895,13.6924,3.1041,16.1249,1490
108900,-5.4743,-2.6097,18.8603,1507
108905,-16.9474,0.2322,6.2824,1495
108910,-0.0084,5.29,3.383,1487
108915,13.0484,3.9875,14.4382,1508
108920,-1.6197,-3.3327,20.0191,1497
108925,-14.7674,-0.7171,7.4208,1503
108930,-3.7864,5.1439,2.9916,1491
108935,11.7172,4.312,12.2954,1483
108940,3.474,-3.1472,19.9808,1497
108945,-11.1235,-0.9553,8.8921,1500
108950,-7.4244,4.4915,3.0191,1489
108955,10.0772,4.3646,9.9072,1505
108960,8.345,-1.9728,19.2159,1497
108965,-8.5988,-0.7542,10.8697,1499
108970,-11.0049,3.6559,3.5195,1545
108975,8.2373,4.3658,7.7297,1499
108980,11.8513,-0.2693,18.3707,1491
108985,-7.7417,-0.826,13.6817,1508
108990,-14.3915,2.6827,4.2042,1491
108995,5.9472,4.6663,5.7293,1499
109000,13.6338,1.7861,17.2347,1497
109005,-7.1563,-1.6472,16.8217,1516
109010,-16.909,1.3946,5.2481,1492
109015,2.9556,5.041,4.1563,1494
109020,13.7224,3.3052,15.9609,1497
109025,-5.1404,-2.7342,19.0914,1509
109030,-16.7977,-0.0072,6.4572,1497
109035,-0.559,5.2529,3.2908,1493
109040,12.882,4.2078,14.1964,1508
109045,-1.0511,-3.3124,20.0371,1491
109050,-14.1749,-0.8416,7.6435,1507
109055,-4.2485,5.0649,2.958,1492
109060,11.631,4.3491,12.0907,1495
109065,4.197,-3.0035,19.8683,1501
109070,-10.9032,-0.9002,9.019,1507
109075,-7.8159,4.4951,3.0694,1486
109080,10.003,4.3072,9.736,1503
109085,8.9435,-1.7514,19.2039,1493
109090,-8.5341,-0.662,11.1893,1494
109095,-11.3234,3.6188,3.4895,1501
109100,8.0589,4.3766,7.4232,1501
109105,12.2571,-0.0347,18.348,1495
109110,-7.7177,-0.9074,14.1102,1511
109115,-14.8417,2.5798,4.3179,1484
109120,5.5665,4.6663,5.4803,1514
109125,13.7008,1.8759,17.2825,1495
109130,-6.9372,-1.81,17.0874,1491
109135,-17.0335,1.3539,5.3451,1495
109140,2.5582,5.0254,3.9923,1496
109145,13.7379,3.2932,15.8783,1499
109150,-4.5981,-2.8838,19.1955,1499
109155,-16.6373,0.0443,6.6068,1487
109160,-1.0439,5.2565,3.2238,1487
109165,12.7743,4.0259,14.0408,1501
109170,-0.2933,-3.3986,20.0012,1493
109175,-13.9558,-0.7494,7.7213,1497
109180,-4.6807,5.041,2.9688,1484
109185,11.3461,4.2784,11.7651,1491
109190,4.9141,-2.9892,19.8228,1511
109195,-10.4519,-0.8045,9.2823,1492
109200,-8.3833,4.3586,3.0933,1486
109205,9.6534,4.2952,9.3482,1511
109210,9.4918,-1.6113,19.0315,1485
109215,-8.26,-0.6357,11.5101,1495
109220,-11.9279,3.4931,3.6308,1493
109225,7.7153,4.3946,7.1443,1499
109230,12.4008,0.3089,18.1648,1493
109235,-7.5633,-0.9984,14.5579,1508
109240,-15.2918,2.3667,4.4975,1486
109245,5.2529,4.6843,5.2134,1511
109250,13.6948,2.1751,16.9976,1493
109255,-6.8881,-2.0099,17.5148,1494
109260,-17.164,1.093,5.6276,1508
109265,2.053,5.1092,3.9109,1502
109270,13.4913,3.5255,15.5958,1487
109275,-4.1623,-2.9975,19.3044,1499
109280,-16.1956,-0.1652,6.7505,1501
109285,-1.4293,5.3379,3.1065,1487
109290,12.4415,4.1515,13.7655,1493
109295,0.322,-3.3639,19.9174,1487
109300,-13.0783,-0.8224,7.9559,1514
109305,-5.1451,5.0554,2.9892,1484
109310,10.9894,4.2449,11.5317,1495
109315,5.4947,-2.8695,19.6133,1501
109320,-10.0269,-0.8128,9.4954,1493
109325,-8.6299,4.3383,3.1855,1485
109330,9.4798,4.2401,9.1267,1499
109335,9.9,-1.3587,18.8747,1493
109340,-8.2959,-0.6273,11.8046,1499
109345,-12.1709,3.401,3.711,1497
109350,7.507,4.373,6.9599,1509
109355,12.7862,0.4717,17.9673,1487
109360,-7.6914,-1.0918,14.9147,1487
109365,-15.342,2.2685,4.5047,1495
109370,4.9536,4.7645,5.0661,1519
109375,13.9905,2.3631,16.9126,1492
109380,-6.7385,-2.0842,17.8607,1523
109385,-17.2191,0.9744,5.5138,1495
109390,1.67,5.0985,3.7529,1496
109395,13.7667,3.6931,15.427,1501
109400,-3.7972,-3.1735,19.6756,1496
109405,-16.3105,-0.2909,6.7289,1495
109410,-2.0351,5.1667,3.0514,1497
109415,12.6043,4.2509,13.4925,1493
109420,0.984,-3.4381,20.1197,1485
109425,-12.9706,-0.917,8.0517,1508
109430,-5.709,4.8088,2.8084,1483
109435,10.9846,4.4065,11.157,1495
109440,6.1974,-2.7126,19.666,1497
109445,-9.4655,-0.7422,9.7875,1495
109450,-9.4607,4.1599,3.1843,1440
109455,9.1626,4.3431,8.7999,1503
109460,10.4351,-1.2534,18.8029,1483
109465,-7.9248,-0.6644,12.2344,1508
109470,-12.9335,3.2489,3.8451,1485
109475,7.1036,4.5334,6.596,1503
109480,12.9981,0.7195,17.8751,1509
109485,-7.5214,-1.1875,15.2834,1487
109490,-15.8628,2.0614,4.7345,1493
109495,4.4628,4.7956,4.8842,1511
109500,13.9762,2.5355,16.7187,1487
109505,-6.4775,-2.3044,18.0894,1497
109510,-17.2586,0.6716,5.8167,1507
109515,1.1217,5.1224,3.6559,1500
109520,13.6577,3.8379,15.1697,1499
109525,-3.2298,-3.2154,19.7593,1493
109530,-15.9418,-0.5088,6.9743,1498
109535,-2.5462,5.1607,3.0227,1496
109540,12.5157,4.3838,13.1106,1493
109545,1.816,-3.316,20.1005,1493
109550,-12.5971,-0.9337,8.2684,1501
109555,-6.213,4.7465,2.9688,1491
109560,10.8194,4.4652,10.7907,1491
109565,7.027,-2.4756,19.6337,1503
109570,-9.681,-0.8009,10.0221,1499
109575,-9.7025,3.984,3.2406,1497
109580,9.019,4.397,8.4228,1497
109585,11.048,-0.9637,18.7765,1483
109590,-8.1594,-0.6895,12.6869,1511
109595,-13.2974,3.1041,3.8343,1495
109600,6.7373,4.5765,6.3386,1494
109605,13.4686,0.9912,17.8033,1498
109610,-7.6028,-1.3587,15.8436,1495
109615,-16.4458,1.9848,4.7058,1496
109620,3.9014,4.9368,4.6064,1512
109625,14.1306,2.6875,16.6421,1494
109630,-5.9879,-2.4146,18.4485,1513
109635,-17.2514,0.589,5.9819,1498
109640,0.5674,5.1619,3.3758,1487
109645,13.3154,3.802,14.9937,1513
109650,-2.4612,-3.2262,19.7593,1496
109655,-14.9626,-0.5124,7.2496,1497
109660,-3.073,5.1751,2.9125,1499
109665,11.9878,4.2365,13.0173,1490
109670,2.393,-3.2848,19.9581,1491
109675,-11.8657,-0.9206,8.4767,1509
109680,-6.7935,4.725,3.0023,1490
109685,10.5141,4.2964,10.6015,1499
109690,7.5585,-2.3559,19.3643,1493
109695,-8.9435,-0.6943,10.3597,1491
109700,-10.5692,3.9217,3.3615,1511
109705,8.7017,4.3802,8.2205,1495
109710,11.4132,-0.51,18.4318,1484
109715,-7.6902,-0.8176,13.2244,1527
109720,-14.188,2.8718,4.1132,1485
109725,6.4536,4.5562,6.0358,1507
109730,13.2232,1.5024,17.431,1493
109735,-7.2927,-1.5131,16.265,1495
109740,-16.5775,1.5287,5.1487,1497
109745,3.5973,4.9344,4.3694,1496
109750,13.6015,3.1232,16.2135,1503
109755,-5.7449,-2.5905,18.6999,1501
109760,-16.866,0.1832,6.2405,1509
109765,0.1832,5.2421,3.4668,1481
109770,13.1669,4.0498,14.6705,1507
109775,-1.9465,-3.3531,19.9641,1493
109780,-15.1529,-0.7266,7.2987,1495
109785,-3.6547,5.0793,2.9449,1495
109790,12.0776,4.3826,12.4965,1493
109795,3.5219,-3.231,19.9389,1497
109800,-11.6059,-0.9026,8.7281,1496
109805,-7.4663,4.5035,2.9592,1486
109810,10.3298,4.4077,10.0736,1501
109815,8.6227,-2.0578,19.2973,1483
109820,-8.5976,-0.6835,10.8661,1497
109825,-11.2779,3.6476,3.292,1491
109830,8.2648,4.4053,7.6315,1497
109835,11.9507,-0.1975,18.4665,1487
109840,-7.5681,-0.8942,13.8145,1507
109845,-14.7734,2.6504,4.2473,1493
109850,5.8215,4.6759,5.6312,1501
109855,13.6062,1.7394,17.5004,1495
109860,-7.112,-1.6843,16.7199,1483
109865,-16.8432,1.3635,5.2696,1494
109870,2.8874,4.9859,4.13,1492
109875,13.8876,3.3255,16.1477,1490
109880,-5.0996,-2.7833,19.1428,1509
109885,-16.8755,0.0563,6.4356,1500
109890,-0.7482,5.1104,3.292,1492
109895,13.1083,4.1096,14.2084,1501
109900,-0.7506,-3.3866,20.0586,1481
109905,-14.2371,-0.8128,7.6243,1507
109910,-4.5538,4.9943,2.9497,1483
109915,11.5987,4.3981,11.9387,1461
109920,4.6735,-2.9616,19.8934,1503
109925,-10.4866,-0.8499,9.1997,1496
109930,-8.2432,4.4317,3.0562,1481
109935,9.8641,4.3598,9.4355,1502
109940,9.2488,-1.5586,19.0578,1487
109945,-8.0768,-0.7099,11.5401,1496
109950,-11.8262,3.4237,3.6416,1497
109955,7.6986,4.3562,7.1682,1500
109960,12.2787,0.3795,18.1385,1499
109965,-7.5633,-1.0546,14.5591,1495
109970,-15.1038,2.2996,4.4915,1483
109975,5.1787,4.701,5.1954,1510
109980,13.6721,2.3248,16.9665,1483
109985,-6.9324,-1.9908,17.5782,1483
109990,-17.1185,0.9948,5.5797,1503
109995,2.0159,5.0338,3.9193,1484
110000,13.7331,3.6308,15.5791,1491
110005,-4.1899,-3.0418,19.4936,1507
110010,-16.5451,-0.2358,6.602,1506
110015,-1.4952,5.1236,3.067,1485
110020,12.7264,4.3048,13.6613,1493
110025,0.577,-3.4213,20.243,1485
110030,-13.6697,-0.838,7.9428,1519
110035,-5.2421,4.8387,2.8635,1487
110040,11.145,4.3886,11.2994,1493
110045,5.8766,-2.7378,19.751,1501
110050,-10.1394,-0.7913,9.5996,1499
110055,-8.9579,4.1492,3.1496,1484
110060,9.3948,4.3634,8.8933,1509
110065,10.2592,-1.1552,19.01,1481
110070,-8.0194,-0.6955,12.1194,1501
110075,-12.5636,3.1448,3.7469,1492
110080,7.1898,4.5071,6.5733,1501
110085,12.9311,0.8978,18.0152,1496
110090,-7.4675,-1.2426,15.2391,1497
110095,-15.53,2.0363,4.5849,1494
110100,4.5023,4.7776,4.859,1511
110105,14.0109,2.6827,16.8037,1495
110110,-6.4667,-2.3451,18.184,1509
110115,-17.2933,0.7087,5.5725,1493
110120,1.2007,5.0338,3.6547,1491
110125,13.8409,3.9911,15.1984,1502
110130,-3.3603,-3.2693,19.9856,1503
110135,-16.4135,-0.4884,6.8247,1508
110140,-2.5905,5.0458,3.0071,1493
110145,12.5672,4.452,13.1478,1477
110150,1.7406,-3.4321,20.1807,1487
110155,-12.4654,-0.9685,8.2468,1516
110160,-6.2632,4.7178,2.8048,1495
110165,10.7548,4.4448,10.8673,1495
110170,6.7696,-2.4421,19.6253,1502
110175,-8.989,-0.8404,10.1215,1494
110180,-9.8282,4.0211,3.1795,1503
110185,8.9771,4.2677,8.509,1495
110190,10.5297,-0.7554,18.7502,1484
110195,-7.7297,-0.8535,12.548,1511
110200,-13.1238,3.0215,3.9421,1481
110205,7.1036,4.4604,6.4416,1495
110210,12.8868,1.1875,17.7698,1498
110215,-7.6004,-1.3886,15.5695,1495
110220,-16.01,1.8268,4.8483,1496
110225,4.4736,4.8088,4.7058,1507
110230,13.7607,2.9413,16.6098,1485
110235,-6.4655,-2.4002,18.3132,1497
110240,-17.2909,0.5171,5.9723,1507
110245,1.2378,5.1056,3.5566,1493
110250,13.4171,4.0941,15.0954,1509
110255,-3.1879,-3.152,19.757,1498
110260,-15.7419,-0.6476,7.0557,1507
110265,-2.3475,5.1523,2.9963,1507
110270,12.3373,4.5155,13.1322,1492
110275,1.6185,-3.1951,20.0407,1487
110280,-12.5863,-1.1217,8.266,1498
110285,-5.9388,4.7154,2.9245,1494
110290,10.8314,4.4568,10.7907,1501
110295,6.5793,-2.2948,19.4996,1496
110300,-9.59,-0.929,10.0126,1469
110305,-9.426,3.9564,3.2597,1497
110310,9.165,4.3934,8.5305,1497
110315,10.6386,-0.7099,18.7502,1481
110320,-8.0936,-0.8212,12.5971,1516
110325,-12.8186,2.9999,3.7792,1481
110330,7.0581,4.5226,6.3243,1507
110335,13.1286,1.2414,17.7973,1502
110340,-7.5956,-1.3862,15.7203,1493
110345,-16.0136,1.8926,4.6459,1497
110350,4.2988,4.8291,4.6759,1499
110355,14.0216,2.9509,16.7271,1496
110360,-6.3243,-2.4086,18.4258,1492
110365,-17.3687,0.5758,5.8023,1499
110370,1.0367,4.9871,3.5219,1485
110375,13.69,4.1073,15.0296,1511
110380,-3.1244,-3.3399,19.9808,1465
110385,-16.1956,-0.5698,6.9899,1495
110390,-2.5714,5.0422,2.9784,1508
110395,12.4953,4.4592,13.0328,1493
110400,1.7992,-3.4321,20.2741,1495
110405,-12.8736,-0.9445,8.2528,1509
110410,-6.0908,4.689,2.8671,1485
110415,10.8685,4.4185,10.7176,1495
110420,6.8378,-2.4026,19.7929,1501
110425,-9.3649,-0.8212,10.088,1508
110430,-9.5876,3.9935,3.1448,1508
110435,9.0333,4.2892,8.3139,1494
110440,10.5991,-0.6991,18.8891,1486
110445,-7.7572,-0.808,12.7,1519
110450,-13.028,2.958,3.8978,1485
110455,6.9552,4.476,6.2836,1495
110460,12.9239,1.2103,17.8081,1496
110465,-7.4723,-1.3707,15.6844,1496
110470,-15.8269,1.8148,4.8159,1495
110475,4.3467,4.8387,4.6436,1510
110480,13.7116,2.8455,16.5918,1487
110485,-6.3087,-2.4026,18.4318,1495
110490,-17.1293,0.5435,5.9053,1509
110495,1.1037,5.2241,3.5434,1499
110500,13.2483,3.8307,15.1038,1511
110505,-3.1077,-3.2825,19.8539,1496
