timestamp_ms,ax,ay,az,acs_adc
18571,-7.4843,-2.1153,16.8133,1511
18576,-13.362,1.0295,6.2944,1516
18581,-0.3627,6.2225,4.5059,1516
18586,12.2882,3.371,15.4641,1513
18591,-1.9237,-4.2413,16.9928,1519
18596,-11.5772,-0.1401,7.7309,1509
18601,-4.7657,6.2764,4.3263,1501
18606,11.8286,4.9656,13.8181,1519
18611,5.0889,-5.3008,16.4242,1510
18616,-9.8545,0.1149,9.5313,1519
18621,-9.6223,5.2517,4.2162,1525
18626,7.6986,5.2086,10.7009,1513
18631,9.8222,-3.4141,16.0819,1516
18636,-10.58,-0.6081,12.3936,1519
18641,-11.7088,3.5015,5.2732,1519
18646,6.7277,6.1447,8.0828,1513
18651,13.4841,-1.3958,15.3588,1496
18656,-8.9016,-1.1779,16.0208,1509
18661,-13.6565,1.7789,5.6695,1513
18666,1.409,5.9508,5.0242,1525
18671,12.7886,2.3918,16.0316,1499
18676,-4.5765,-3.4656,16.8851,1517
18681,-11.8034,0.3579,7.118,1519
18686,-2.399,6.4991,4.3826,1501
18691,12.621,4.1515,14.7543,1527
18696,1.9668,-5.1619,16.7941,1509
18701,-10.422,0.1377,8.357,1524
18706,-7.7871,5.7856,3.8858,1511
18711,8.8083,4.9991,12.2212,1502
18716,7.8542,-4.3814,16.2387,1517
18721,-10.7212,-0.3795,11.0121,1519
18726,-10.8469,4.4353,4.883,1511
18731,7.9188,5.9209,9.4679,1524
18736,12.6857,-2.8934,15.3792,1497
18741,-9.6462,-0.401,14.6681,1529
18746,-13.5201,2.551,5.3666,1509
18751,2.8168,5.7114,6.1148,1509
18756,13.0352,0.9242,16.2135,1512
18761,-6.7253,-2.6372,16.4877,1507
18766,-12.4199,1.0139,6.5565,1509
18771,-0.2442,6.3949,4.8411,1507
18776,13.1741,3.1184,15.3564,1503
18781,-1.0965,-4.6208,17.0419,1519
18786,-10.829,0.3196,7.4687,1513
18791,-5.8466,6.2189,3.9169,1523
18796,9.9527,4.7214,13.5895,1491
18801,5.363,-4.877,16.3919,1510
18806,-10.7739,-0.1544,9.8138,1524
18811,-9.5421,5.1583,4.5526,1501
18816,9.1255,5.7473,10.8326,1510
18821,11.3138,-3.9385,15.6042,1503
18826,-9.7121,0.1257,13.1693,1509
18831,-12.8353,3.4117,5.0159,1519
18836,4.3922,5.4863,7.1527,1480
18841,12.9012,-0.3089,16.0986,1503
18846,-8.4264,-1.7705,15.5958,1512
18851,-12.5887,1.5874,6.0956,1515
18856,1.8411,6.3243,5.5294,1495
18861,13.7655,2.1548,15.4869,1505
18866,-4.0666,-3.7553,17.3592,1523
18871,-11.8082,0.3519,6.6834,1519
18876,-3.6416,6.2991,3.9097,1503
18881,10.7416,4.4269,14.5603,1517
18886,2.6899,-4.9632,16.8348,1501
18891,-11.1247,-0.2957,8.7221,1531
18896,-7.7943,5.6946,4.3515,1495
18901,10.1478,5.6228,12.2703,1510
18906,9.2787,-4.8399,15.7323,1541
18911,-9.5804,0.231,11.6657,1507
18916,-11.9255,4.1611,4.6974,1524
18921,5.6623,5.4564,8.6862,1511
18926,12.0213,-1.6891,15.8843,1493
18931,-9.4391,-1.1265,14.5699,1529
18936,-12.6055,2.3403,5.7138,1517
18941,3.9444,6.2632,6.45,1507
18946,13.8912,0.7661,15.3504,1495
18951,-6.6152,-2.6097,17.1173,1514
18956,-12.8976,0.7578,6.3351,1517
18961,-1.3312,6.3398,4.1743,1515
18966,11.9327,3.699,15.3947,1515
18971,-0.4633,-4.5933,16.8911,1515
18976,-11.4994,-0.073,7.92,1517
18981,-5.7413,6.1543,4.2006,1519
18986,11.2946,5.1523,13.5093,1499
18991,6.365,-5.4336,16.1393,1503
18996,-9.6295,0.2801,10.1287,1527
19001,-10.5153,5.017,4.3431,1509
19006,6.9683,5.3235,10.2651,1527
19011,10.5465,-3.1651,15.9753,1515
19016,-10.1155,-0.6393,13.0113,1510
19021,-12.135,3.207,5.3654,1523
19026,5.7772,6.1327,7.6579,1511
19031,13.6218,-0.9469,15.3827,1517
19036,-8.4108,-1.488,16.2638,1503
19041,-13.4291,1.5,5.9448,1519
19046,0.6369,6.195,4.8794,1527
19051,12.6306,2.6085,15.8005,1502
19056,-3.3722,-3.9109,16.781,1526
19061,-12.0117,0.3232,7.2532,1516
19066,-3.3854,6.3985,4.4089,1516
19071,12.1506,4.4365,14.4634,1516
19076,3.3267,-5.381,16.6062,1507
19081,-9.8653,0.2634,8.7975,1527
19086,-8.5365,5.6767,4.0342,1499
19091,8.2157,5.0374,11.7747,1508
19096,8.843,-4.1623,16.1884,1509
19101,-10.6063,-0.3328,11.5652,1509
19106,-11.2288,4.1839,4.9356,1543
19111,7.2868,5.8909,8.9759,1513
19116,13.2208,-2.3511,15.4606,1523
19121,-9.4296,-0.662,15.2223,1519
19126,-13.7463,2.2996,5.5402,1503
19131,2.4134,5.8143,5.6719,1531
19136,13.0747,1.4557,16.1453,1469
19141,-5.8754,-3.0646,16.6672,1513
19146,-12.5827,0.7614,6.7217,1513
19151,-0.8511,6.3913,4.6819,1507
19156,13.0496,3.6871,15.0907,1509
19161,-0.0599,-4.8806,17.1856,1516
19166,-10.5848,0.1987,7.6734,1525
19171,-6.3087,6.0142,3.7481,1529
19176,9.2608,4.9931,13.1166,1499
19181,6.3231,-4.7633,16.4925,1507
19186,-10.7895,-0.4022,10.1778,1523
19191,-9.9264,4.8698,4.6424,1507
19196,8.6479,5.8227,10.5082,1530
19201,11.8417,-3.6811,15.4641,1503
19206,-9.6798,-0.0658,13.7571,1519
19211,-13.2459,3.0382,5.1284,1512
19216,3.8535,5.5737,6.8378,1509
19221,12.9036,0.0455,16.1261,1511
19226,-7.8135,-1.9764,15.876,1507
19231,-12.5708,1.3671,6.3255,1509
19236,1.3168,6.3111,5.296,1515
19241,13.5967,2.4217,15.3827,1499
19246,-3.3291,-3.9301,17.255,1507
19251,-11.7962,0.3543,7.1024,1517
19256,-4.1934,6.2501,3.9444,1499
19261,10.8182,4.5837,14.2455,1512
19266,3.304,-4.9704,16.6277,1499
19271,-11.2097,-0.2095,9.1399,1543
19276,-8.2193,5.4827,4.379,1503
19281,10.0281,5.6371,11.7914,1507
19286,9.7743,-4.7202,15.6593,1519
19291,-9.6331,0.2933,12.2152,1510
19296,-12.2308,3.9205,4.8387,1525
19301,5.2122,5.3965,8.1642,1517
19306,12.1937,-1.3443,15.9597,1497
19311,-9.1746,-1.2306,14.8225,1523
19316,-12.4534,2.1069,5.9484,1499
19321,3.5518,6.1878,6.1232,1525
19326,13.9223,1.1588,15.3444,1481
19331,-6.0633,-2.8299,17.1712,1517
19336,-12.9909,0.6883,6.602,1518
19341,-1.8986,6.2441,4.1635,1511
19346,11.9135,4.0426,15.0835,1523
19351,0.3005,-4.6471,16.8779,1512
19356,-11.6861,-0.0754,8.1463,1530
19361,-6.1734,6.0274,4.288,1509
19366,11.0947,5.2708,13.1154,1508
19371,7.2233,-5.2517,16.1621,1519
19376,-9.572,0.3711,10.5022,1505
19381,-10.7883,4.8267,4.3012,1517
19386,6.2477,5.1523,9.6618,1525
19391,11.1055,-2.7246,16.2375,1486
19396,-10.0592,-0.7254,13.4255,1512
19401,-12.1326,3.1412,5.4696,1509
19406,5.2577,6.0908,7.2496,1507
19411,14.0372,-0.4812,15.5372,1518
19416,-8.0924,-1.7178,16.5559,1503
19421,-13.8612,1.4473,5.9532,1515
19426,0.249,6.1208,4.6088,1511
19431,12.6689,2.9425,15.925,1501
19436,-2.6205,-4.1061,17.0886,1524
19441,-12.451,0.2514,7.1934,1517
19446,-3.8295,6.2752,4.282,1511
19451,12.0883,4.6747,14.2,1513
19456,4.3934,-5.4923,16.6804,1513
19461,-9.7037,0.3352,8.9507,1529
19466,-8.9687,5.3917,3.9564,1513
19471,7.3478,5.0027,11.2001,1515
19476,9.7312,-3.7757,16.4027,1493
19481,-10.4639,-0.5375,11.9842,1523
19486,-11.4012,3.9061,4.9488,1519
19491,6.6942,5.8454,8.412,1523
19496,13.7128,-1.8352,15.5946,1514
19501,-9.1279,-0.9505,15.7299,1523
19506,-14.1952,1.9848,5.606,1513
19511,1.9597,5.8646,5.3247,1527
19516,13.0388,2.0698,16.0771,1503
19521,-5.053,-3.3974,16.9198,1509
19526,-12.7683,0.5171,6.8127,1519
19531,-1.6544,6.2728,4.4903,1511
19536,12.8748,4.1503,14.8273,1519
19541,1.0654,-5.1427,17.0994,1509
19546,-10.3465,0.1018,8.0457,1523
19551,-7.0641,5.7593,3.8188,1512
19556,8.6993,5.1128,12.5684,1509
19561,7.2484,-4.4987,16.4003,1519
19566,-10.8074,-0.4286,10.6829,1507
19571,-10.3825,4.5394,4.719,1515
19576,8.2229,5.9747,9.8402,1513
19581,12.4498,-3.1448,15.3971,1507
19586,-9.6355,-0.2322,14.4514,1523
19591,-13.6015,2.7138,5.3355,1515
19596,3.4129,5.6,6.3063,1511
19601,13.0759,0.753,15.9645,1509
19606,-7.337,-2.381,16.2566,1509
19611,-12.5624,1.0846,6.5493,1511
19616,0.4956,6.3339,5.0733,1507
19621,13.5416,3.0155,15.1577,1501
19626,-2.1368,-4.3036,17.3005,1519
19631,-11.4431,0.3124,7.3897,1517
19636,-5.1104,6.2249,3.9037,1513
19641,10.2903,4.713,13.6793,1512
19646,4.5023,-4.8698,16.5236,1512
19651,-11.0828,-0.2107,9.6151,1531
19656,-8.9998,5.3893,4.555,1509
19661,9.5672,5.5893,11.2228,1510
19666,10.6374,-4.3838,15.5635,1512
19671,-9.8928,0.2801,12.6234,1515
19676,-12.3912,3.7409,4.9452,1513
19681,5.0051,5.3618,7.6339,1515
19686,12.8808,-0.8954,16.2435,1513
19691,-9.0728,-1.2893,15.1565,1519
19696,-12.5815,1.9968,6.0082,1515
19701,2.5726,6.1591,5.7317,1523
19706,14.1797,1.5682,15.6856,1509
19711,-4.9943,-3.286,17.2981,1513
19716,-12.6258,0.656,6.5685,1515
19721,-2.7809,6.2357,3.9995,1513
19726,11.236,4.0785,14.9374,1516
19731,1.7334,-4.9081,16.9318,1523
19736,-11.8286,-0.1425,8.3187,1523
19741,-6.8738,5.9089,4.2653,1512
19746,10.5524,5.3235,12.7096,1512
19751,8.6455,-5.1787,16.089,1528
19756,-9.5996,0.3543,11.0397,1511
19761,-11.5065,4.5705,4.4412,1515
19766,5.7892,5.1966,9.013,1517
19771,11.9207,-2.211,16.2842,1496
19776,-9.7384,-0.9984,13.8517,1528
19781,-12.4451,2.897,5.5605,1511
19786,4.5502,6.0693,6.8019,1517
19791,14.1354,0.0575,15.609,1513
19796,-7.2161,-2.302,16.7582,1509
19801,-13.4865,1.1971,6.1758,1523
19806,-0.735,6.2273,4.3946,1503
19811,12.3517,3.2118,15.6772,1525
19816,-1.415,-4.4113,16.8612,1523
19821,-12.0045,0.1844,7.7153,1513
19826,-4.8698,6.2956,4.3036,1527
19831,11.7771,4.7262,13.8588,1513
19836,5.5019,-5.4456,16.3225,1501
19841,-9.8055,0.4968,9.6594,1517
19846,-9.8617,5.4001,4.1803,1499
19851,7.1168,4.9009,10.6027,1516
19856,9.9982,-3.5446,16.1728,1502
19861,-10.3406,-0.4345,12.4858,1513
19866,-11.8166,3.7194,5.3103,1519
19871,6.3207,5.8909,8.1068,1517
19876,13.6134,-1.6005,15.4941,1507
19881,-8.7532,-1.0295,15.773,1509
19886,-13.6541,1.9561,5.8802,1507
19891,1.4676,5.9268,5.1858,1517
19896,13.0735,2.0518,15.9825,1511
19901,-4.3826,-3.3938,16.7618,1527
19906,-12.2966,0.5986,7.1539,1515
19911,-2.472,6.3279,4.4604,1498
19916,12.7216,4.0677,14.6633,1524
19921,2.0315,-5.1487,16.7534,1517
19926,-10.5381,0.2933,8.3797,1511
19931,-7.5681,5.7844,3.9229,1507
19936,8.758,4.8914,12.1398,1513
19941,8.1163,-4.3682,16.3787,1515
19946,-11.0445,-0.2346,10.9247,1509
19951,-10.6686,4.5203,4.792,1517
19956,7.683,5.7197,9.3015,1503
19961,13.1873,-2.8276,15.7335,1509
19966,-9.5553,-0.1927,14.6789,1541
19971,-13.9378,2.7964,5.3439,1511
19976,2.7545,5.551,5.8538,1519
19981,13.392,1.0044,16.5032,1511
19986,-6.4691,-2.7031,16.3404,1511
19991,-12.9754,1.3072,6.4488,1522
19996,-0.2119,6.2465,4.7645,1503
20001,13.5644,3.122,15.4857,1515
20006,-1.1887,-4.7118,17.2167,1528
20011,-11.4251,0.4549,7.3514,1531
20016,-5.5031,6.1351,3.8116,1523
20021,9.8474,4.6088,13.6086,1507
20026,5.618,-4.9943,16.7367,1509
20031,-11.4168,-0.1568,9.5181,1528
20036,-9.2476,5.3235,4.373,1511
20041,8.8741,5.5258,10.8601,1523
20046,11.6837,-4.1444,15.8855,1502
20051,-9.6019,0.1556,13.0831,1519
20056,-13.3345,3.6559,4.9057,1515
20061,4.0187,5.3882,7.1635,1516
20066,12.9395,-0.5387,16.362,1504
20071,-8.0661,-1.9525,15.3804,1503
20076,-12.8102,1.974,6.0585,1501
20081,2.0961,6.1998,5.6204,1523
20086,13.9714,1.7669,15.621,1515
20091,-4.3682,-3.6955,17.2143,1541
20096,-12.7671,0.6668,6.76,1508
20101,-3.2465,6.3746,3.9325,1506
20106,11.3629,4.0797,14.71,1529
20111,2.3104,-4.9763,16.7319,1510
20116,-11.6885,-0.006,8.5748,1519
20121,-7.5872,5.8933,4.306,1511
20126,10.2759,5.1739,12.4235,1511
20131,8.9866,-5.0482,15.8736,1515
20136,-9.7061,0.4609,11.3832,1507
20141,-11.8477,4.5442,4.6232,1528
20146,5.6503,5.0709,8.922,1503
20151,12.0464,-2.2015,16.2255,1497
20156,-9.6355,-0.9122,14.1258,1532
20161,-12.6055,2.8539,5.6671,1502
20166,4.0905,6.0394,6.5912,1518
20171,14.2539,0.1664,15.6557,1517
20176,-6.8642,-2.4014,16.6984,1501
20181,-13.1346,1.1935,6.2728,1517
20186,-1.0642,6.262,4.306,1510
20191,12.1817,3.1759,15.6856,1523
20196,-0.7925,-4.5657,16.7271,1509
20201,-11.959,0.3148,7.8063,1523
20206,-5.2277,6.2752,4.2401,1511
20211,11.5616,4.7046,13.781,1513
20216,6.0585,-5.43,16.1309,1508
20221,-9.8509,0.5794,9.8462,1526
20226,-10.0736,5.3199,4.2497,1500
20231,7.1168,4.9213,10.4232,1519
20236,10.8146,-3.3603,16.2423,1501
20241,-10.4052,-0.3232,12.6785,1509
20246,-11.8956,3.7421,5.1571,1511
20251,5.8131,5.764,7.8075,1519
20256,14.273,-1.227,15.8185,1502
20261,-8.7149,-1.1983,16.0854,1509
20266,-14.0061,1.8962,5.7293,1509
20271,1.142,5.9484,4.8566,1523
20276,13.0209,2.2757,16.3297,1515
20281,-3.8499,-3.7373,16.8731,1523
20286,-13.0711,0.6871,6.8833,1523
20291,-2.5534,6.2165,4.2976,1511
20296,12.6522,4.2772,14.8584,1525
20301,2.8299,-5.4145,16.9952,1507
20306,-10.0185,0.4142,8.3558,1529
20311,-7.8973,5.7401,3.7505,1507
20316,8.0373,4.8782,12.0811,1503
20321,8.8837,-4.294,16.5559,1513
20326,-10.6614,-0.3867,11.1426,1508
20331,-10.7751,4.5418,4.5274,1516
20336,7.1407,5.6946,9.2644,1516
20341,13.5847,-2.6839,15.8736,1503
20346,-9.4571,-0.4992,14.8057,1529
20351,-14.4658,2.6456,5.2445,1514
20356,2.8766,5.7736,5.7473,1519
20361,13.3405,1.1181,16.423,1483
20366,-6.2082,-2.9844,16.3811,1502
20371,-13.5488,1.2402,6.5625,1503
20376,-0.4453,6.1531,4.6735,1501
20381,13.6242,3.4417,15.427,1517
20386,-0.9014,-4.8327,17.4561,1511
20391,-10.8014,0.2263,7.3382,1519
20396,-5.6946,6.0849,3.6751,1517
20401,9.3841,4.725,13.3788,1515
20406,5.7186,-4.8507,16.5715,1515
20411,-10.993,-0.3112,9.7241,1525
20416,-9.493,5.2457,4.5274,1501
20421,8.8729,5.6563,10.8397,1529
20426,11.6179,-4.0917,15.6066,1502
20431,-9.73,0.0862,13.2375,1518
20436,-13.3668,3.5207,5.0194,1516
20441,4.3766,5.521,7.2329,1511
20446,12.9766,-0.5136,16.1238,1517
20451,-8.1954,-1.7921,15.5767,1517
20456,-12.9275,1.7992,6.0885,1513
20461,1.9178,6.2225,5.5162,1527
20466,14.0181,1.8471,15.5192,1513
20471,-4.2353,-3.6799,17.1592,1531
20476,-12.3014,0.656,6.8055,1517
20481,-3.3878,6.3973,3.9456,1509
20486,11.133,4.0534,14.8093,1518
20491,2.4624,-4.9273,16.745,1517
20496,-11.7076,0.0886,8.5629,1546
20501,-7.501,5.8814,4.1719,1502
20506,10.2771,5.2014,12.3505,1509
20511,9.2668,-5.0554,15.9262,1516
20516,-9.6558,0.6057,11.4347,1507
20521,-12.0069,4.634,4.5394,1527
20526,5.3893,5.0218,8.7317,1515
20531,12.2356,-2.1308,16.3488,1497
20536,-9.4595,-0.9637,14.1114,1527
20541,-12.6689,2.958,5.5378,1499
20546,4.1108,5.964,6.6008,1512
20551,14.3963,0.2095,15.8987,1527
20556,-6.9815,-2.3834,16.7427,1509
20561,-13.4614,1.2977,6.1483,1509
20566,-0.8344,6.2237,4.2329,1511
20571,12.3361,3.1843,15.7742,1507
20576,-1.0032,-4.5442,16.9294,1510
20581,-12.5061,0.2873,7.5681,1518
20586,-4.9392,6.213,4.1611,1523
20591,11.6227,4.8291,13.9702,1519
20596,5.9807,-5.6096,16.3895,1507
20601,-9.5624,0.516,9.584,1519
20606,-10.0341,5.3247,4.0055,1515
20611,6.7732,4.9464,10.5453,1515
20616,10.6135,-3.4536,16.3608,1509
20621,-10.1394,-0.5495,12.5324,1513
20626,-11.9315,3.8726,5.0111,1527
20631,5.9783,5.8359,8.078,1513
20636,14.0516,-1.4389,15.6497,1512
20641,-8.8322,-1.2282,15.8783,1516
20646,-14.0875,1.9597,5.6,1517
20651,1.4449,6.0166,5.0434,1527
20656,13.0604,2.0662,16.1537,1479
20661,-4.3347,-3.6583,16.866,1527
20666,-12.9215,0.7673,6.8067,1507
20671,-2.4014,6.359,4.4269,1513
20676,12.7755,4.0618,14.8812,1516
20681,2.0782,-5.3606,16.9881,1499
20686,-10.0533,0.3831,8.2624,1523
20691,-7.6782,5.9185,3.7972,1506
20696,8.1475,4.8255,12.4187,1515
20701,8.0397,-4.4819,16.4087,1509
20706,-10.647,-0.2837,10.9176,1519
20711,-10.5896,4.6735,4.6807,1525
20716,7.7668,5.7437,9.6486,1515
20721,12.967,-3.0119,15.6006,1503
20726,-9.6319,-0.2933,14.4993,1543
20731,-13.9965,2.8695,5.2194,1515
20736,3.377,5.679,6.1734,1509
20741,13.4806,0.7362,16.2878,1512
20746,-7.0354,-2.4804,16.4015,1514
20751,-13.3046,1.3024,6.2788,1517
20756,0.2071,6.2153,4.8818,1497
20761,13.8133,3.0885,15.6162,1509
20766,-1.7298,-4.5837,17.2909,1519
20771,-10.9319,0.3364,7.2269,1511
20776,-5.0578,6.0813,3.6176,1511
20781,9.4715,4.6076,13.878,1507
20786,5.0733,-4.9775,16.6541,1507
20791,-11.212,-0.2753,9.4475,1531
20796,-8.7664,5.4133,4.2365,1507
20801,9.2201,5.691,11.3186,1519
20806,11.169,-4.3826,15.7945,1512
20811,-9.681,0.2155,12.6773,1511
20816,-13.1514,3.8211,4.7681,1527
20821,4.9883,5.4959,7.5142,1515
20826,13.2375,-0.8703,16.283,1499
20831,-8.7257,-1.5167,15.366,1503
20836,-13.3154,2.1009,5.8179,1519
20841,2.3774,6.0525,5.703,1533
20846,14.376,1.6855,15.8041,1511
20851,-4.9644,-3.5087,17.2119,1541
20856,-12.2308,0.6189,6.6283,1519
20861,-2.6217,6.2501,3.7804,1459
20866,11.0636,4.1408,15.0332,1541
20871,1.5909,-5.0159,16.8001,1513
20876,-11.8154,-0.0335,8.4551,1526
20881,-6.7481,5.9436,4.2102,1498
20886,10.6793,5.3522,12.7587,1515
20891,8.2839,-5.3044,16.0986,1513
20896,-9.8198,0.3938,10.8146,1513
20901,-11.2312,4.7034,4.4281,1511
20906,6.4655,5.1906,9.2823,1517
20911,11.8896,-2.5031,16.2363,1501
20916,-10.0281,-0.729,13.7571,1525
20921,-12.542,3.0694,5.4696,1513
20926,4.6615,5.9927,6.948,1507
20931,14.3449,-0.1664,15.5934,1513
20936,-7.6136,-2.0315,16.6325,1509
20941,-13.4698,1.3312,6.049,1525
20946,-0.1305,6.183,4.464,1506
20951,12.3625,3.0107,15.8544,1519
20956,-1.9549,-4.3012,16.8947,1514
20961,-12.3613,0.3424,7.4316,1519
20966,-4.0833,6.2513,4.2162,1511
20971,11.9004,4.6771,14.1844,1510
20976,4.7884,-5.5138,16.5727,1501
20981,-9.9539,0.4046,9.171,1509
20986,-9.1782,5.4672,3.9851,1503
20991,7.671,4.9261,11.224,1511
20996,9.9802,-3.8846,16.1884,1501
21001,-10.6961,-0.2885,12.0644,1517
21006,-11.6634,4.051,4.9237,1531
21011,6.505,5.7868,8.4551,1513
21016,13.9426,-1.9345,15.6497,1511
21021,-9.1147,-0.8164,15.5659,1518
21026,-13.8828,2.2051,5.5749,1511
21031,1.8136,5.9292,5.2864,1529
21036,13.0628,1.6604,16.2973,1501
21041,-4.9273,-3.3459,16.5679,1525
21046,-12.724,0.9469,6.7528,1528
21051,-1.5778,6.3207,4.5047,1507
21056,12.9634,3.7062,15.1912,1531
21061,0.9194,-5.1523,16.9234,1533
21066,-10.8757,0.4142,7.932,1523
21071,-6.8618,5.9903,3.7852,1514
21076,9.3697,4.8004,12.9083,1511
21081,7.3155,-4.8734,16.3967,1517
21086,-11.0014,-0.0144,10.3633,1517
21091,-10.3094,4.9404,4.531,1517
21096,8.1092,5.6192,10.1789,1514
21101,12.6091,-3.5446,15.7347,1510
21106,-9.7252,0.0455,13.8505,1525
21111,-13.6218,3.2453,5.0949,1507
21116,3.6559,5.5785,6.5841,1517
21121,13.3213,-0.0072,16.4853,1517
21126,-7.4053,-2.2458,15.8556,1511
21131,-13.198,1.7968,6.1411,1513
21136,0.9445,6.2596,5.1775,1511
21141,13.9642,2.3858,15.7323,1510
21146,-2.9604,-4.3012,17.2478,1527
21151,-11.6873,0.6081,6.8402,1511
21156,-4.2222,6.2872,3.7589,1517
21161,10.5225,4.1994,14.5711,1511
21166,4.027,-5.132,16.8456,1500
21171,-11.7112,-0.0539,8.8059,1532
21176,-7.9895,5.6898,4.1168,1511
21181,9.5972,5.4217,11.8178,1506
21186,10.7141,-4.7872,16.0555,1513
21191,-9.487,0.407,11.9291,1517
21196,-13.0041,4.1503,4.5059,1519
21201,5.2122,5.2876,8.017,1509
21206,13.0221,-1.2641,16.5475,1511
21211,-8.9423,-1.4605,14.941,1519
21216,-13.3752,2.4409,5.4169,1512
21221,3.1783,5.9963,6.0633,1527
21226,14.6777,1.324,15.8496,1501
21231,-6.1387,-3.1915,17.504,1513
21236,-13.0149,0.6895,6.1854,1519
21241,-1.6951,6.1268,3.8463,1509
21246,11.5592,4.0259,15.4833,1519
21251,0.346,-4.8375,17.3221,1515
21256,-12.3972,-0.2298,7.7297,1517
21261,-5.8359,5.9879,3.9816,1505
21266,11.0157,5.4815,13.2555,1513
21271,7.349,-5.4277,16.4889,1543
21276,-9.2524,0.2167,10.228,1511
21281,-10.987,4.853,4.1252,1517
21286,6.4739,5.3582,9.8773,1515
21291,11.3389,-2.7438,16.2949,1499
21296,-9.8378,-0.8667,13.3632,1529
21301,-12.3828,3.2274,5.0769,1507
21306,5.3091,6.0082,7.3777,1519
21311,14.218,-0.5088,15.6114,1506
21316,-8.3282,-1.8364,16.6241,1515
21321,-13.9498,1.3491,5.8873,1511
21326,0.5686,6.0825,4.6244,1515
21331,12.6749,2.9281,15.8939,1501
21336,-3.1687,-4.1551,17.1533,1531
21341,-12.7874,0.2705,7.0701,1515
21346,-3.3255,6.2489,4.2784,1524
21351,12.2128,4.7477,14.5125,1526
21356,3.5279,-5.5186,16.8648,1513
21361,-9.821,0.2897,8.6419,1532
21366,-8.5964,5.5761,3.8427,1499
21371,7.9104,5.1128,11.6813,1511
21376,9.2285,-4.1073,16.3021,1511
21381,-10.5453,-0.3424,11.5891,1507
21386,-11.297,4.3096,4.6974,1533
21391,7.0162,5.8658,8.9555,1511
21396,13.6709,-2.2781,15.6138,1496
21401,-9.5241,-0.583,15.1517,1515
21406,-14.1797,2.5007,5.3594,1517
21411,2.6743,5.8287,5.6491,1528
21416,13.4003,1.33,16.3596,1511
21421,-6.0561,-3.0454,16.6912,1513
21426,-13.3118,1.0642,6.4129,1523
21431,-0.6464,6.2477,4.6208,1507
21436,13.4638,3.5733,15.3923,1529
21441,-0.3843,-4.9859,17.3604,1512
21446,-10.7775,0.3148,7.3765,1516
21451,-5.843,5.9999,3.5781,1513
21456,9.3685,4.8495,13.4758,1531
21461,6.2369,-4.9979,16.7355,1519
21466,-11.0445,-0.3472,9.8174,1519
21471,-9.4056,5.0781,4.3359,1502
21476,8.6048,5.7437,10.7188,1525
21481,12.0357,-3.96,15.773,1497
21486,-9.6582,-0.0503,13.289,1519
21491,-13.7236,3.3399,4.9356,1517
21496,4.4388,5.6659,7.0832,1511
21501,13.1837,-0.2023,16.1585,1512
21506,-8.108,-2.0087,15.8017,1503
21511,-13.4075,1.6544,5.94,1509
21516,1.9656,6.1914,5.4312,1511
21521,14.0576,2.3272,15.4773,1507
21526,-4.3371,-3.8415,17.5663,1533
21531,-12.0237,0.3244,6.7433,1508
21536,-3.2621,6.1758,3.8211,1506
21541,10.8697,4.531,14.6453,1526
21546,2.2948,-5.0266,16.9342,1509
21551,-11.5616,-0.2765,8.5066,1541
21556,-7.3562,5.7018,4.203,1499
21561,10.2915,5.6575,12.4271,1519
21566,9.0549,-5.0218,16.0471,1515
21571,-9.4954,0.2514,11.3473,1511
21576,-12.0117,4.3383,4.4867,1519
21581,5.8383,5.3618,8.8585,1511
21586,12.2416,-1.974,16.1465,1501
21591,-9.5852,-1.002,14.3568,1526
21596,-12.8473,2.6396,5.3953,1511
21601,4.1659,6.0094,6.6762,1527
21606,14.455,0.4633,15.6485,1515
21611,-7.3801,-2.4277,17.1832,1507
21616,-13.4434,0.9529,6.0597,1519
21621,-0.5399,6.0789,4.2066,1511
21626,12.2523,3.5674,15.6784,1517
21631,-1.3539,-4.4867,17.1976,1527
21636,-12.5121,0.0347,7.4819,1523
21641,-4.6436,6.0777,4.1264,1515
21646,11.7483,5.1559,13.8983,1501
21651,5.6072,-5.454,16.6433,1510
21656,-9.4858,0.2969,9.505,1514
21661,-9.7432,5.1499,3.8942,1510
21666,7.0114,5.1918,10.665,1516
21671,10.4088,-3.3519,16.3919,1511
21676,-10.2759,-0.5171,12.4965,1525
21681,-11.7771,3.7302,4.9105,1523
21686,6.189,5.8275,8.0182,1505
21691,14.1186,-1.4162,15.7826,1501
21696,-9.1183,-1.0499,15.9119,1501
21701,-14.4167,1.9716,5.5569,1509
21706,1.7238,5.8251,4.9799,1517
21711,13.2794,2.2003,16.4111,1507
21716,-4.7597,-3.474,17.0479,1525
21721,-13.3573,0.6835,6.6511,1517
21726,-1.9201,6.1603,4.2976,1501
21731,12.9993,4.1288,15.0224,1529
21736,1.4269,-5.223,17.2095,1509
21741,-10.1873,0.3436,7.9499,1515
21746,-7.185,5.8323,3.5338,1493
21751,8.424,4.8171,12.6569,1501
21756,7.6112,-4.5622,16.6984,1511
21761,-10.8374,-0.1365,10.4567,1512
21766,-10.3382,4.8614,4.3694,1516
21771,7.9499,5.6084,9.9132,1519
21776,12.8545,-3.2729,15.931,1497
21781,-9.754,0.0024,14.0324,1527
21786,-13.9606,3.1783,4.9931,1509
21791,3.6081,5.5809,6.3291,1519
21796,13.5524,0.3436,16.6876,1509
21801,-7.5381,-2.3008,16.1142,1501
21806,-13.3225,1.6149,5.9616,1519
21811,0.8871,6.1615,4.9979,1510
21816,14.0073,2.7581,15.8269,1499
21821,-2.879,-4.2964,17.6369,1515
21826,-11.631,0.504,6.7289,1517
21831,-4.1707,6.1292,3.5231,1507
21836,10.1251,4.5083,14.4155,1514
21841,4.0342,-5.0949,17.0575,1517
21846,-11.7352,-0.17,8.7329,1517
21851,-7.9906,5.6084,4.0498,1513
21856,9.6379,5.6228,11.8561,1513
21861,10.5943,-4.8052,16.1321,1512
21866,-9.5433,0.3196,11.9279,1519
21871,-12.785,4.1037,4.4353,1515
21876,5.0422,5.3319,8.0553,1511
21881,12.7599,-1.4006,16.6098,1509
21886,-9.0429,-1.4246,14.801,1519
21891,-12.9299,2.5019,5.4684,1502
21896,3.4991,6.0549,6.1052,1524
21901,14.4131,0.9708,15.9382,1501
21906,-6.4224,-2.8778,17.2418,1517
21911,-13.544,0.9026,6.1064,1524
21916,-1.3898,6.1962,3.9193,1513
21921,12.0991,3.7218,15.6413,1527
21926,-0.31,-4.6914,17.2598,1511
21931,-12.4307,0.0587,7.598,1515
21936,-5.4839,6.0932,4.0043,1517
21941,11.4084,5.1392,13.6134,1507
21946,6.6906,-5.5988,16.5463,1519
21951,-9.5624,0.4238,9.8737,1517
21956,-10.3346,5.1092,3.9612,1512
21961,6.3674,5.1487,10.1335,1527
21966,10.7667,-3.1963,16.5822,1507
21971,-10.2268,-0.5866,12.8114,1518
21976,-11.9531,3.5889,5.029,1515
21981,5.9364,5.9161,7.61,1523
21986,14.1246,-1.1672,15.8855,1507
21991,-8.8562,-1.3479,16.1656,1511
21996,-14.1892,1.8675,5.6084,1523
22001,1.154,5.9436,4.7465,1509
22006,13.1669,2.3415,16.3919,1515
22011,-4.2713,-3.7362,17.0288,1532
22016,-12.8126,0.6021,6.7995,1503
22021,-2.4768,6.3518,4.2198,1507
22026,12.803,4.1887,14.9674,1519
22031,2.211,-5.3822,17.1173,1511
22036,-10.2639,0.3819,8.0469,1527
22041,-7.422,5.8754,3.5494,1503
22046,8.2564,4.9153,12.3373,1511
22051,8.0337,-4.4748,16.8145,1520
22056,-11.1594,-0.316,10.5249,1512
22061,-10.3537,4.7429,4.4748,1528
22066,7.9918,5.7401,9.5732,1510
22071,13.1597,-3.1184,16.0447,1497
22076,-9.6702,-0.2514,14.4095,1530
22081,-13.9115,2.9592,4.9333,1509
22086,3.2406,5.4624,5.9831,1515
22091,13.4219,0.7817,16.8037,1503
22096,-7.3969,-2.5642,16.3141,1511
22101,-12.7898,1.3336,6.1567,1514
22106,0.8835,6.2549,4.8171,1513
22111,13.9163,2.988,15.8281,1508
22116,-2.563,-4.4568,17.7865,1519
22121,-12.0213,0.3747,6.778,1527
22126,-4.3766,6.2165,3.3758,1517
22131,10.2185,4.6843,14.127,1503
22136,4.1875,-5.0254,17.2287,1515
22141,-11.6418,-0.2873,8.9328,1526
22146,-8.2432,5.5474,4.0917,1497
22151,9.7791,5.624,11.5879,1519
22156,10.5117,-4.695,16.2423,1501
22161,-9.8043,0.2849,11.9542,1513
22166,-12.2296,4.057,4.3275,1525
22171,4.859,5.1787,7.8099,1509
22176,12.8688,-1.2605,16.8408,1497
22181,-9.6438,-1.3467,14.8022,1510
22186,-12.6318,2.3284,5.4971,1507
22191,3.4524,6.1507,5.9412,1533
22196,14.3963,0.9732,16.0723,1505
22201,-6.4057,-2.9676,17.3867,1525
22206,-13.0388,0.8847,6.0394,1515
22211,-1.7011,6.2489,3.7577,1508
22216,11.801,3.8068,15.676,1519
22221,-0.0419,-4.798,17.1353,1517
22226,-11.6622,0.0383,7.7847,1507
22231,-5.7138,6.2022,3.9648,1517
22236,11.2887,5.0721,13.6314,1495
22241,6.6583,-5.4899,16.5344,1518
22246,-10.2651,0.4118,9.7767,1509
22251,-10.1514,5.114,4.0474,1515
22256,7.2568,5.0254,10.0808,1517
22261,11.1127,-3.2406,16.6229,1507
22266,-10.9307,-0.4046,12.6893,1523
22271,-11.9435,3.5267,5.0542,1511
22276,5.8885,5.8981,7.4148,1517
22281,14.2072,-1.1624,16.1285,1501
22286,-8.7137,-1.3228,16.1908,1511
22291,-13.8062,1.8735,5.5893,1516
22296,0.6907,5.9664,4.5861,1517
22301,12.9658,2.2649,16.7271,1497
22306,-4.0031,-3.7134,16.8432,1525
22311,-12.0716,0.6668,6.8857,1519
22316,-2.5845,6.4631,4.0953,1497
22321,12.6534,3.9397,15.1744,1513
22326,2.3691,-5.4049,17.1437,1510
22331,-10.5884,0.5315,8.0086,1531
22336,-7.7237,6.0346,3.5578,1499
22341,8.5605,4.5741,12.2775,1503
22346,8.1834,-4.5466,16.8528,1513
22351,-11.0744,-0.2131,10.6003,1507
22356,-10.8254,4.7537,4.5741,1526
22361,7.9499,5.624,9.5122,1509
22366,13.0209,-3.158,16.0807,1501
22371,-9.6654,-0.2322,14.3329,1519
22376,-13.5572,2.9509,5.035,1511
22381,2.8204,5.4971,5.8155,1529
22386,13.1873,0.6105,17.0,1515
22391,-7.2496,-2.4122,16.0651,1514
22396,-12.1183,1.318,6.2956,1519
22401,0.589,6.4907,4.5993,1509
22406,13.6158,2.7426,15.8951,1507
22411,-2.2565,-4.3778,17.5842,1515
22416,-12.2547,0.4357,6.8881,1507
22421,-4.8339,6.2836,3.4488,1515
22426,10.4315,4.4412,14.1342,1509
22431,4.5645,-4.9919,17.1185,1528
22436,-11.3988,-0.164,8.9986,1527
22441,-8.8023,5.5534,4.1839,1501
22446,9.6893,5.4145,11.4072,1518
22451,10.7739,-4.5358,16.3033,1498
22456,-9.7324,0.31,12.1602,1505
22461,-12.3744,3.9983,4.4101,1528
22466,4.5873,5.041,7.5717,1513
22471,12.6689,-1.1468,17.097,1512
22476,-9.3793,-1.3946,14.8668,1509
22481,-12.5157,2.1907,5.545,1523
22486,3.2549,6.1256,5.6743,1533
22491,14.2144,1.0247,16.3165,1507
22496,-6.0645,-2.9748,17.2969,1531
22501,-12.8485,0.9218,6.1447,1519
22506,-2.0423,6.2417,3.6057,1514
22511,11.8669,3.6236,15.9214,1514
22516,0.4274,-4.6268,17.0467,1513
22521,-11.5233,0.1532,7.8925,1525
22526,-5.8838,6.2118,3.7769,1511
22531,11.2839,4.7932,13.5368,1513
22536,7.0701,-5.2361,16.6158,1513
22541,-10.0197,0.5016,9.918,1519
22546,-10.2388,5.187,3.8199,1509
22551,6.9587,4.6819,9.742,1513
22556,11.1582,-2.9197,16.9797,1493
22561,-11.0301,-0.5088,12.6438,1523
22566,-12.0297,3.5602,5.0015,1503
22571,5.946,5.8407,7.1754,1514
22576,14.3688,-0.9768,16.4901,1505
22581,-8.6993,-1.2198,16.2961,1509
22586,-14.0169,1.9094,5.4121,1507
22591,0.6309,5.8466,4.2425,1508
22596,13.0149,2.4828,16.9797,1507
22601,-3.796,-3.6236,16.9653,1524
22606,-12.1913,0.6237,6.8378,1519
22611,-2.3571,6.4069,3.9804,1513
22616,12.6462,4.0378,15.2846,1519
22621,2.1009,-5.3391,17.4082,1513
22626,-11.0971,0.4118,7.8087,1541
22631,-7.3263,5.9532,3.3339,1497
22636,8.6945,4.6735,12.3589,1501
22641,8.2241,-4.5681,17.1976,1525
22646,-11.1989,-0.2143,10.422,1507
22651,-10.6937,4.8459,4.3347,1523
22656,7.8889,5.4839,9.5146,1501
22661,12.967,-3.2825,16.3979,1502
22666,-9.5433,-0.2167,14.0995,1525
22671,-13.696,3.0885,4.8674,1507
22676,2.9078,5.4528,5.867,1522
22681,13.2758,0.2861,17.3137,1503
22686,-7.4077,-2.2721,15.9143,1511
22691,-12.463,1.5706,6.0944,1516
22696,0.9445,6.3446,4.628,1502
22701,13.8588,2.4313,16.1812,1515
22706,-3.0933,-4.1671,17.5878,1523
22711,-12.2679,0.6177,6.5948,1513
22716,-4.2437,6.3434,3.316,1513
22721,10.7296,4.1623,14.6908,1516
22726,3.65,-5.0182,17.1269,1510
22731,-11.6083,-0.0299,8.5066,1523
22736,-8.0852,5.7521,3.9025,1509
22741,10.0018,5.2672,11.989,1514
22746,10.1502,-4.8207,16.4194,1513
22751,-9.6271,0.4872,11.5664,1515
22756,-12.1781,4.3132,4.1468,1513
22761,4.7142,5.0099,8.1187,1512
22766,12.5277,-1.5909,17.1389,1506
22771,-9.4739,-1.1768,14.3329,1512
22776,-12.5133,2.6492,5.3079,1513
22781,3.9385,6.0705,6.0992,1525
22786,14.4346,0.5231,16.338,1511
22791,-7.039,-2.5809,17.1904,1513
22796,-13.708,1.1851,5.9256,1516
22801,-1.1001,6.2261,3.802,1508
22806,12.3529,3.3938,16.2435,1519
22811,-1.0008,-4.5933,17.3089,1516
22816,-12.2368,0.2227,7.3167,1519
22821,-5.0542,6.2764,3.8475,1513
22826,11.6179,4.8231,14.0959,1497
22831,5.9664,-5.5869,16.8265,1526
22836,-9.6283,0.5423,9.3314,1515
22841,-9.8043,5.3139,3.6607,1499
22846,6.6188,4.7848,10.495,1519
22851,10.3944,-3.5195,17.024,1503
22856,-10.4435,-0.4848,12.1194,1507
22861,-11.7567,3.887,4.7441,1511
22866,6.3003,5.7664,7.9691,1511
22871,14.0731,-1.6819,16.3165,1501
22876,-9.2201,-1.0235,15.7622,1503
22881,-14.0947,2.2206,5.2948,1516
22886,1.549,5.7976,4.7968,1499
22891,13.3309,1.8567,17.0012,1507
22896,-5.1404,-3.3734,16.9486,1529
22901,-12.5576,0.8092,6.5218,1511
22906,-1.6735,6.3913,4.1539,1509
22911,13.1262,3.8283,15.5408,1519
22916,1.0546,-5.1775,17.4992,1499
22921,-10.55,0.4417,7.5142,1529
22926,-6.7744,6.0645,3.2645,1512
22931,8.7448,4.6076,12.9047,1512
22936,7.1814,-4.6052,17.158,1513
22941,-11.0816,-0.2107,10.0245,1515
22946,-10.0856,5.0111,4.203,1513
22951,8.4599,5.5605,10.0461,1518
22956,12.5875,-3.5063,16.2171,1509
22961,-9.8067,-0.0024,13.6481,1541
22966,-13.5584,3.2848,4.6352,1508
22971,3.5961,5.3223,6.3686,1511
22976,13.4351,0.2179,17.0778,1511
22981,-8.1547,-2.1668,15.9909,1517
22986,-12.7994,1.6077,5.8143,1517
22991,1.5814,6.2884,4.9153,1525
22996,14.103,2.3451,16.1549,1513
23001,-3.7816,-4.0558,17.8117,1525
23006,-12.0847,0.5327,6.4189,1523
23011,-3.6536,6.3135,3.3184,1517
23016,10.6961,4.385,14.9123,1509
23021,2.9652,-5.029,17.2478,1516
23026,-11.4048,-0.1437,8.5102,1523
23031,-7.5717,5.8622,3.8858,1503
23036,10.2316,5.3893,12.39,1503
23041,9.4367,-5.047,16.4338,1506
23046,-9.7815,0.395,11.1869,1517
23051,-11.5796,4.4233,4.0701,1529
23056,5.7209,5.041,8.4611,1517
23061,12.4941,-1.9573,16.9845,1508
23066,-10.2771,-0.9349,14.0767,1528
23071,-12.3948,2.6971,5.2744,1509
23076,4.3407,6.092,6.28,1531
23081,14.6154,0.3436,16.344,1495
23086,-7.416,-2.3918,17.2586,1511
23091,-13.4877,1.166,5.7521,1519
23096,-0.8116,6.1627,3.7733,1507
23101,12.3517,3.5039,16.2471,1531
23106,-1.4281,-4.5681,17.3376,1516
23111,-12.0416,0.1101,7.2796,1510
23116,-4.3922,6.3315,3.8235,1519
23121,11.8238,4.9728,14.2251,1501
23126,5.0542,-5.5881,17.0587,1518
23131,-10.2687,0.255,8.8226,1518
23136,-8.9723,5.381,3.5781,1503
23141,7.7261,5.1008,10.829,1515
23146,10.2855,-3.7421,16.9246,1508
23151,-10.8517,-0.431,11.7747,1512
23156,-11.4874,3.8475,4.7178,1515
23161,6.6355,5.8311,8.108,1513
23166,14.0336,-1.7394,16.2028,1523
23171,-9.2763,-1.0678,15.6461,1515
23176,-14.1641,2.1392,5.2541,1511
23181,1.7298,5.7916,4.9452,1527
23186,13.222,1.9106,16.8336,1509
23191,-5.533,-3.4297,16.9282,1544
23196,-12.5301,0.6979,6.4691,1523
23201,-1.063,6.444,4.2018,1517
23206,13.2196,3.7577,15.5456,1528
23211,0.0491,-5.0889,17.6728,1500
23216,-11.1115,0.2682,7.2927,1511
23221,-6.2656,6.0585,3.3208,1515
23226,9.3134,4.8435,13.2004,1497
23231,6.6104,-4.7381,17.1197,1517
23236,-11.309,-0.2765,9.7097,1519
23241,-9.7217,5.0985,4.1503,1515
23246,8.7185,5.6683,10.3609,1515
23251,12.2212,-3.7996,16.2195,1501
23256,-9.7145,0.0347,13.3058,1533
23261,-13.4446,3.3938,4.5693,1525
23266,3.7182,5.3941,6.7193,1519
23271,13.2938,-0.073,16.9629,1513
23276,-8.3977,-2.0303,15.7706,1507
23281,-12.7563,1.7166,5.7772,1508
23286,2.0877,6.2764,5.1427,1503
23291,14.1581,2.1272,16.1154,1505
23296,-4.6352,-3.7589,17.8069,1513
23301,-12.5444,0.5207,6.3434,1511
23306,-3.0694,6.2405,3.395,1515
23311,11.1271,4.3826,15.1768,1512
23316,2.0901,-5.0601,17.2538,1511
23321,-11.7112,-0.1784,8.1379,1532
23326,-7.0665,5.8658,3.8607,1507
23331,10.55,5.4827,12.7767,1525
23336,8.7879,-5.1906,16.4146,1507
23341,-9.5744,0.3891,10.7823,1515
23346,-11.4694,4.5334,4.0666,1519
23351,5.5677,5.138,8.9938,1513
23356,11.9997,-2.326,16.8588,1494
23361,-9.8845,-0.8272,13.7559,1533
23366,-12.4463,3.0107,5.1655,1513
23371,4.7405,5.9664,6.6978,1525
23376,14.4107,-0.0563,16.2399,1500
23381,-8.0721,-2.0051,16.9294,1515
23386,-13.9175,1.4042,5.6575,1513
23391,-0.0156,6.1088,4.1144,1511
23396,12.7779,3.1149,16.4446,1509
23401,-2.5714,-4.2928,17.3783,1519
23406,-12.6976,0.3148,6.9468,1509
23411,-3.8068,6.274,3.8774,1513
23416,12.1446,4.7333,14.6477,1499
23421,4.3958,-5.6551,17.1449,1514
23426,-9.566,0.4106,8.5281,1525
23431,-8.9064,5.5557,3.4572,1501
23436,6.9935,4.8985,11.4156,1511
23441,9.578,-3.9672,16.9857,1509
23446,-10.2735,-0.3699,11.4658,1511
23451,-11.2396,4.2629,4.4472,1511
23456,6.9145,5.7186,8.752,1517
23461,13.8229,-2.2505,16.1908,1513
23466,-9.645,-0.6512,15.1613,1506
23471,-14.2599,2.5067,5.035,1511
23476,2.6217,5.8012,5.4791,1530
23481,13.7966,1.3874,16.836,1503
23486,-6.4368,-2.9748,17.0012,1519
23491,-13.5153,0.99,6.0837,1523
23496,-0.7135,6.3279,4.397,1508
23501,13.4566,3.6248,15.7263,1528
23506,-0.644,-4.9752,17.7303,1512
23511,-10.7368,0.3112,7.1611,1517
23516,-5.5952,6.0765,3.3339,1503
23521,9.2608,4.8111,13.7008,1501
23526,5.7581,-5.017,17.1389,1520
23531,-11.2707,-0.3077,9.4355,1490
23536,-9.171,5.3008,4.0378,1509
23541,9.0465,5.7126,10.8996,1516
23546,11.7244,-4.2126,16.2423,1496
23551,-9.6714,0.1389,12.9323,1527
23556,-13.2962,3.6643,4.5394,1511
23561,4.2246,5.3678,7.094,1517
23566,13.0628,-0.5806,16.945,1513
23571,-8.6694,-1.8184,15.4211,1511
23576,-12.7659,2.0111,5.6156,1511
23581,2.6695,6.189,5.3319,1519
23586,14.2826,1.7226,16.2315,1509
23591,-5.2385,-3.4728,17.7099,1523
23596,-13.1346,0.6979,6.2596,1523
23601,-2.5271,6.3135,3.4488,1509
23606,11.5939,4.2198,15.4187,1511
23611,1.2282,-4.9799,17.3328,1508
23616,-11.9291,-0.1413,8.0146,1515
23621,-6.5948,6.0513,3.8846,1511
23626,11.0133,5.3463,13.0688,1511
23631,8.0421,-5.3582,16.6277,1515
23636,-9.5397,0.4034,10.4267,1503
23641,-11.0038,4.8171,3.9385,1533
23646,5.7712,5.0518,9.2751,1501
23651,11.5424,-2.545,16.8791,1501
23656,-10.2077,-0.8296,13.3321,1505
23661,-12.1123,3.1651,5.1427,1509
23666,5.3714,6.0286,6.9659,1515
23671,14.3101,-0.48,16.1453,1509
23676,-8.4719,-1.8256,16.6601,1511
23681,-14.1976,1.5766,5.636,1515
23686,0.5136,6.0202,4.3227,1517
23691,12.9347,2.9664,16.4709,1507
23696,-3.3447,-4.1922,17.3723,1527
23701,-12.4654,0.3292,6.936,1515
23706,-3.2453,6.4224,3.9768,1523
23711,12.5348,4.5945,14.7219,1520
23716,3.3028,-5.6048,17.2143,1511
23721,-10.0533,0.3436,8.3294,1524
23726,-8.1511,5.7616,3.4979,1508
23731,7.9236,5.0075,11.7148,1519
23736,8.6347,-4.2796,16.9186,1497
23741,-10.8206,-0.4322,11.0397,1517
23746,-10.9367,4.4556,4.5957,1518
23751,7.6602,5.8442,9.0465,1511
23756,13.21,-2.7869,16.0615,1499
23761,-9.7109,-0.4405,14.704,1508
23766,-13.8145,2.6731,5.0757,1514
23771,2.9521,5.6515,5.6755,1530
23776,13.5009,1.0726,16.8085,1512
23781,-7.1503,-2.6959,16.678,1548
23786,-12.6186,1.1253,6.2106,1527
23791,0.2107,6.4129,4.5849,1517
23796,13.6781,3.1651,15.7646,1532
23801,-1.8148,-4.6711,17.6872,1512
23806,-11.3808,0.3591,6.9468,1523
23811,-5.102,6.2321,3.4165,1511
23816,10.1239,4.6843,13.9857,1511
23821,4.6723,-5.0302,17.0719,1517
23826,-11.2516,-0.255,9.1686,1513
23831,-8.8119,5.4923,4.1492,1519
23836,9.663,5.6539,11.4,1525
23841,10.8002,-4.5598,16.1369,1511
23846,-9.8282,0.2909,12.3397,1519
23851,-12.4666,3.8654,4.4772,1510
23856,4.8375,5.1703,7.5034,1519
23861,12.8617,-1.1337,16.8276,1523
23866,-9.5217,-1.3575,14.9578,1515
23871,-12.4618,2.1775,5.6886,1519
23876,3.2334,6.1794,5.6838,1513
23881,14.3508,1.1337,16.1812,1513
23886,-6.1316,-3.0131,17.4513,1524
23891,-13.1502,0.8487,6.1136,1517
23896,-1.9704,6.2584,3.6679,1507
23901,11.9195,3.9456,15.7359,1529
23906,0.2837,-4.8159,17.2299,1507
23911,-11.7567,0.0383,7.8135,1543
23916,-5.9209,6.2118,3.8607,1508
23921,11.315,5.1751,13.526,1509
23926,7.0162,-5.4971,16.6146,1525
23931,-9.7707,0.4788,9.8294,1516
23936,-10.3058,5.0769,3.8128,1507
23941,6.5805,4.9991,9.8593,1512
23946,11.1103,-3.0789,16.8995,1495
23951,-10.6015,-0.5782,12.7862,1527
23956,-12.0009,3.4776,4.968,1513
23961,5.843,5.9328,7.4065,1517
23966,14.2611,-1.0343,16.2016,1523
23971,-8.7903,-1.4676,16.2973,1501
23976,-14.0767,1.7801,5.5043,1517
23981,0.8535,6.0406,4.4592,1507
23986,13.0245,2.5223,16.7367,1503
23991,-4.0211,-3.8774,17.1688,1511
23996,-12.4594,0.5471,6.7672,1517
24001,-2.4672,6.4751,4.0043,1509
24006,12.6534,4.3132,15.1433,1508
24011,2.1081,-5.4731,17.3747,1513
24016,-10.4004,0.2969,7.8901,1528
24021,-7.4567,5.8407,3.4357,1513
24026,8.5054,4.9452,12.3637,1507
24031,8.0864,-4.5681,16.9773,1513
24036,-11.0696,-0.3472,10.471,1503
24041,-10.501,4.6783,4.3694,1519
24046,7.9871,5.8143,9.5277,1500
24051,13.1286,-3.1137,16.1752,1503
24056,-9.645,-0.2945,14.3544,1523
24061,-13.9283,2.9185,4.8495,1507
24066,3.1137,5.5869,5.861,1532
24071,13.4997,0.8643,16.9462,1500
24076,-7.3598,-2.6899,16.3931,1507
24081,-13.0544,1.2713,5.9532,1512
24086,0.8009,6.2824,4.6723,1515
24091,13.8995,3.0658,15.9741,1529
24096,-2.7916,-4.555,18.0439,1505
24101,-11.6921,0.3304,6.6283,1514
24106,-4.3431,6.128,3.2034,1517
24111,10.0197,4.8387,14.4155,1501
24116,4.1061,-5.1547,17.3209,1513
24121,-11.5281,-0.3352,8.7245,1495
24126,-8.0996,5.6048,3.8798,1513
24131,9.7073,5.8,11.8968,1528
24136,10.422,-4.786,16.3249,1502
24141,-9.5253,0.1856,11.7974,1509
24146,-12.4498,4.0079,4.1515,1525
24151,5.1044,5.3115,7.9978,1519
24156,12.7024,-1.397,16.8456,1519
24161,-9.505,-1.4054,14.7998,1503
24166,-12.8066,2.393,5.3247,1509
24171,3.7541,6.1675,6.0035,1524
24176,14.4849,0.911,16.1824,1509
24181,-6.8857,-2.8479,17.3867,1541
24186,-13.3453,0.9553,5.9328,1523
24191,-1.1313,6.2728,3.6978,1501
24196,12.147,3.723,16.0076,1519
24201,-0.7542,-4.7178,17.4082,1519
24206,-12.1147,0.0419,7.4543,1511
24211,-5.0494,6.2441,3.8032,1513
24216,11.5604,5.1236,13.9977,1494
24221,5.8694,-5.5689,16.8504,1517
24226,-9.7217,0.3795,9.2225,1509
24231,-9.6594,5.2218,3.6703,1511
24236,7.0569,5.1631,10.5955,1513
24241,10.653,-3.4465,16.8779,1499
24246,-10.6291,-0.4752,12.2032,1531
24251,-11.6825,3.7038,4.7381,1511
24256,6.2991,5.9532,7.9057,1519
24261,14.267,-1.4329,16.1297,1523
24266,-9.2177,-1.1636,15.9729,1517
24271,-14.2419,1.9585,5.2996,1509
24276,1.5742,5.9699,4.7704,1518
24281,13.204,2.3236,16.7546,1500
24286,-4.9919,-3.7122,17.1269,1531
24291,-12.8437,0.6309,6.4512,1509
24296,-1.6065,6.4009,4.1575,1510
24301,12.955,4.1863,15.4127,1517
24306,0.8428,-5.3822,17.6776,1516
24311,-10.556,0.2682,7.5094,1527
24316,-6.7505,5.9328,3.395,1498
24321,8.8442,5.0326,12.9299,1515
24326,7.2856,-4.8159,17.0084,1517
24331,-11.0792,-0.4322,10.0509,1511
24336,-10.0042,4.8926,4.2892,1561
24341,8.3522,5.8574,10.1382,1491
24346,12.6055,-3.565,16.1106,1503
24351,-9.6917,-0.1939,13.7703,1527
24356,-13.7295,3.0897,4.7657,1501
24361,3.5063,5.6024,6.4452,1513
24366,13.295,0.2825,16.7666,1507
24371,-7.8685,-2.308,16.0807,1500
24376,-12.8724,1.4736,5.8873,1481
24381,1.6293,6.3351,5.0254,1511
24386,13.9546,2.5977,15.9382,1515
24391,-3.978,-4.1061,17.9805,1517
24396,-12.4594,0.3699,6.456,1509
24401,-3.5195,6.2537,3.4141,1519
24406,10.9379,4.7441,14.7998,1507
24411,2.9113,-5.114,17.3807,1517
24416,-11.7328,-0.2957,8.3246,1533
24421,-7.586,5.7353,3.9061,1519
24426,10.1323,5.6719,12.3756,1515
24431,9.5684,-5.0326,16.3823,1480
24436,-9.4296,0.3376,11.2456,1517
24441,-12.0297,4.2808,4.1492,1515
24446,5.1918,5.3498,8.5246,1512
24451,12.39,-1.7837,16.8061,1507
24456,-9.5289,-1.1576,14.3652,1509
24461,-12.6809,2.7318,5.2158,1513
24466,4.2772,6.0813,6.3386,1531
24471,14.4921,0.48,16.1357,1511
24476,-7.519,-2.5175,17.2311,1530
24481,-13.7595,1.0678,5.8203,1525
24486,-0.6273,6.195,3.9696,1510
24491,12.4247,3.6847,16.1668,1517
24496,-1.6245,-4.713,17.4621,1497
24501,-12.6402,0.0443,7.1563,1508
24506,-4.5107,6.1699,3.8618,1515
24511,11.7867,5.2194,14.2275,1507
24516,5.3008,-5.7257,17.0874,1525
24521,-9.4008,0.2705,9.0573,1508
24526,-9.4798,5.2493,3.638,1513
24531,6.869,5.2672,10.9092,1525
24536,10.1909,-3.6452,16.7498,1512
24541,-10.3765,-0.6213,12.0404,1511
24546,-11.5161,3.9002,4.6986,1512
24551,6.6068,5.9352,8.2325,1511
24556,13.9486,-1.6604,15.9993,1527
24561,-9.3817,-1.0738,15.773,1522
24566,-14.3042,2.1045,5.2696,1525
24571,2.0722,5.9376,5.047,1513
24576,13.3752,2.077,16.6026,1513
24581,-5.6491,-3.3938,17.1461,1547
24586,-12.9383,0.7135,6.4009,1522
24591,-1.2115,6.3674,4.3179,1501
24596,13.2244,4.1156,15.4031,1525
24601,0.3855,-5.1966,17.7051,1509
24606,-10.3178,0.2143,7.3526,1526
24611,-6.3267,5.9005,3.2777,1483
24616,8.5629,5.0506,13.1286,1512
24621,6.7469,-4.8159,17.0144,1525
24626,-10.9104,-0.4441,9.8713,1503
24631,-9.7193,4.9584,4.1192,1525
24636,8.491,5.8682,10.4746,1499
24641,12.2966,-3.7661,16.0519,1501
24646,-9.7468,-0.0611,13.4937,1524
24651,-13.6134,3.2477,4.6304,1509
24656,4.1108,5.6288,6.6523,1514
24661,13.447,0.0048,16.6936,1513
24666,-8.2744,-2.1332,16.0974,1515
24671,-13.1238,1.5909,5.8095,1525
24676,1.7083,6.2968,5.1116,1501
24681,14.1282,2.4253,15.943,1517
24686,-4.1384,-4.0941,17.838,1513
24691,-11.9578,0.4106,6.45,1509
24696,-3.3603,6.2285,3.3698,1515
24701,10.7919,4.5765,15.0057,1507
24706,2.5462,-5.1224,17.2143,1505
24711,-11.497,-0.261,8.3282,1525
24716,-7.337,5.8143,3.8762,1503
24721,10.3717,5.6132,12.5504,1519
24726,9.1961,-5.0362,16.3093,1498
24731,-9.5756,0.3615,11.0911,1518
24736,-11.6478,4.3419,4.112,1513
24741,5.7844,5.2864,8.7125,1511
24746,12.4056,-1.8902,16.6457,1501
24751,-9.9862,-0.9541,14.2,1518
24756,-12.5109,2.6576,5.2194,1507
24761,4.3586,6.0585,6.3698,1523
24766,14.552,0.5519,16.119,1502
24771,-7.6052,-2.466,17.3268,1522
24776,-13.7068,1.0678,5.7988,1514
24781,-0.5543,6.1615,3.869,1503
24786,12.2811,3.7014,16.1824,1527
24791,-1.5239,-4.6783,17.4454,1511
24796,-12.457,0.067,7.2401,1507
24801,-4.3802,6.2118,3.8475,1523
24806,11.7711,5.1499,14.2718,1509
24811,5.3056,-5.7102,16.9976,1527
24816,-9.5984,0.3077,9.0621,1511
24821,-9.4032,5.3067,3.5961,1513
24826,7.0976,5.1918,10.8709,1517
24831,10.076,-3.6823,16.7055,1512
24836,-10.5321,-0.5962,11.983,1529
24841,-11.6382,3.9049,4.6866,1517
24846,6.6499,6.013,8.3127,1511
24851,13.9091,-1.7825,16.0304,1516
24856,-9.3254,-0.9804,15.6892,1515
24861,-14.3054,2.0901,5.3439,1515
24866,1.9812,5.9448,4.9811,1512
24871,13.3453,2.0111,16.6098,1507
24876,-5.4169,-3.4668,17.0575,1532
24881,-13.0041,0.6788,6.4835,1523
24886,-1.2402,6.3841,4.2844,1507
24891,13.1897,4.0785,15.4007,1515
24896,0.4848,-5.2493,17.6165,1507
24901,-10.4531,0.1796,7.4723,1523
24906,-6.4416,5.9256,3.3399,1506
24911,8.8681,5.1032,13.0927,1515
24916,6.839,-4.8387,16.8923,1509
24921,-10.9427,-0.3651,9.997,1513
24926,-9.9156,4.938,4.2222,1543
24931,8.5665,5.879,10.4423,1513
24936,12.3481,-3.6691,15.9502,1498
24941,-9.7336,-0.0431,13.6613,1533
24946,-13.6757,3.2022,4.7393,1502
24951,3.9995,5.6527,6.6224,1529
24956,13.3764,0.0874,16.6122,1511
24961,-8.0768,-2.1584,16.0783,1513
24966,-13.052,1.5538,5.8778,1519
24971,1.6532,6.2405,5.0566,1509
24976,14.0252,2.5007,15.8724,1508
24981,-4.0498,-4.0438,17.8081,1512
24986,-12.202,0.3998,6.5446,1512
24991,-3.4441,6.2297,3.5219,1515
24996,10.8194,4.6699,14.9458,1507
25001,2.7761,-5.2361,17.2143,1507
25006,-11.6981,-0.2263,8.3689,1523
25011,-7.4735,5.691,3.9636,1519
25016,10.2388,5.6922,12.4439,1523
25021,9.5122,-5.1164,16.2578,1497
25026,-9.5146,0.3543,11.309,1513
25031,-12.1314,4.306,4.2114,1515
25036,5.2409,5.3067,8.6191,1510
25041,12.3481,-1.8759,16.6481,1501
25046,-9.517,-1.1839,14.3149,1507
25051,-12.6869,2.6612,5.3319,1512
25056,4.2341,6.122,6.4284,1532
25061,14.4071,0.5315,16.0866,1501
25066,-7.507,-2.4912,17.2047,1525
25071,-13.7212,1.0223,5.8682,1519
25076,-0.6225,6.201,3.9792,1508
25081,12.5049,3.5865,16.0364,1544
25086,-1.488,-4.6711,17.3412,1503
25091,-12.5253,0.1257,7.2197,1509
25096,-4.7226,6.1878,3.9253,1507
25101,11.7172,5.0961,14.194,1503
25106,5.5043,-5.63,16.8276,1519
25111,-9.4248,0.3352,9.1722,1511
25116,-9.7157,5.3032,3.7278,1503
25121,6.8989,5.1822,10.8242,1513
25126,10.2113,-3.6332,16.6385,1501
25131,-10.2484,-0.5279,12.226,1530
25136,-11.7687,3.8642,4.786,1511
25141,6.432,5.9687,8.157,1507
25146,13.9809,-1.634,15.9454,1513
25151,-9.2476,-1.0427,15.858,1482
25156,-14.3245,2.0255,5.3953,1508
25161,1.8543,5.9783,4.9021,1509
25166,13.2806,2.0925,16.5272,1519
25171,-5.0709,-3.4848,17.097,1525
25176,-13.0472,0.6321,6.5386,1508
25181,-1.7011,6.3901,4.2377,1501
25186,13.0711,4.0833,15.2942,1513
25191,1.0678,-5.3091,17.4238,1511
25196,-10.1442,0.2777,7.6423,1541
25201,-6.9121,5.9328,3.4333,1513
25206,8.57,5.0182,12.8832,1517
25211,7.3143,-4.6855,16.8145,1509
25216,-10.8206,-0.255,10.3106,1511
25221,-10.1694,4.8722,4.2473,1533
25226,8.2887,5.7545,10.1143,1507
25231,12.6067,-3.5087,15.9071,1497
25236,-9.7947,-0.1173,13.9355,1529
25241,-13.8732,3.0754,4.8171,1507
25246,3.8176,5.6216,6.4021,1523
25251,13.4399,0.3089,16.678,1509
25256,-7.8446,-2.3092,16.2147,1503
25261,-13.1992,1.476,5.9041,1513
25266,1.2354,6.2752,4.9105,1510
25271,13.9785,2.6456,15.8676,1523
25276,-3.2609,-4.2581,17.7243,1515
25281,-11.479,0.3998,6.7588,1509
25286,-4.0115,6.2656,3.3567,1524
25291,10.3202,4.6064,14.7303,1514
25296,3.5159,-5.1763,16.9378,1523
25301,-11.3365,-0.1317,8.7676,1514
25306,-7.9619,5.6826,3.9385,1507
25311,9.9587,5.6192,12.0883,1527
25316,9.9216,-4.8985,16.1884,1515
25321,-9.7312,0.3915,11.649,1518
25326,-12.1817,4.1587,4.3419,1511
25331,5.4851,5.2804,8.2492,1509
25336,12.7767,-1.7035,16.6385,1512
25341,-9.6403,-1.1061,14.6034,1509
25346,-12.8545,2.5187,5.3714,1513
25351,3.6296,6.0729,6.1148,1518
25356,14.5256,0.808,16.1417,1513
25361,-6.8163,-2.7318,17.3173,1523
25366,-12.9143,0.9421,6.0082,1515
25371,-1.2486,6.1938,3.7852,1499
25376,11.9016,3.7397,15.9885,1525
25381,-0.492,-4.792,17.1616,1507
25386,-12.074,0.1353,7.5621,1529
25391,-5.2098,6.1842,3.8702,1493
25396,11.4203,5.1775,13.9319,1501
25401,6.2632,-5.6276,16.6852,1529
25406,-9.7384,0.3879,9.487,1515
25411,-10.003,5.1212,3.7936,1515
25416,7.1132,5.2026,10.41,1517
25421,10.9822,-3.3938,16.5894,1501
25426,-10.5201,-0.4633,12.6162,1523
25431,-11.9985,3.5781,4.859,1502
25436,5.9508,5.9352,7.7524,1513
25441,14.3197,-1.2019,15.9214,1511
25446,-8.9639,-1.3491,16.1537,1503
25451,-13.9833,1.7885,5.4755,1519
25456,1.1983,5.9795,4.6471,1507
25461,13.0053,2.4229,16.5798,1515
25466,-4.203,-3.79,17.0862,1527
25471,-12.6988,0.6117,6.7852,1519
25476,-2.1883,6.3782,4.0857,1519
25481,12.7719,4.2964,15.1218,1508
25486,1.7873,-5.4133,17.3101,1503
25491,-10.4124,0.2873,7.8877,1525
25496,-7.3801,5.8263,3.4991,1507
25501,8.7915,5.0111,12.5684,1500
25506,8.0266,-4.6579,16.7211,1497
25511,-11.0157,-0.2478,10.5812,1513
25516,-10.5704,4.6639,4.3191,1513
25521,7.9559,5.7401,9.6355,1507
25526,12.9873,-3.1783,15.9849,1501
25531,-9.6977,-0.1604,14.3341,1517
25536,-13.969,2.8994,4.974,1508
25541,3.1771,5.6371,6.0442,1541
25546,13.313,0.5435,16.8085,1507
25551,-7.0916,-2.5498,16.2087,1511
25556,-13.1226,1.3791,6.0549,1517
25561,0.8188,6.3315,4.7704,1513
25566,13.8301,2.8575,15.9155,1529
25571,-2.6767,-4.4293,17.5675,1509
25576,-11.7591,0.4178,6.8247,1507
25581,-4.4891,6.189,3.4477,1507
25586,10.5477,4.6795,14.4921,1506
25591,4.1264,-5.2062,16.8851,1527
25596,-11.6298,-0.158,8.8969,1517
25601,-8.3893,5.6024,4.0534,1516
25606,9.7947,5.6635,11.8309,1513
25611,10.4519,-4.7824,16.0759,1508
25616,-9.6498,0.4046,12.0835,1509
25621,-12.7826,4.0259,4.4293,1513
25626,4.8602,5.3331,7.9009,1515
25631,12.718,-1.342,16.6373,1513
25636,-9.0273,-1.4054,14.856,1515
25641,-12.9443,2.381,5.6012,1513
25646,3.4524,6.1519,5.9316,1513
25651,14.2934,1.0822,15.9921,1501
25656,-6.2944,-3.0263,17.2682,1533
25661,-13.1681,0.8847,6.2309,1513
25666,-1.6616,6.2944,3.8451,1513
25671,11.9902,3.8882,15.7048,1515
25676,0.0862,-4.9177,17.1724,1511
25681,-12.2044,0.0706,7.7548,1523
25686,-5.8287,6.1459,3.9552,1503
25691,11.3066,5.1571,13.538,1509
25696,7.0904,-5.5653,16.4984,1517
25701,-9.5349,0.5447,10.0126,1518
25706,-10.6698,5.0685,3.9193,1529
25711,6.2728,5.0721,9.9922,1516
25716,11.139,-3.1113,16.5966,1507
25721,-10.1119,-0.6476,13.0005,1519
25726,-12.1925,3.5027,4.9692,1513
25731,5.6419,5.9316,7.4723,1559
25736,14.1988,-0.9924,15.9909,1511
25741,-8.6874,-1.494,16.3464,1497
25746,-14.1737,1.7178,5.5641,1511
25751,0.9685,6.1064,4.6076,1512
25756,13.0843,2.5809,16.4458,1514
25761,-3.7373,-4.0055,17.0922,1514
25766,-12.8664,0.3603,6.9037,1507
25771,-2.8587,6.3135,4.1084,1511
25776,12.6581,4.5023,14.8213,1511
25781,2.7569,-5.5653,17.0527,1507
25786,-9.7432,0.34,8.3282,1524
25791,-8.1044,5.7257,3.6129,1509
25796,7.8434,5.1224,12.1242,1520
25801,8.3115,-4.4257,16.5595,1515
25806,-10.4938,-0.2753,11.1582,1519
25811,-10.8936,4.537,4.5825,1512
25816,7.7093,5.94,9.3518,1509
25821,12.9933,-2.8934,15.8257,1507
25826,-9.7217,-0.3424,14.704,1517
25831,-13.9319,2.6671,5.1655,1501
25836,3.2645,5.7832,5.8718,1531
25841,13.5524,0.8344,16.502,1501
25846,-7.027,-2.5929,16.5356,1529
25851,-13.1382,1.1468,6.2393,1512
25856,-0.0227,6.3327,4.6412,1508
25861,13.6434,3.1472,15.7072,1541
25866,-1.7286,-4.6591,17.4298,1509
25871,-10.805,0.3591,7.1491,1523
25876,-5.2385,6.1806,3.4512,1513
25881,9.7576,4.7692,14.0863,1507
25886,4.81,-5.1272,16.7786,1515
25891,-11.1055,-0.0934,9.4152,1515
25896,-8.8729,5.4336,4.1264,1510
25901,9.4595,5.7245,11.4012,1510
25906,10.9619,-4.5071,15.9945,1501
25911,-9.8569,0.2885,12.4834,1529
25916,-12.7539,3.8403,4.5514,1499
25921,5.017,5.3834,7.5441,1509
25926,12.9993,-1.0439,16.532,1519
25931,-9.1602,-1.4964,15.1385,1507
25936,-12.9778,2.1632,5.7066,1512
25941,2.8982,6.1615,5.7461,1513
25946,14.352,1.3659,15.9538,1500
25951,-5.6898,-3.2717,17.3807,1527
25956,-12.4941,0.6608,6.3363,1508
25961,-2.0985,6.2549,3.6392,1496
25966,11.4598,4.1037,15.5348,1518
25971,0.8332,-4.9692,17.0527,1503
25976,-11.7831,0.0072,8.0002,1519
25981,-6.1327,6.0609,3.9133,1503
25986,10.981,5.2972,13.2938,1505
25991,7.4903,-5.4983,16.4601,1509
25996,-9.7911,0.407,10.2328,1513
26001,-10.7775,4.9117,4.0211,1517
26006,6.7409,5.2301,9.7707,1509
26011,11.5748,-2.9999,16.4972,1491
26016,-10.2005,-0.5722,13.3441,1513
26021,-12.4882,3.3686,5.0637,1512
26026,5.2996,5.9496,7.2484,1527
26031,14.3425,-0.7183,15.9885,1507
26036,-8.327,-1.6807,16.5152,1497
26041,-13.5296,1.5107,5.7162,1515
26046,0.571,6.1663,4.4005,1514
26051,12.7587,2.6432,16.3344,1515
26056,-3.1244,-4.142,16.9438,1509
26061,-12.4654,0.5088,7.0533,1523
26066,-3.1603,6.3363,4.0486,1526
26071,12.3708,4.4975,14.8225,1499
26076,3.128,-5.636,16.9462,1505
26081,-10.1969,0.401,8.5281,1519
26086,-8.3091,5.7245,3.7469,1513
26091,8.4312,5.0482,12.0237,1525
26096,8.7747,-4.4556,16.4853,1498
26101,-10.9786,-0.1772,11.2168,1513
26106,-11.0947,4.4412,4.6184,1512
26111,7.5357,5.8478,9.183,1511
26116,13.3656,-2.7964,15.8364,1511
26121,-9.6534,-0.3531,14.9446,1515
26126,-13.9546,2.6157,5.2122,1503
26131,2.6803,5.6874,5.6479,1518
26136,13.3381,0.9756,16.678,1509
26141,-6.4009,-2.8144,16.3692,1531
26146,-12.8736,1.245,6.3805,1513
26151,-0.0563,6.3147,4.6196,1509
26156,13.5512,3.1963,15.7323,1527
26161,-1.5957,-4.6783,17.4226,1514
26166,-11.5604,0.4142,7.1,1529
26171,-5.1787,6.1399,3.5386,1507
26176,10.2604,4.6807,14.0444,1503
26181,5.1787,-5.1727,16.8085,1513
26186,-11.4203,-0.1065,9.335,1509
26191,-8.9986,5.4265,4.1288,1513
26196,9.2416,5.5773,11.2719,1512
26201,11.1498,-4.4448,16.0986,1509
26206,-9.7276,0.2849,12.6198,1523
26211,-13.0628,3.8547,4.6364,1509
26216,4.6196,5.4049,7.4376,1507
26221,12.888,-0.9984,16.611,1510
26226,-8.6706,-1.5694,15.1194,1507
26231,-12.9993,2.2673,5.6982,1516
26236,2.9676,6.1699,5.636,1513
26241,14.3209,1.3779,15.9837,1515
26246,-5.6623,-3.2633,17.3568,1529
26251,-12.8545,0.7685,6.3578,1507
26256,-2.1213,6.3183,3.7673,1501
26261,11.789,3.9947,15.5444,1511
26266,0.6931,-4.9943,17.012,1503
26271,-12.0692,0.0491,7.9308,1531
26276,-6.2752,6.0621,3.9528,1509
26281,11.1103,5.2648,13.307,1519
26286,7.4711,-5.5366,16.4266,1513
26291,-9.5636,0.5638,10.3046,1519
26296,-11.0816,4.9141,4.0989,1517
26301,6.195,5.1799,9.754,1509
26306,11.3725,-2.9389,16.4925,1507
26311,-9.8366,-0.6871,13.2842,1513
26316,-12.3649,3.4105,5.0314,1513
26321,5.3486,5.9699,7.3741,1518
26326,14.3089,-0.7829,15.8664,1507
26331,-8.5581,-1.6221,16.496,1507
26336,-14.0192,1.5909,5.6802,1515
26341,0.7195,6.0825,4.5837,1503
26346,13.0149,2.6025,16.3033,1524
26351,-3.4201,-4.0689,17.0623,1534
26356,-13.0855,0.504,6.9336,1525
26361,-3.1603,6.3698,4.13,1516
26366,12.5456,4.4568,14.8488,1509
26371,3.2585,-5.6348,16.927,1515
26376,-9.748,0.4501,8.5736,1515
26381,-8.4013,5.8395,3.6105,1503
26386,7.7955,5.0063,12.0033,1507
26391,8.6658,-4.3574,16.4613,1510
26396,-10.4986,-0.2598,11.3892,1518
26401,-10.9942,4.5586,4.5274,1515
26406,7.4903,5.8323,9.3302,1511
26411,13.2663,-2.8647,15.8448,1511
26416,-9.675,-0.3807,14.7818,1503
26421,-14.2323,2.7031,5.2146,1509
26426,3.2262,5.7676,5.7772,1516
26431,13.6206,0.8894,16.5643,1512
26436,-6.7337,-2.6959,16.5487,1532
26441,-13.5416,1.2582,6.2417,1508
26446,-0.0874,6.2692,4.6483,1501
26451,13.7511,3.1675,15.7239,1519
26456,-1.4569,-4.7932,17.3795,1509
26461,-10.7739,0.425,7.2484,1525
26466,-5.3534,6.1782,3.4081,1503
26471,9.5002,4.634,14.0983,1503
26476,5.0853,-5.1056,16.7486,1527
26481,-11.1462,-0.097,9.4882,1518
26486,-8.9878,5.4684,4.1515,1503
26491,9.2787,5.6503,11.3294,1514
26496,11.1043,-4.5981,15.9131,1511
26501,-9.8821,0.3699,12.5552,1519
26506,-13.1693,3.9325,4.6759,1499
26511,5.0793,5.4863,7.6148,1513
26516,13.1154,-1.1827,16.4901,1509
26521,-8.904,-1.5,15.2307,1497
26526,-13.2663,2.3188,5.6216,1515
26531,2.7378,6.1627,5.7628,1507
26536,14.4167,1.3372,15.9274,1512
26541,-5.5677,-3.3698,17.3197,1519
26546,-12.2009,0.7566,6.3782,1513
26551,-2.2098,6.347,3.7816,1516
26556,11.3258,3.8044,15.4677,1500
26561,0.8428,-5.0326,16.9258,1513
26566,-11.8166,0.1484,8.1128,1525
26571,-6.2525,6.1495,4.0019,1516
26576,10.9654,5.1858,13.3309,1513
26581,7.5034,-5.5725,16.3201,1513
26586,-9.7468,0.6021,10.3382,1511
26591,-11.0289,5.0446,4.1539,1531
26596,6.675,5.1595,9.7947,1511
26601,11.558,-3.1005,16.3332,1497
26606,-10.1418,-0.5171,13.3273,1527
26611,-12.4427,3.4728,5.053,1503
26616,5.2002,5.9532,7.4364,1525
26621,14.4538,-0.8811,15.8269,1501
26626,-8.4372,-1.6017,16.4063,1509
26631,-11.6693,0.6057,6.6152,1519
26636,0.7338,6.1447,4.5262,1496
26641,10.6829,4.1408,14.9721,1524
26646,-3.1939,-4.136,16.9593,1509
26651,-11.6873,0.0108,8.5617,1523
26656,-3.1029,6.3961,4.1384,1511
26661,10.3214,5.4468,12.5313,1503
26666,3.1867,-5.6886,16.8432,1515
26671,-9.7264,0.5363,11.2899,1517
26676,-8.4324,5.7521,3.7182,1511
26681,5.9161,5.3834,8.9148,1517
26686,8.7161,-4.4748,16.3895,1501
26691,-9.5768,-0.9313,14.2467,1509
26696,-11.1115,4.5298,4.5933,1519
26701,4.3,6.0968,6.6619,1519
26706,13.2878,-2.9509,15.7347,1519
26711,-7.3694,-2.302,16.8707,1511
26716,-14.0576,2.727,5.2253,1515
26721,-0.5004,6.2668,4.1468,1523
26726,13.3848,0.7386,16.5834,1512
26731,-1.5239,-4.5633,16.9258,1530
26736,-13.2435,1.3408,6.3375,1511
26741,-4.5933,6.2836,4.0223,1501
26746,13.6254,2.9963,15.6533,1520
26751,5.1822,-5.7449,16.5451,1513
26756,-10.8146,0.5722,7.2772,1525
26761,-9.7588,5.5845,3.8678,1523
26766,9.6941,4.4712,13.9929,1501
26771,10.0856,-3.9923,16.417,1517
26776,-11.218,0.0299,9.6247,1508
26781,-11.7651,4.2078,4.8016,1508
26786,9.1997,5.4648,11.2456,1514
26791,13.9714,-2.0734,15.87,1498
26796,-9.8988,0.4274,12.7084,1529
26801,-13.9474,2.3499,5.466,1503
26806,4.7956,5.3941,7.5022,1511
26811,13.2268,1.4617,16.6074,1500
26816,-8.7077,-1.549,15.1086,1512
26821,-13.1142,1.142,6.5805,1517
26826,-1.4473,6.4177,4.4113,1507
26831,13.1765,3.5674,15.3768,1516
26836,0.7111,-5.3175,17.1066,1527
26841,-10.2831,0.6333,7.7548,1523
26846,-6.8582,6.2142,3.5721,1510
26851,8.6874,4.5693,13.1083,1498
26856,6.9695,-4.9285,16.5487,1511
26861,-10.8996,0.0072,10.3441,1520
26866,-10.0389,5.278,4.2784,1501
26871,8.2959,5.5785,10.4052,1515
26876,12.3768,-3.9684,15.8807,1509
26881,-9.8881,0.1963,13.5775,1507
26886,-13.6649,3.5733,4.8638,1527
26891,4.1503,5.6132,6.7361,1507
26896,13.477,-0.5064,16.5715,1507
26901,-7.9224,-1.9848,15.7515,1514
26906,-13.4399,2.0482,5.8347,1507
26911,1.3467,6.274,5.2972,1524
26916,14.2599,1.9213,15.9729,1511
26921,-3.6607,-4.1049,17.2969,1524
26926,-11.3701,0.8092,6.6092,1515
26931,-3.8116,6.4584,3.5578,1509
26936,10.3825,3.9636,14.9817,1530
26941,3.0945,-5.2241,16.8217,1501
26946,-11.5005,0.231,8.6886,1517
26951,-7.6064,5.9915,3.984,1507
26956,10.0257,5.2768,12.4295,1499
26961,9.5672,-5.3582,16.1465,1527
26966,-9.8378,0.7099,11.327,1516
26971,-12.2224,4.6591,4.2988,1503
26976,5.9496,5.3163,8.7867,1523
26981,12.7874,-2.4337,16.5655,1495
26986,-9.5541,-0.8511,14.2168,1517
26991,-13.064,3.0921,5.132,1494
26996,3.6835,5.9532,6.5457,1510
27001,14.868,0.164,16.1441,1515
27006,-7.2329,-2.5522,16.8803,1507
27011,-12.7731,1.2821,5.9292,1517
27016,-0.8607,6.3183,4.0917,1523
27021,11.9147,2.9963,16.2291,1511
27026,-1.0032,-4.7776,16.9318,1529
27031,-12.4774,0.4046,7.3729,1511
27036,-4.7381,6.3255,3.9863,1501
27041,11.5927,4.7848,14.1402,1517
27046,5.8323,-5.9125,16.6612,1509
27051,-9.7276,0.6476,9.4128,1532
27056,-10.1191,5.5222,3.9133,1500
27061,7.452,5.1463,10.8745,1511
27066,10.7129,-4.0055,16.3979,1523
27071,-10.2855,-0.3627,12.39,1519
27076,-12.0835,4.0677,4.7214,1517
27081,5.9029,5.8981,8.2528,1500
27086,14.2934,-1.7921,15.9083,1502
27091,-9.0944,-1.1516,15.7515,1533
27096,-13.5153,2.0231,5.5498,1511
27101,1.6951,6.1639,5.0194,1526
27106,12.8784,1.6604,16.4398,1503
27111,-4.5909,-3.7134,16.7762,1512
27116,-12.9634,0.9026,6.6535,1509
27121,-1.8028,6.4356,4.3826,1509
27126,12.9179,3.8978,15.1385,1514
27131,1.0882,-5.4588,17.2251,1525
27136,-10.4531,0.3651,7.8338,1509
27141,-7.0809,6.0226,3.6859,1513
27146,9.2811,4.9775,12.7731,1500
27151,7.3729,-5.0003,16.526,1513
27156,-10.7775,-0.1712,10.416,1525
27161,-10.4028,4.9823,4.4436,1507
27166,8.0361,5.8203,10.1418,1515
27171,12.5863,-3.6045,15.7754,1511
27176,-9.7217,-0.0754,13.9163,1519
27181,-13.5763,3.122,5.1272,1517
27186,3.9061,5.8155,6.5637,1511
27191,13.1693,0.012,16.3368,1507
27196,-7.4531,-2.3703,16.0687,1509
27201,-13.2531,1.6951,6.043,1517
27206,1.1516,6.256,5.1404,1531
27211,13.9031,2.4852,15.6234,1499
27216,-3.2477,-4.2892,17.3628,1515
27221,-11.497,0.4812,6.8534,1515
27226,-4.0953,6.3111,3.6308,1509
27231,10.6051,4.4544,14.5304,1528
27236,3.5087,-5.2313,16.7726,1511
27241,-11.4706,0.0012,8.9531,1515
27246,-8.0349,5.8047,4.1264,1503
27251,9.8916,5.6,12.056,1499
27256,9.9515,-5.0625,15.9574,1519
27261,-9.6798,0.5088,11.8968,1511
27266,-12.5217,4.312,4.5286,1503
27271,5.5414,5.4109,8.3606,1509
27276,12.5253,-1.8136,16.2878,1497
27281,-9.2368,-1.2175,14.6405,1533
27286,-12.9574,2.7102,5.4157,1507
27291,3.6978,6.0693,6.3351,1469
27296,14.4933,0.5926,15.8376,1513
27301,-6.8402,-2.7533,17.1437,1501
27306,-12.9347,1.0032,6.1687,1509
27311,-1.081,6.3243,3.9983,1511
27316,12.0333,3.4572,15.7383,1501
27321,-0.6381,-4.8243,17.0874,1525
27326,-12.5073,0.2179,7.5705,1519
27331,-5.0829,6.2106,3.9576,1511
27336,11.4551,5.0889,13.7643,1510
27341,6.28,-5.77,16.581,1515
27346,-9.5493,0.5171,9.6917,1525
27351,-10.3825,5.2684,3.9744,1491
27356,6.9288,5.2134,10.4519,1511
27361,10.6446,-3.5422,16.4111,1509
27366,-10.0808,-0.5638,12.7132,1517
27371,-12.0871,3.8379,4.8794,1555
27376,5.9424,5.9771,7.999,1505
27381,14.1605,-1.4772,15.7287,1513
27386,-8.9232,-1.2737,16.0028,1517
27391,-13.9714,1.8675,5.685,1513
27396,1.549,6.1423,4.9333,1513
27401,13.052,2.1177,16.2447,1497
27406,-4.4819,-3.717,17.0192,1510
27411,-13.2052,0.6452,6.7852,1515
27416,-2.1117,6.3147,4.3299,1509
27421,12.9155,4.2725,14.8464,1526
27426,1.7178,-5.4791,17.1892,1511
27431,-9.9204,0.3148,8.0804,1519
27436,-7.4998,5.8442,3.632,1514
27441,8.3833,5.0853,12.475,1517
27446,7.8135,-4.6136,16.5906,1533
27451,-10.5429,-0.2322,10.8553,1526
27456,-10.4866,4.8602,4.3766,1503
27461,7.8853,5.8598,9.8689,1514
27466,12.9059,-3.3686,15.7179,1500
27471,-9.8857,-0.1209,14.2323,1511
27476,-14.1126,3.0442,5.053,1519
27481,3.8499,5.8766,6.3363,1501
27486,13.4746,0.2382,16.3871,1509
27491,-7.4472,-2.3715,16.3476,1510
27496,-13.6984,1.567,5.9891,1501
27501,0.7673,6.3183,4.9943,1519
27506,14.0552,2.6468,15.6976,1513
27511,-2.8802,-4.4628,17.5627,1519
27516,-11.2539,0.4788,6.8833,1513
27521,-4.3407,6.2608,3.5303,1496
27526,10.2292,4.4748,14.5053,1529
27531,3.9265,-5.2158,16.8492,1501
27536,-11.473,-0.1137,8.9316,1508
27541,-8.0457,5.7186,3.9995,1511
27546,9.7169,5.6216,11.9076,1501
27551,10.3609,-5.023,16.083,1519
27556,-9.6929,0.4142,11.9602,1509
27561,-12.8928,4.2701,4.4101,1517
27566,5.6264,5.5665,8.1475,1513
27571,12.7719,-1.7418,16.5008,1498
27576,-9.1698,-1.3084,14.7854,1527
27581,-13.2675,2.6959,5.3391,1517
27586,3.4441,6.0956,6.2417,1517
27591,14.6884,0.7278,15.9346,1515
27596,-6.6439,-2.873,17.261,1511
27601,-12.9802,0.9337,6.1339,1518
27606,-1.1516,6.2345,3.899,1500
27611,11.8884,3.6883,15.6988,1508
27616,-0.4824,-4.8435,17.2083,1523
27621,-12.724,-0.0156,7.5896,1515
27626,-5.1236,6.1304,3.9492,1507
27631,11.4455,5.3367,13.6984,1543
27636,6.4045,-5.8215,16.6828,1562
27641,-9.5086,0.3627,9.7492,1523
27646,-10.6207,5.1559,3.8906,1499
27651,7.1335,5.5091,10.331,1503
27656,10.8685,-3.4321,16.3751,1519
27661,-9.9802,-0.6991,12.9,1519
27666,-12.2715,3.7493,4.9165,1519
27671,5.7988,6.0621,7.9164,1503
27676,14.2766,-1.3348,15.6593,1495
27681,-8.9591,-1.3862,16.113,1532
27686,-13.9953,1.798,5.6383,1507
27691,1.5443,6.1423,4.9033,1531
27696,13.0053,2.1895,16.1656,1495
27701,-4.4245,-3.7888,17.0563,1516
27706,-13.3453,0.6357,6.7181,1519
27711,-2.156,6.341,4.2844,1512
27716,12.979,4.2796,14.8836,1528
27721,1.7657,-5.5462,17.2598,1477
27726,-10.0329,0.3843,8.017,1515
27731,-7.4675,5.8646,3.626,1519
27736,8.7293,5.0985,12.6043,1511
27741,7.9871,-4.7046,16.6565,1510
27746,-10.6686,-0.2071,10.7272,1515
27751,-10.2927,4.8052,4.2641,1511
27756,7.7907,5.8454,9.8785,1527
27761,13.1765,-3.3758,15.7969,1499
27766,-9.8318,-0.1508,14.2587,1513
27771,-14.3856,3.0598,4.9967,1511
27776,3.8092,5.8263,6.3446,1464
27781,13.6505,0.2274,16.4673,1519
27786,-7.446,-2.393,16.3871,1515
27791,-14.1402,1.573,5.8562,1517
27796,0.7171,6.2836,5.0302,1527
27801,14.2826,2.7222,15.6545,1499
27806,-2.8335,-4.5011,17.5615,1530
27811,-11.1582,0.4932,6.9671,1509
27816,-4.3383,6.1842,3.5686,1511
27821,10.2819,4.5322,14.443,1529
27826,3.875,-5.2732,16.8779,1511
27831,-11.5592,-0.1532,9.0321,1519
27836,-7.9487,5.6659,3.9792,1494
27841,9.6786,5.6743,11.9076,1551
27846,10.3346,-5.1116,16.095,1563
27851,-9.7229,0.419,11.9147,1508
27856,-13.0771,4.2713,4.4544,1515
27861,5.6802,5.6503,8.2289,1507
27866,12.8329,-1.8555,16.3763,1499
27871,-9.1554,-1.324,14.7495,1528
27876,-13.4638,2.6312,5.4109,1515
27881,3.3255,6.177,6.3063,1515
27886,14.5903,0.668,15.6569,1507
27891,-6.529,-3.0071,17.0862,1507
27896,-12.5289,0.8236,6.2944,1510
27901,-1.3503,6.2884,4.0366,1501
27906,11.6741,3.6536,15.4665,1507
27911,-0.4345,-4.8997,16.939,1525
27916,-12.1566,0.0359,7.8949,1519
27921,-5.5103,6.2165,4.197,1519
27926,11.4287,5.2517,13.544,1509
27931,6.2668,-5.7664,16.2506,1508
27936,-9.7001,0.4705,10.0449,1519
27941,-10.6087,5.2337,4.2581,1507
27946,7.2712,5.3905,10.4579,1503
27951,10.6374,-3.535,16.0005,1503
27956,-10.0796,-0.4058,12.9538,1509
27961,-12.1973,3.7158,5.1942,1515
27966,5.9328,6.0142,7.9368,1507
27971,14.0935,-1.4054,15.5049,1496
27976,-8.8214,-1.1564,15.9741,1549
27981,-13.8181,1.8866,5.8143,1513
27986,1.3647,6.1902,5.0051,1541
27991,13.1178,2.059,16.101,1497
27996,-4.1707,-3.6859,16.7929,1523
28001,-13.1502,0.8176,6.8881,1525
28006,-2.4313,6.3913,4.3886,1511
28011,12.9,4.0402,14.8692,1522
28016,2.2218,-5.5282,16.8636,1509
28021,-10.0114,0.6213,8.2313,1516
28026,-7.8578,6.0322,3.7601,1515
28031,8.3282,4.7704,12.5289,1511
28036,8.1846,-4.7525,16.3751,1515
28041,-10.6769,0.0012,10.9283,1515
28046,-10.5489,4.9871,4.3467,1512
28051,7.6507,5.6288,9.8162,1501
28056,13.1669,-3.4824,15.7874,1499
28061,-9.8737,0.0215,14.2742,1517
28066,-14.1809,3.1603,5.029,1514
28071,3.5518,5.8263,6.3027,1528
28076,13.7966,0.0886,16.5595,1511
28081,-7.3215,-2.3236,16.3057,1511
28086,-13.9905,1.6747,5.94,1526
28091,0.3436,6.2812,4.962,1518
28096,14.139,2.6588,15.8101,1503
28101,-2.2134,-4.6974,17.4298,1541
28106,-10.7679,0.6069,7.0342,1507
28111,-4.8902,6.2836,3.5027,1503
28116,9.7181,4.4365,14.4059,1509
28121,4.4819,-5.302,16.6708,1515
28126,-11.1091,-0.0646,9.2943,1563
28131,-8.3809,5.7054,4.0522,1501
28136,9.408,5.6108,11.7711,1513
28141,10.7763,-4.9668,15.9981,1524
28146,-9.8665,0.4106,12.1889,1515
28151,-13.0747,4.1695,4.4568,1530
28156,5.5198,5.6731,8.0206,1511
28161,13.4003,-1.6927,16.2554,1501
28166,-9.1051,-1.2103,15.032,1543
28171,-13.8744,2.4313,5.4109,1479
28176,2.7725,6.1411,6.0669,1508
28181,14.7423,1.1432,15.8149,1511
28186,-6.1878,-3.1939,17.3771,1513
28191,-12.5911,0.7326,6.2608,1519
28196,-1.6999,6.2225,3.9037,1499
28201,11.728,3.8259,15.5563,1509
28206,0.1712,-4.9931,17.1509,1523
28211,-12.4846,0.0431,7.7824,1511
28216,-5.624,6.1579,3.9708,1511
28221,11.0732,5.3774,13.4806,1509
28226,7.2281,-5.77,16.5379,1509
28231,-9.5241,0.5614,10.0329,1532
28236,-11.0959,5.1511,3.9863,1505
28241,7.0689,5.4157,10.1287,1507
28246,11.4072,-3.3531,16.4039,1507
28251,-9.9659,-0.5986,13.0556,1519
28256,-12.4451,3.7769,4.7381,1515
28261,5.2589,5.9556,7.7045,1513
28266,14.7471,-1.2043,15.9693,1509
28271,-8.7544,-1.4569,16.2913,1518
28276,-14.3113,1.8723,5.4528,1515
28281,1.0989,6.1734,4.7142,1467
28286,13.2806,2.0758,16.5739,1499
28291,-4.0187,-3.8678,17.1161,1511
28296,-13.9199,0.7685,6.5146,1517
28301,-2.5881,6.2908,4.1563,1512
28306,12.8317,4.2509,15.0488,1515
28311,2.6049,-5.7449,17.2215,1502
28316,-9.8569,0.559,8.1523,1510
28321,-8.1834,5.8838,3.4955,1499
28326,8.6886,5.0589,12.4415,1507
28331,8.6802,-4.7956,16.6481,1515
28336,-10.5129,-0.2227,11.0109,1513
28341,-10.6326,4.7633,4.148,1501
28346,7.2604,5.8454,9.6678,1511
28351,13.7104,-3.2262,15.9155,1497
28356,-9.8102,-0.3352,14.5053,1512
28361,-14.5376,2.897,4.9787,1517
28366,3.5769,5.843,6.0777,1509
28371,13.7164,0.4741,16.5356,1513
28376,-7.1658,-2.6205,16.502,1497
28381,-14.3568,1.4377,5.9005,1513
28386,0.3184,6.2189,4.871,1514
28391,14.121,3.1939,15.5755,1510
28396,-2.2972,-4.7704,17.7566,1519
28401,-11.0061,0.3196,7.027,1511
28406,-4.6316,6.1028,3.4177,1507
28411,10.1526,4.8578,14.2575,1528
28416,4.5155,-5.1164,16.9845,1507
28421,-11.4826,-0.2334,9.1578,1544
28426,-8.0014,5.5749,3.8032,1498
28431,9.2823,5.7736,11.6885,1507
28436,11.0995,-4.7872,16.3117,1519
28441,-9.6857,0.3388,12.0452,1503
28446,-13.617,4.2126,4.1432,1511
28451,5.3762,5.5629,7.8219,1505
28456,13.7152,-1.6257,16.8516,1495
28461,-9.2177,-1.1684,15.0069,1543
28466,-14.2718,2.6755,4.9871,1508
28471,2.7258,6.0837,6.0693,1522
28476,15.2367,1.0654,16.2004,1503
28481,-6.5721,-3.1532,17.5543,1512
28486,-13.1238,0.9697,5.8826,1519
28491,-1.4269,6.1794,3.7134,1518
28496,12.2942,3.7014,16.0064,1513
28501,-0.2502,-5.0075,17.51,1523
28506,-12.7324,0.0754,7.3406,1516
28511,-5.2804,6.1196,3.7397,1508
28516,11.0756,5.2684,13.7056,1509
28521,7.015,-5.8861,16.9114,1513
28526,-9.6127,0.5124,9.6295,1527
28531,-11.1031,5.3714,3.7565,1502
28536,7.3442,5.4396,10.3477,1507
28541,11.479,-3.7038,16.6577,1507
28546,-10.1035,-0.5112,12.8473,1513
28551,-12.6558,3.8822,4.5131,1518
28556,5.1751,6.0071,7.8877,1506
28561,14.795,-1.2809,15.9837,1500
28566,-8.9447,-1.5778,16.1226,1520
28571,-13.6793,1.7813,5.4612,1515
28576,1.2689,6.2249,4.8255,1519
28581,12.7802,1.9908,16.3356,1502
28586,-4.1803,-4.0929,16.921,1513
28591,-13.3584,0.656,6.6427,1515
28596,-2.4852,6.4272,4.3155,1503
28601,12.7096,4.3144,14.9111,1531
28606,2.0411,-5.7545,17.1545,1509
28611,-9.8785,0.3962,8.1247,1507
28616,-8.0146,6.0298,3.6811,1509
28621,8.7712,5.0937,12.6019,1515
28626,7.9835,-4.8459,16.3452,1525
28631,-10.5381,-0.1712,10.9008,1511
28636,-10.7452,4.8028,4.3934,1503
28641,7.695,5.9747,10.0497,1525
28646,13.0185,-3.3363,15.5563,1509
28651,-9.9072,-0.2777,14.3365,1509
28656,-13.6086,2.8264,5.1703,1509
28661,3.7433,6.0071,6.3566,1519
28666,13.0915,0.2682,16.1585,1519
28671,-7.1886,-2.6037,16.2506,1513
28676,-13.368,1.5179,6.1208,1503
28681,0.7578,6.4572,5.0913,1516
28686,13.7846,2.8287,15.4582,1509
28691,-2.7797,-4.4688,17.4825,1545
28696,-11.3557,0.3663,6.9109,1523
28701,-4.3527,6.286,3.7062,1499
28706,10.7284,4.6591,14.3473,1525
28711,3.9217,-5.2433,16.9294,1517
28716,-11.2755,-0.1269,8.9244,1531
28721,-8.1882,5.6252,4.0306,1500
28726,9.5577,5.6898,11.8537,1496
28731,10.4567,-4.8674,16.1022,1519
28736,-9.6486,0.334,11.9483,1507
28741,-12.8078,4.1432,4.5538,1519
28746,5.679,5.6024,8.1523,1513
28751,12.7132,-1.5897,16.3656,1499
28756,-9.0812,-1.3587,14.8836,1525
28761,-13.3944,2.5714,5.3044,1507
28766,3.5518,6.0513,6.1914,1513
28771,14.6334,1.0546,15.8245,1505
28776,-6.7133,-2.9401,17.4274,1511
28781,-13.0879,0.7793,6.1028,1518
28786,-1.1432,6.1926,3.9025,1507
28791,12.0117,3.8499,15.7119,1514
28796,-0.6321,-4.8231,17.51,1529
28801,-12.7659,-0.0874,7.4113,1513
28806,-5.0889,6.0669,3.8307,1509
28811,11.3342,5.3965,13.6673,1483
28816,6.5015,-5.7126,16.9067,1511
28821,-9.2919,0.3316,9.6702,1529
28826,-10.5632,5.2146,3.8056,1499
28831,7.0701,5.4444,10.4351,1499
28836,10.8709,-3.3866,16.5739,1515
28841,-9.9539,-0.7111,12.8078,1506
28846,-12.1661,3.8068,4.5969,1528
28851,5.8299,5.9484,7.9571,1513
28856,14.358,-1.2617,15.8903,1506
28861,-9.0585,-1.3324,16.2387,1527
28866,-14.2156,1.8771,5.4037,1512
28871,1.7011,6.0645,4.7645,1524
28876,13.0352,2.1344,16.4051,1497
28881,-4.7453,-3.7529,17.2287,1512
28886,-13.6338,0.6153,6.4955,1513
28891,-1.8364,6.3398,4.1982,1509
28896,12.9969,4.3275,15.0811,1524
28901,1.4581,-5.5318,17.5363,1497
28906,-9.9252,0.31,7.8482,1511
28911,-7.2197,5.8562,3.3579,1525
28916,8.3797,5.0889,12.7659,1514
28921,7.5633,-4.7585,16.842,1491
28926,-10.6458,-0.3891,10.55,1525
28931,-10.1778,4.9356,4.1276,1545
28936,8.0182,5.9053,10.0521,1515
28941,12.7755,-3.5434,15.9466,1512
28946,-9.8007,-0.1676,13.9319,1511
28951,-14.0911,3.1304,4.8554,1524
28956,4.0414,5.8598,6.3518,1519
28961,13.4207,0.1808,16.6217,1469
28966,-7.744,-2.3008,16.1716,1509
28971,-13.6721,1.6281,5.8203,1511
28976,1.239,6.268,5.0135,1511
28981,14.1653,2.6624,15.8293,1553
28986,-3.5303,-4.2689,17.7386,1525
28991,-11.3306,0.4705,6.6774,1524
28996,-3.8331,6.256,3.3411,1507
29001,10.1766,4.4915,14.7818,1529
29006,3.1819,-5.2194,17.1138,1503
29011,-11.558,-0.1772,8.685,1525
29016,-7.5585,5.8155,3.8642,1513
29021,10.0377,5.6228,12.2715,1511
29026,9.76,-5.1631,16.3368,1527
29031,-9.5852,0.3472,11.467,1497
29036,-12.4032,4.4269,4.1851,1501
29041,5.8251,5.4265,8.4671,1515
29046,12.5815,-1.9297,16.6589,1499
29051,-9.5146,-1.1133,14.3748,1525
29056,-12.949,2.8695,5.1966,1507
29061,3.9708,6.0813,6.3578,1511
29066,14.6561,0.4214,16.0615,1510
29071,-7.2209,-2.6121,17.2131,1531
29076,-12.9873,1.1013,5.9436,1509
29081,-0.7266,6.2656,3.8559,1502
29086,11.7663,3.3303,16.1154,1513
29091,-1.0786,-4.7333,17.2047,1525
29096,-12.5468,0.2418,7.361,1519
29101,-4.5394,6.3961,3.8307,1511
29106,11.6382,4.8818,14.1414,1511
29111,5.6479,-5.7545,16.9067,1510
29116,-9.6462,0.4884,9.2632,1528
29121,-9.7959,5.4444,3.6799,1499
29126,7.3454,5.1104,10.7895,1508
29131,10.5524,-3.8475,16.617,1502
29136,-10.4208,-0.4178,12.2787,1509
29141,-11.8788,4.0654,4.622,1529
29146,6.2345,5.8873,8.272,1509
29151,14.2228,-1.9154,15.9478,1502
29156,-9.2308,-1.0008,15.7562,1523
29161,-13.7403,2.1177,5.3953,1509
29166,1.8328,6.11,4.8818,1525
29171,12.9502,1.6544,16.684,1500
29176,-4.7609,-3.6045,16.7546,1509
29181,-12.8533,0.9984,6.5553,1523
29186,-1.4269,6.4368,4.2449,1507
29191,12.9933,3.7505,15.4438,1541
29196,0.7362,-5.3355,17.2945,1515
29201,-10.7631,0.4178,7.6519,1519
29206,-6.6391,6.0873,3.5075,1523
29211,9.3757,4.8183,13.1394,1513
29216,7.1539,-4.9799,16.7534,1517
29221,-11.0852,-0.0611,10.1227,1528
29226,-10.0413,5.047,4.2174,1499
29231,8.2768,5.7042,10.2292,1525
29236,12.633,-3.7792,15.9502,1505
29241,-9.7803,0.0539,13.7284,1507
29246,-13.7978,3.2573,4.7968,1517
29251,3.9325,5.624,6.4751,1519
29256,13.2986,0.0587,16.7283,1518
29261,-7.7752,-2.2697,16.0687,1516
29266,-13.4027,1.8196,5.7533,1516
29271,1.5993,6.1926,4.9847,1523
29276,14.0635,2.5211,15.9262,1507
29281,-3.7266,-4.1875,17.7099,1523
29286,-11.9806,0.5459,6.6068,1513
29291,-3.5494,6.28,3.4345,1518
29296,10.7033,4.4209,14.9267,1514
29301,3.1029,-5.1834,17.1305,1509
29306,-12.05,-0.1209,8.4372,1512
29311,-7.4663,5.9005,3.8654,1516
29316,10.0916,5.5653,12.2858,1507
29321,9.8055,-5.1356,16.4123,1519
29326,-9.5373,0.4465,11.3928,1519
29331,-12.4091,4.525,4.1492,1519
29336,5.3702,5.2625,8.4575,1501
29341,12.4223,-1.9201,16.7786,1501
29346,-9.2799,-1.3192,14.3401,1545
29351,-12.8988,2.9688,5.1344,1515
29356,4.1767,6.0286,6.4356,1516
29361,14.5352,0.3232,16.1429,1511
29366,-7.5022,-2.5151,17.1808,1511
29371,-13.8636,1.1552,5.8203,1510
29376,-0.498,6.2656,4.0019,1515
29381,12.5791,3.3579,16.0615,1509
29386,-1.6544,-4.6172,17.4442,1527
29391,-13.0149,0.1065,7.1144,1523
29396,-4.4831,6.2776,3.9241,1507
29401,11.7412,4.9967,14.2168,1519
29406,5.4073,-5.7976,16.9928,1511
29411,-9.3637,0.4381,9.1063,1531
29416,-9.7025,5.3762,3.6129,1511
29421,7.0018,5.2134,10.981,1511
29426,10.1586,-3.7745,16.6397,1510
29431,-10.2137,-0.5722,12.3086,1511
29436,-11.7328,4.063,4.5705,1527
29441,6.5362,5.9699,8.4216,1513
29446,14.0755,-1.9094,15.8771,1501
29451,-9.3506,-0.9673,15.8424,1503
29456,-14.3724,2.1009,5.3103,1501
29461,2.1763,5.9927,5.0039,1543
29466,13.283,1.8579,16.5798,1503
29471,-5.3271,-3.4285,17.0084,1511
29476,-13.4003,0.7841,6.4428,1507
29481,-1.3767,6.3734,4.2665,1509
29486,13.204,3.9624,15.3899,1525
29491,0.6752,-5.3941,17.3604,1510
29496,-10.0509,0.3807,7.6686,1529
29501,-6.7971,6.0454,3.3184,1515
29506,8.4922,4.9009,13.1322,1492
29511,6.8438,-4.9009,16.7187,1514
29516,-10.7512,-0.1867,10.2747,1511
29521,-10.0449,5.1128,4.1827,1509
29526,8.4934,5.7389,10.4052,1523
29531,12.2559,-3.8391,15.8508,1497
29536,-9.9671,0.0192,13.623,1547
29541,-13.6829,3.3423,4.7764,1517
29546,4.2557,5.6395,6.7373,1509
29551,13.4267,-0.2454,16.5487,1525
29556,-8.2887,-2.0614,15.9095,1515
29561,-13.307,1.731,5.855,1517
29566,1.5718,6.3111,5.211,1515
29571,14.1593,2.2517,15.8712,1510
29576,-3.9205,-4.0462,17.571,1561
29581,-11.248,0.5507,6.6499,1515
29586,-3.5386,6.3315,3.5219,1500
29591,10.2951,4.4029,14.8536,1532
29596,2.7641,-5.1846,16.9486,1447
29601,-11.2575,-0.0742,8.6574,1515
29606,-7.3478,5.8682,3.9552,1516
29611,10.1909,5.539,12.4367,1499
29616,9.1554,-5.1751,16.2159,1525
29621,-9.8641,0.3711,11.2037,1515
29626,-11.6526,4.4377,4.2581,1507
29631,6.3135,5.363,8.8202,1519
29636,12.5528,-2.2661,16.3716,1497
29641,-9.7899,-0.7494,14.2503,1544
29646,-12.9502,2.7845,5.223,1511
29651,4.1276,6.0597,6.4847,1524
29656,14.4586,0.2837,16.0759,1503
29661,-7.343,-2.3284,17.1652,1470
29666,-13.2136,1.1085,5.9005,1527
29671,-0.3184,6.2596,3.954,1499
29676,12.0931,3.377,16.0842,1531
29681,-1.5778,-4.5885,17.3077,1519
29686,-12.6462,0.2095,7.3011,1513
29691,-4.2353,6.1866,3.8786,1523
29696,11.8872,5.0781,14.2323,1519
29701,5.1763,-5.7892,16.866,1518
29706,-9.5972,0.4381,9.08,1519
29711,-9.5122,5.3618,3.65,1497
29716,7.2053,5.2241,10.9846,1501
29721,10.0724,-3.7709,16.6337,1507
29726,-10.4603,-0.4872,12.1709,1499
29731,-11.5556,4.0534,4.6148,1523
29736,6.6786,5.9149,8.3905,1512
29741,14.0121,-1.9142,15.9083,1502
29746,-9.4332,-0.8954,15.7515,1523
29751,-14.3113,2.1703,5.2792,1507
29756,2.2601,5.8981,4.9967,1531
29761,13.2555,1.8519,16.6565,1515
29766,-5.5438,-3.3902,17.0108,1515
29771,-13.3489,0.8559,6.3889,1513
29776,-1.0534,6.2596,4.2892,1510
29781,13.4231,3.9456,15.4749,1525
29786,0.2083,-5.2876,17.5998,1517
29791,-10.3765,0.3759,7.4855,1524
29796,-6.3315,5.9951,3.2944,1519
29801,8.8274,4.9716,13.2459,1507
29806,6.6319,-4.9105,16.8324,1510
29811,-11.0648,-0.2765,10.0808,1523
29816,-9.6199,5.1475,4.0606,1515
29821,8.6179,5.7832,10.5596,1531
29826,12.1613,-4.0055,16.0196,1498
29831,-9.839,0.0862,13.3896,1519
29836,-13.8648,3.4824,4.6376,1519
29841,4.4089,5.6048,6.7852,1517
29846,13.4363,-0.3256,16.751,1519
29851,-8.2983,-2.0051,15.8317,1509
29856,-13.5069,1.9154,5.6587,1465
29861,1.9381,6.2381,5.2433,1523
29866,14.3784,2.1165,16.0483,1515
29871,-4.4005,-3.8726,17.6644,1531
29876,-11.7316,0.5938,6.4919,1510
29881,-3.0777,6.2884,3.371,1515
29886,10.5141,4.2545,15.1206,1523
29891,2.2685,-5.1822,17.0683,1511
29896,-11.7843,-0.085,8.3725,1515
29901,-6.8726,5.9915,3.8379,1509
29906,10.4878,5.4803,12.7982,1510
29911,8.8238,-5.4025,16.4613,1525
29916,-9.675,0.4046,10.8278,1515
29921,-11.7268,4.6699,4.0594,1507
29926,6.3698,5.4253,9.0429,1511
29931,12.4175,-2.5486,16.5236,1509
29936,-9.7731,-0.8296,13.9821,1529
29941,-12.8628,3.0598,5.0422,1510
29946,4.4652,6.0358,6.8115,1516
29951,14.6549,0.0,15.9597,1513
29956,-7.8183,-2.2314,17.0551,1500
29961,-13.386,1.1983,5.7545,1519
29966,0.1137,6.1902,4.0606,1509
29971,12.1745,3.1388,16.1752,1517
29976,-2.1715,-4.5083,17.2383,1519
29981,-12.8892,0.2909,7.1718,1518
29986,-3.7625,6.3494,3.8642,1511
29991,12.1434,4.9321,14.4933,1513
29996,4.4257,-5.8251,16.9761,1511
30001,-9.742,0.4094,8.8873,1543
30006,-9.0381,5.5222,3.5853,1478
30011,7.6974,5.2253,11.473,1507
30016,9.6103,-4.1324,16.5727,1513
30021,-10.6231,-0.3807,11.8513,1511
30026,-11.376,4.227,4.4867,1507
30031,6.9971,5.8933,8.8669,1513
30036,13.811,-2.3739,15.8113,1509
30041,-9.6199,-0.6357,15.4258,1523
30046,-14.2802,2.3367,5.217,1542
30051,2.6085,5.9077,5.3115,1546
30056,13.3034,1.482,16.6481,1503
30061,-6.0382,-3.1747,16.8061,1507
30066,-13.3728,1.0762,6.3315,1503
30071,-0.4968,6.3267,4.4197,1513
30076,13.4686,3.5602,15.6042,1496
30081,-0.668,-5.0949,17.4944,1517
30086,-10.6279,0.3759,7.337,1523
30091,-5.8012,6.1244,3.4273,1513
30096,9.3362,4.78,13.7714,1501
30101,5.9041,-5.1439,16.757,1513
30106,-11.303,-0.1772,9.6762,1527
30111,-9.2416,5.3594,4.1252,1517
30116,8.9316,5.7281,11.0061,1529
30121,11.819,-4.3251,16.1094,1515
30126,-9.845,0.2837,13.0269,1523
30131,-13.5452,3.6871,4.5957,1525
30136,4.61,5.5414,7.1048,1510
30141,13.2411,-0.6656,16.6433,1515
30146,-8.4803,-1.8268,15.4761,1513
30151,-13.3022,2.1009,5.685,1517
30156,2.4397,6.1579,5.521,1529
30161,14.3329,1.8352,15.9693,1508
30166,-5.0123,-3.6787,17.6716,1523
30171,-12.3469,0.6297,6.3327,1520
30176,-2.6049,6.2932,3.5362,1511
30181,11.1151,4.2006,15.3169,1531
30186,1.6005,-5.1392,17.1413,1513
30191,-12.2164,-0.067,8.1116,1511
30196,-6.5745,6.037,3.8726,1511
30201,10.7296,5.4109,13.0197,1515
30206,8.5521,-5.5282,16.453,1529
30211,-9.5493,0.516,10.6554,1520
30216,-11.6777,4.8447,3.9756,1516
30221,6.0394,5.2493,9.2392,1523
30226,11.898,-2.6025,16.6708,1509
30231,-9.7983,-0.9242,13.7691,1542
30236,-12.6605,3.2825,4.9979,1511
30241,4.9368,5.9927,7.0186,1509
30246,14.5496,-0.3998,16.0902,1513
30251,-8.1343,-1.9944,16.8157,1501
30256,-13.9534,1.4365,5.6587,1508
30261,0.3256,6.262,4.197,1518
30266,12.639,2.8599,16.3847,1523
30271,-2.6264,-4.3191,17.2442,1520
30276,-13.0891,0.3759,7.0545,1517
30281,-3.5291,6.371,3.9552,1507
30286,12.3888,4.6974,14.704,1523
30291,4.0199,-5.788,16.9761,1515
30296,-9.663,0.492,8.7568,1531
30301,-8.9471,5.6814,3.5171,1509
30306,7.3765,5.0075,11.6394,1513
30311,9.2536,-4.203,16.6026,1512
30316,-10.5058,-0.3938,11.7076,1507
30321,-11.2587,4.4748,4.5047,1531
30326,7.1443,5.8622,8.8981,1501
30331,13.6194,-2.5175,15.9394,1497
30336,-9.6319,-0.565,15.1756,1517
30341,-14.4765,2.5654,5.1751,1508
30346,2.8551,5.8957,5.4851,1527
30351,13.5967,1.1947,16.7103,1483
30356,-6.3171,-2.9556,16.6792,1501
30361,-13.6481,1.1372,6.2441,1513
30366,-0.4764,6.341,4.4736,1507
30371,13.6182,3.4955,15.6401,1523
30376,-0.7422,-5.0769,17.5303,1513
30381,-10.4579,0.4441,7.2987,1517
30386,-5.7688,6.1579,3.3028,1523
30391,9.0046,4.7872,13.7966,1502
30396,5.7988,-5.1188,16.8061,1512
30401,-11.1067,-0.146,9.7528,1528
30406,-9.1877,5.4995,3.984,1501
30411,9.013,5.7078,11.0911,1523
30416,11.6466,-4.3862,16.0412,1511
30421,-9.9012,0.2442,12.9419,1513
30426,-13.5213,3.7876,4.4915,1518
30431,4.9225,5.5342,7.2245,1515
30436,13.3692,-0.8619,16.6589,1509
30441,-8.7269,-1.6747,15.536,1515
30446,-13.5296,2.1272,5.6096,1509
30451,2.393,6.2153,5.5665,1524
30456,14.4682,1.6963,16.0148,1503
30461,-5.1176,-3.6404,17.5399,1528
30466,-11.8417,0.6895,6.3458,1523
30471,-2.4995,6.3458,3.5003,1516
30476,10.7679,4.0713,15.3708,1525
30481,1.5502,-5.0793,17.0491,1509
30486,-11.7495,0.012,8.2061,1511
30491,-6.4129,6.0537,3.808,1515
30496,10.6578,5.3415,13.149,1500
30501,8.1187,-5.5246,16.3823,1528
30506,-9.7767,0.4369,10.4818,1515
30511,-11.2551,4.8315,4.0091,1515
30516,6.7648,5.363,9.5493,1519
30521,12.0428,-2.9437,16.502,1507
30526,-10.0473,-0.5578,13.5991,1509
30531,-12.8066,3.2992,4.9584,1510
30536,4.8219,5.9975,7.0964,1514
30541,14.6034,-0.5327,16.089,1519
30546,-8.1535,-1.8435,16.6086,1506
30551,-13.2854,1.4988,5.6898,1508
30556,0.4788,6.2501,4.2784,1517
30561,12.5085,2.6468,16.4745,1517
30566,-2.7845,-4.276,16.9833,1541
30571,-12.7383,0.5938,6.9659,1523
30576,-3.3303,6.341,3.9002,1508
30581,12.3349,4.525,14.8943,1513
30586,3.62,-5.7281,16.9079,1511
30591,-9.9814,0.5327,8.6622,1525
30596,-8.673,5.7485,3.6164,1505
30601,8.2552,4.9644,11.8728,1508
30606,9.1961,-4.5226,16.4721,1518
30611,-10.7919,-0.1401,11.4024,1513
30616,-11.2264,4.5179,4.44,1533
30621,7.2341,5.7329,9.1315,1471
30626,13.7343,-2.7378,15.9873,1501
30631,-9.7025,-0.3867,14.953,1531
30636,-14.0181,2.6133,5.1667,1509
30641,2.885,5.788,5.5246,1513
30646,13.2184,0.9852,16.8276,1518
30651,-6.1603,-2.9975,16.4649,1517
30656,-13.4111,1.3503,6.1854,1511
30661,-0.0168,6.3171,4.5226,1511
30666,13.6398,3.2597,15.755,1511
30671,-1.2845,-4.889,17.5746,1529
30676,-11.4263,0.4118,7.0461,1520
30681,-5.1834,6.1519,3.3208,1528
30686,10.2807,4.7573,13.9247,1501
30691,5.4336,-5.2277,17.0276,1507
30696,-11.3282,-0.1221,9.2931,1529
30701,-8.8813,5.4432,3.9863,1511
30706,8.9531,5.6108,11.1845,1517
30711,11.5436,-4.4556,16.2506,1513
30716,-9.645,0.231,12.5732,1515
30721,-13.4542,3.8583,4.4484,1519
30726,5.0434,5.5689,7.3586,1512
30731,13.1657,-0.9697,16.8073,1509
30736,-8.7388,-1.7609,15.3995,1517
30741,-13.5691,2.3343,5.3355,1502
30746,2.7737,6.0549,5.606,1524
30751,14.6561,1.5335,16.1022,1515
30756,-5.685,-3.5039,17.6848,1519
30761,-12.6605,0.7099,6.1758,1529
30766,-2.0482,6.2381,3.4273,1516
30771,11.3569,4.0773,15.7311,1531
30776,0.911,-5.1404,17.3472,1512
30781,-12.5121,-0.0718,7.8254,1511
30786,-5.9999,6.1124,3.7122,1517
30791,11.0253,5.4324,13.3046,1511
30796,7.7237,-5.7197,16.611,1529
30801,-9.4798,0.4705,10.2699,1524
30806,-11.3413,4.9799,3.8559,1511
30811,6.4643,5.381,9.6857,1529
30816,11.5341,-3.0071,16.5894,1501
30821,-9.924,-0.8368,13.3764,1523
30826,-12.4415,3.5207,4.8435,1506
30831,5.3618,5.9735,7.3813,1515
30836,14.5675,-0.7398,15.931,1525
30841,-8.6933,-1.6939,16.6253,1497
30846,-14.1533,1.6137,5.545,1507
30851,0.9493,6.1591,4.4843,1519
30856,12.9155,2.6959,16.3859,1513
30861,-3.6583,-4.118,17.2215,1525
30866,-13.4351,0.5279,6.7516,1513
30871,-2.8204,6.3817,4.0163,1511
30876,12.7479,4.5346,14.9554,1516
30881,2.9568,-5.7976,17.2167,1510
30886,-9.7576,0.4908,8.2875,1527
30891,-8.2025,5.8706,3.4189,1503
30896,7.841,4.9752,12.1661,1503
30901,8.5832,-4.5729,16.7247,1557
30906,-10.6757,-0.2921,11.1594,1516
30911,-10.7117,4.8111,4.2964,1513
30916,7.6806,5.7748,9.4858,1515
30921,13.3393,-3.1364,16.095,1505
30926,-9.8258,-0.3017,14.5963,1530
30931,-14.4574,3.0023,4.9333,1517
30936,3.4333,5.7581,5.8215,1513
30941,13.714,0.5495,16.8959,1519
30946,-7.1766,-2.6073,16.3967,1548
30951,-13.7379,1.506,6.0418,1515
30956,0.3855,6.3327,4.7944,1508
30961,14.1378,2.824,15.9274,1515
30966,-2.1919,-4.6878,17.4944,1527
30971,-10.9583,0.5543,6.9935,1512
30976,-4.6615,6.3099,3.3483,1517
30981,9.6582,4.543,14.3173,1513
30986,4.3096,-5.1954,16.8983,1503
30991,-11.4586,-0.1257,9.1889,1525
30996,-8.2636,5.8179,3.9708,1547
31001,9.736,5.5522,11.7256,1511
31006,10.4627,-4.9943,16.2028,1519
31011,-9.8545,0.4357,12.0201,1525
31016,-12.6713,4.2856,4.3862,1520
31021,5.5797,5.3391,7.9643,1511
31026,13.0412,-1.8244,16.7271,1501
31031,-9.4056,-1.1301,14.7291,1528
31036,-13.0903,2.7246,5.4253,1513
31041,3.3435,6.0956,5.9915,1525
31046,14.6202,0.5674,16.1357,1503
31051,-6.2716,-2.9125,17.0898,1515
31056,-12.5516,1.0953,6.1615,1515
31061,-1.5155,6.3913,3.7804,1507
31066,11.6382,3.3208,15.8736,1511
31071,-0.1329,-4.8842,16.8947,1517
31076,-12.1374,0.3543,7.8494,1517
31081,-5.3319,6.3375,3.8918,1517
31086,11.5389,4.8722,13.8157,1516
31091,6.3039,-5.8227,16.4422,1517
31096,-10.1347,0.5543,9.8976,1517
31101,-10.1526,5.4408,3.9385,1509
31106,7.4939,5.0015,10.416,1525
31111,10.6985,-3.7529,16.417,1511
31116,-10.8014,-0.3903,12.6079,1512
31121,-12.1637,3.8822,4.9668,1513
31126,6.2225,5.9388,7.8961,1515
31131,14.1437,-1.7549,15.858,1514
31136,-8.8861,-1.1744,15.8676,1507
31141,-13.447,2.0063,5.6503,1519
31146,1.1983,6.0023,4.8387,1533
31151,12.9838,1.7514,16.5379,1507
31156,-4.2557,-3.6727,16.4326,1512
31161,-12.3589,0.9601,7.0713,1526
31166,-1.7741,6.4679,4.2844,1505
31171,12.9478,3.723,15.1565,1532
31176,1.0582,-5.3235,16.9545,1500
31181,-11.3629,0.4549,8.0409,1503
31186,-6.8726,6.116,3.6811,1512
31191,9.8114,4.8267,12.8377,1501
31196,7.2652,-4.9859,16.5296,1524
31201,-11.2611,0.0395,10.3633,1513
31206,-10.2795,5.0589,4.4101,1513
31211,8.3689,5.527,10.0126,1500
31216,12.4714,-3.7505,16.0627,1499
31221,-9.7683,0.2227,13.7846,1543
31226,-13.5344,3.4524,4.8782,1501
31231,4.045,5.4851,6.4045,1513
31236,13.641,-0.152,16.8205,1517
31241,-8.0182,-1.9489,15.8652,1497
31246,-13.2603,1.9836,5.9101,1513
31251,1.5407,6.0968,5.0123,1523
31256,14.5017,2.2302,16.0938,1517
31261,-3.565,-4.0881,17.6417,1542
31266,-11.8824,0.68,6.5864,1525
31271,-3.5183,6.183,3.2537,1507
31276,10.2412,4.2844,14.9027,1515
31281,3.1735,-5.1451,17.1748,1513
31286,-12.1793,-0.0718,8.5724,1520
31291,-7.2149,5.9544,3.7338,1511
31296,10.2232,5.4779,12.317,1515
31301,9.7528,-5.2696,16.4374,1525
31306,-9.73,0.5387,11.3545,1511
31311,-12.3158,4.6735,4.0582,1519
31316,5.7844,5.2888,8.4862,1519
31321,12.7192,-2.2027,16.9509,1507
31326,-9.7061,-0.9804,14.2491,1527
31331,-12.8473,3.1795,5.0709,1513
31336,4.0845,5.9628,6.4416,1516
31341,14.9326,0.0251,16.35,1511
31346,-7.4196,-2.4193,17.0252,1512
31351,-13.5248,1.47,5.8191,1513
31356,-0.5207,6.2752,3.8092,1517
31361,12.2272,2.9197,16.496,1511
31366,-1.4748,-4.6974,17.0324,1517
31371,-13.0185,0.5255,7.2413,1523
31376,-4.3167,6.456,3.8092,1515
31381,12.0728,4.5789,14.4909,1507
31386,5.211,-6.0537,16.7977,1513
31391,-9.9395,0.7614,9.165,1528
31396,-9.8043,5.7281,3.6248,1512
31401,7.1778,4.8159,11.1642,1511
31406,9.991,-4.2018,16.6648,1515
31411,-10.562,-0.328,12.0273,1522
31416,-11.6418,4.4353,4.5981,1525
31421,6.7924,5.8191,8.6503,1523
31426,13.8253,-2.5211,15.9047,1501
31431,-9.3709,-0.7422,15.3923,1527
31436,-14.4143,2.375,5.3762,1502
31441,2.557,5.9544,5.3379,1541
31446,13.5009,1.4257,16.3763,1491
31451,-5.8598,-3.2813,16.8037,1511
31456,-13.3022,0.7829,6.6068,1509
31461,-0.7111,6.3506,4.5286,1507
31466,13.5943,3.9397,15.1481,1543
31471,-0.2981,-5.1858,17.5004,1502
31476,-10.5608,0.103,7.6567,1522
31481,-5.9161,5.9843,3.4309,1523
31486,9.2464,5.3271,13.2028,1501
31491,5.8107,-4.9045,16.7391,1523
31496,-11.0014,-0.5004,10.155,1528
31501,-9.4092,5.1655,4.3395,1513
31506,9.2991,6.0178,10.7033,1528
31511,11.4539,-4.1192,15.8125,1509
31516,-9.9036,0.0838,13.2076,1517
31521,-13.1346,3.4943,4.8399,1519
31526,4.9225,5.6096,7.027,1517
31531,13.4961,-0.4393,16.35,1523
31536,-8.6407,-1.6867,15.8388,1507
31541,-13.532,1.8519,5.8155,1515
31546,2.235,6.1555,5.3403,1524
31551,14.3892,2.059,15.7957,1515
31556,-4.9404,-3.6488,17.5136,1519
31561,-12.7096,0.6009,6.5146,1525
31566,-2.4553,6.2369,3.6129,1509
31571,11.3916,4.3634,15.2068,1525
31576,1.4174,-5.1344,17.1592,1513
31581,-12.5839,-0.0215,8.169,1523
31586,-6.5194,6.0597,3.8906,1509
31591,11.0038,5.5378,12.9107,1501
31596,8.3629,-5.6443,16.3476,1527
31601,-9.675,0.6237,10.8014,1505
31606,-11.6274,4.9943,4.0761,1512
31611,5.5474,5.1559,9.3111,1527
31616,11.4718,-2.8419,16.6517,1513
31621,-9.6043,-0.8487,13.5596,1528
31626,-12.3972,3.6093,5.1128,1512
31631,5.2792,5.9436,7.1515,1525
31636,14.3221,-0.923,16.1166,1503
31641,-8.351,-1.6352,16.4099,1509
31646,-14.4789,1.9297,5.709,1516
31651,0.5519,6.1878,4.5346,1515
31656,13.6302,2.2625,16.4661,1513
31661,-3.2453,-4.0821,17.1126,1530
31666,-13.1262,0.7518,6.8965,1515
31671,-3.5231,6.4811,3.966,1507
31676,12.2858,4.0558,14.9757,1520
31681,3.1065,-5.6348,16.848,1507
31686,-10.7571,0.5171,8.5042,1533
31691,-8.0481,5.9867,3.6607,1505
31696,9.1111,4.8698,12.2416,1501
31701,8.8645,-5.0003,16.4996,1519
31706,-11.0433,0.1041,11.0983,1509
31711,-11.1211,4.7836,4.4688,1527
31716,7.3203,5.6336,9.2931,1481
31721,13.4111,-3.219,16.0256,1510
31726,-9.5517,-0.3256,14.4909,1531
31731,-13.8481,2.9892,5.1511,1519
31736,3.1879,5.8227,5.9029,1503
31741,13.368,0.401,16.611,1511
31746,-6.8474,-2.8156,16.089,1512
31751,-13.1525,1.6041,6.3087,1513
31756,0.4334,6.3841,4.8207,1509
31761,13.9965,2.7797,15.6748,1513
31766,-2.0279,-4.7788,17.3053,1525
31771,-11.0564,0.5303,7.2233,1517
31776,-4.9416,6.365,3.4776,1511
31781,10.0042,4.5885,14.1581,1505
31786,4.4137,-5.2194,16.7139,1516
31791,-11.4179,-0.0539,9.3733,1520
31796,-8.4946,5.7066,4.1061,1507
31801,9.8354,5.6886,11.5556,1510
31806,10.507,-4.865,16.0531,1512
31811,-9.8282,0.3627,12.1913,1495
31816,-12.651,4.1599,4.4999,1533
31821,5.5869,5.4839,7.8973,1519
31826,13.1633,-1.5395,16.4398,1508
31831,-9.3194,-1.1959,14.9255,1516
31836,-13.2423,2.5283,5.4731,1501
31841,3.2836,6.0849,6.0011,1527
31846,14.8824,1.0104,15.9621,1511
31851,-6.432,-2.9688,17.5244,1513
31856,-13.228,0.8703,6.11,1523
31861,-1.1349,6.1339,3.7062,1515
31866,11.7615,3.9828,15.7191,1531
31871,-0.1927,-4.9189,17.498,1505
31876,-13.1825,-0.1544,7.6231,1512
31881,-4.8722,6.1124,3.7673,1523
31886,11.5532,5.6036,13.6541,1514
31891,6.6188,-5.8359,16.8899,1523
31896,-9.4774,0.2789,9.7229,1508
31901,-10.5261,5.12,3.6703,1502
31906,7.2413,5.636,10.2208,1526
31911,11.0301,-3.4608,16.526,1499
31916,-10.0545,-0.814,12.8628,1515
31921,-12.0752,3.6476,4.6292,1511
31926,5.9304,6.0765,7.8614,1511
31931,14.5005,-1.1779,15.7359,1513
31936,-8.9495,-1.4413,16.3931,1507
31941,-14.8524,1.7322,5.5115,1501
31946,1.8771,6.0035,4.6471,1517
31951,13.131,2.7461,16.2183,1517
31956,-4.7034,-3.8762,17.4094,1515
31961,-14.1689,0.3352,6.693,1513
31966,-1.798,6.1902,4.1599,1519
31971,13.2316,4.8231,14.9302,1519
31976,1.4724,-5.7006,17.5028,1499
31981,-10.0018,0.1113,8.0397,1527
31986,-7.3059,5.7616,3.3387,1501
31991,8.4647,5.4815,12.6198,1497
31996,7.5393,-4.7381,16.6385,1515
32001,-10.7536,-0.5136,10.7907,1507
32006,-10.2568,4.9763,4.2186,1509
32011,8.1367,5.9328,10.1263,1515
32016,12.712,-3.5865,15.8029,1501
32021,-9.8785,-0.1664,13.9654,1531
32026,-14.273,3.2573,4.8698,1516
32031,4.0785,5.8191,6.5158,1511
32036,13.6721,-0.0503,16.453,1513
32041,-7.8985,-2.3284,16.0711,1500
32046,-13.8409,1.7633,5.9089,1512
32051,1.1037,6.3542,5.2265,1508
32056,14.3317,2.3152,15.7239,1516
32061,-3.4955,-4.379,17.3903,1523
32066,-11.3389,0.6153,6.8534,1523
32071,-3.8104,6.4871,3.5949,1519
32076,10.3214,4.2377,14.7914,1516
32081,3.0969,-5.3175,16.8085,1513
32086,-11.6921,0.0563,8.7736,1531
32091,-7.4735,6.0801,3.9373,1515
32096,10.1598,5.4037,12.396,1499
32101,9.4547,-5.4133,16.1154,1519
32106,-9.9766,0.5662,11.3306,1518
32111,-12.2439,4.7345,4.3167,1523
32116,6.3195,5.3977,8.8753,1511
32121,12.7982,-2.6037,16.3704,1499
32126,-9.7324,-0.7326,14.1988,1529
32131,-13.2399,3.1603,5.1643,1506
32136,3.9863,6.0011,6.7193,1526
32141,14.9518,-0.006,15.9993,1517
32146,-7.3035,-2.3499,16.8803,1515
32151,-13.2016,1.2977,5.9089,1520
32156,-0.2861,6.2979,4.1216,1512
32161,12.1613,2.9904,16.0807,1509
32166,-1.4425,-4.5993,17.115,1519
32171,-13.2687,0.425,7.2939,1515
32176,-4.039,6.2991,3.9097,1517
32181,11.9734,4.7956,14.3604,1503
32186,5.3331,-5.9687,16.8468,1511
32191,-9.8569,0.6452,9.1854,1523
32196,-9.8485,5.7221,3.626,1513
32201,8.0457,5.1164,11.1342,1523
32206,10.5022,-4.3443,16.6217,1502
32211,-10.3777,-0.2035,12.0883,1509
32216,-11.7627,4.4257,4.3946,1517
32221,6.1268,5.7928,8.6419,1499
32226,14.5077,-2.2996,15.9837,1511
32231,-9.3278,-0.923,15.3911,1509
32236,-14.3425,2.4912,5.2373,1517
32241,2.3786,5.9556,5.2445,1526
32246,13.3644,1.1217,16.7714,1511
32251,-5.4396,-3.4943,16.6074,1523
32256,-14.0576,1.2665,6.3339,1519
32261,-1.1875,6.4189,4.4484,1518
32266,13.6481,3.553,15.4234,1522
32271,0.2131,-5.4576,17.164,1513
32276,-10.55,0.6153,7.7117,1519
32281,-6.529,6.3123,3.468,1515
32286,9.4463,4.5921,13.4494,1513
32291,6.505,-5.1799,16.6086,1527
32296,-11.2707,-0.097,10.1466,1513
32301,-9.5708,5.4624,4.142,1511
32306,8.5892,5.6012,10.7188,1517
32311,12.1793,-4.3419,15.8999,1513
32316,-9.9311,0.17,13.2328,1519
32321,-13.884,3.7553,4.798,1515
32326,4.7285,5.6371,7.0653,1516
32331,13.3189,-0.7889,16.4984,1516
32336,-8.248,-1.9465,15.5551,1503
32341,-13.7655,2.2314,5.7305,1517
32346,2.0255,6.2525,5.5378,1512
32351,14.5125,1.6963,15.7383,1503
32356,-4.6184,-3.875,17.2406,1545
32361,-11.9961,0.759,6.6858,1523
32366,-2.8838,6.5003,3.7709,1507
32371,11.1486,3.9229,15.1481,1529
32376,1.7813,-5.2194,16.775,1507
32381,-12.2643,0.073,8.3641,1533
32386,-6.6631,6.092,3.9756,1496
32391,10.6913,5.3774,12.8808,1515
32396,8.4851,-5.6144,16.2052,1518
32401,-9.7432,0.5926,10.8613,1511
32406,-11.892,4.9895,4.2713,1521
32411,6.5637,5.3115,9.42,1517
32416,11.8728,-2.8347,16.2566,1493
32421,-9.7839,-0.7733,13.7726,1547
32426,-12.8054,3.5973,5.053,1507
32431,4.9392,5.9556,7.2197,1523
32436,14.6621,-0.6285,15.8616,1507
32441,-8.0613,-1.9178,16.5882,1515
32446,-13.5883,1.6855,5.8071,1523
32451,0.5399,6.2788,4.3981,1515
32456,12.7084,2.2673,16.289,1505
32461,-2.7641,-4.2485,16.8253,1517
32466,-13.3932,0.7482,7.0856,1515
32471,-3.2477,6.4643,4.1456,1519
32476,12.5815,4.2593,14.7435,1516
32481,3.6559,-5.8119,16.8324,1515
32486,-9.9659,0.7099,8.6,1541
32491,-8.7077,5.9388,3.5745,1507
32496,8.2612,4.8303,11.9279,1485
32501,9.2045,-4.5071,16.5691,1514
32506,-10.756,-0.1568,11.4742,1507
32511,-10.8924,4.81,4.227,1541
32516,7.1383,5.7233,9.3529,1513
32521,13.9259,-3.0382,15.9382,1502
32526,-9.7576,-0.3567,14.7662,1523
32531,-14.5819,2.9425,4.9979,1515
32536,3.2178,5.8849,5.7545,1531
32541,13.7056,0.486,16.8899,1513
32546,-6.6295,-2.8455,16.3811,1515
32551,-14.2335,1.6149,6.0238,1513
32556,-0.0323,6.3434,4.7441,1515
32561,14.1126,2.8922,15.755,1511
32566,-1.4952,-4.9823,17.3005,1512
32571,-10.9164,0.6656,7.2149,1529
32576,-5.3463,6.3829,3.4764,1525
32581,9.8114,4.3766,14.218,1517
32586,4.9919,-5.3259,16.7235,1509
32591,-11.564,0.0096,9.4116,1527
32596,-8.6598,5.8203,3.9253,1501
32601,9.2404,5.4516,11.5305,1519
32606,11.1079,-4.9428,16.0531,1493
32611,-9.9862,0.4094,12.3708,1511
32616,-13.386,4.2653,4.5837,1527
32621,5.381,5.5522,7.7979,1515
32626,13.1214,-1.6891,16.5403,1503
32631,-8.8669,-1.4892,14.9398,1515
32636,-13.5536,2.7521,5.4408,1507
32641,2.891,6.1794,6.0537,1543
32646,14.6681,0.8332,15.9047,1511
32651,-5.8035,-3.3267,17.0695,1533
32656,-12.2571,1.0762,6.3746,1531
32661,-1.974,6.5398,3.8858,1511
32666,11.412,3.304,15.6293,1527
32671,0.4824,-5.041,16.7163,1511
32676,-12.3242,0.395,7.9691,1494
32681,-5.849,6.4691,3.9768,1517
32686,11.23,4.8674,13.5141,1496
32691,7.1874,-5.788,16.2662,1517
32696,-9.9419,0.7614,10.2029,1515
32701,-10.9978,5.5115,4.0725,1519
32706,7.0593,5.0003,10.1801,1513
32711,11.3234,-3.559,16.3979,1495
32716,-10.2819,-0.4046,13.0149,1519
32721,-12.3672,4.0785,4.8566,1517
32726,5.5019,5.8179,7.8254,1509
32731,14.6956,-1.4772,15.9262,1523
32736,-8.7185,-1.3348,16.0412,1503
32741,-13.6589,1.9585,5.5941,1509
32746,1.2426,6.1866,4.6783,1516
32751,12.7443,1.8507,16.5846,1515
32756,-3.614,-3.9863,16.6852,1531
32761,-13.374,0.9852,6.7672,1528
32766,-2.3846,6.4955,4.1695,1525
32771,12.8281,3.9121,15.1302,1503
32776,2.4277,-5.6826,16.9737,1508
32781,-10.4926,0.6488,8.2049,1527
32786,-7.7668,6.0932,3.5219,1507
32791,9.1291,4.8614,12.6127,1507
32796,8.5329,-5.0637,16.5894,1516
32801,-10.7452,0.091,10.7703,1512
32806,-10.5943,5.017,4.1887,1532
32811,7.2796,5.6491,9.809,1523
32816,13.5248,-3.4668,16.0388,1503
32821,-9.7947,-0.1544,14.212,1533
32826,-14.0875,3.2034,4.9524,1512
32831,3.7146,5.8071,6.177,1511
32836,13.4422,-0.0515,16.8181,1507
32841,-7.0413,-2.6576,16.0579,1509
32846,-13.975,1.8627,5.8897,1517
32851,0.4669,6.3351,4.9548,1517
32856,14.127,2.5582,15.8293,1514
32861,-2.2745,-4.7968,17.3232,1513
32866,-11.1881,0.7003,7.0749,1519
32871,-4.7752,6.4476,3.5398,1519
32876,10.1526,4.2365,14.4741,1502
32881,4.2796,-5.369,16.6038,1519
32886,-11.716,0.0802,9.1518,1523
32891,-8.2768,5.9304,3.9983,1505
32896,9.5804,5.4109,11.8489,1519
32901,10.6458,-5.1116,16.0591,1507
32906,-9.9,0.48,12.1206,1508
32911,-13.0185,4.4305,4.525,1521
32916,5.4552,5.3798,8.1295,1513
32921,12.6905,-1.822,16.5248,1514
32926,-8.9807,-1.3886,14.6334,1507
32931,-13.2663,2.9161,5.3989,1507
32936,3.3531,6.1818,6.2968,1532
32941,14.5735,0.5016,15.9813,1503
32946,-6.353,-3.0418,16.9294,1511
32951,-12.5911,1.1768,6.2369,1531
32956,-1.4641,6.5338,3.9804,1503
32961,11.8597,2.9892,15.779,1530
32966,-0.1963,-4.9763,16.7067,1513
32971,-12.5528,0.4669,7.7835,1511
32976,-5.4265,6.505,4.1372,1514
32981,11.4742,4.7262,13.8744,1511
32986,6.5146,-5.9185,16.2961,1528
32991,-9.8701,0.7278,9.9024,1517
32996,-10.7069,5.5941,4.027,1509
33001,6.9552,4.9261,10.562,1532
33006,10.6434,-3.6978,16.2866,1501
33011,-10.1394,-0.4022,12.8006,1512
33016,-12.2392,4.1108,4.8566,1515
33021,6.0238,5.867,8.102,1515
33026,14.1425,-1.822,15.7754,1509
33031,-8.9244,-1.1349,15.7646,1509
33036,-13.7487,2.1129,5.5893,1494
33041,1.7059,6.2142,4.9919,1516
33046,13.137,1.5323,16.4003,1512
33051,-4.3946,-3.7026,16.6397,1581
33056,-13.3177,1.0726,6.7205,1515
33061,-2.0937,6.4883,4.3012,1509
33066,13.052,3.6679,15.2116,1529
33071,1.7466,-5.5964,16.8636,1507
33076,-10.1311,0.7769,8.169,1531
33081,-7.6902,6.3518,3.5602,1512
33086,8.418,4.5107,12.8904,1510
33091,7.5393,-4.9309,16.3955,1515
33096,-10.7859,0.0599,10.7811,1519
33101,-10.3777,5.3474,4.2928,1523
33106,8.1116,5.4324,10.1502,1519
33111,12.6569,-3.8307,15.8783,1509
33116,-9.9982,0.1281,13.8983,1531
33121,-13.8876,3.5159,4.9608,1501
33126,4.1396,5.7269,6.6044,1520
33131,13.5799,-0.4489,16.5619,1513
33136,-7.7452,-2.1201,15.767,1500
33141,-13.7535,2.0949,5.9173,1513
33146,1.0415,6.3063,5.2265,1510
33151,14.297,2.0387,15.8604,1518
33156,-3.1005,-4.3562,17.1497,1519
33161,-10.9942,0.9146,6.942,1523
33166,-4.1911,6.62,3.5805,1511
33171,9.8988,3.9002,14.7363,1507
33176,3.4189,-5.2732,16.5906,1513
33181,-11.2887,0.2658,9.0273,1545
33186,-7.6399,6.2058,3.9816,1500
33191,9.8809,5.1415,12.3433,1509
33196,9.6714,-5.2828,16.1082,1499
33201,-10.1694,0.6416,11.5329,1515
33206,-12.1793,4.7944,4.2976,1540
33211,6.256,5.3714,8.7065,1509
33216,13.1956,-2.6324,16.3847,1495
33221,-9.329,-0.6967,14.4574,1524
33226,-13.7918,3.0777,5.2277,1507
33231,3.5458,6.098,6.365,1533
33236,14.5005,0.1018,16.1656,1492
33241,-6.8821,-2.6193,16.7199,1511
33246,-13.7032,1.3527,5.9221,1510
33251,-0.5207,6.4045,4.2713,1513
33256,13.0101,2.9066,15.949,1524
33261,-1.5311,-4.6938,17.1772,1513
33266,-13.0484,0.425,7.2592,1523
33271,-4.7345,6.4488,3.9181,1512
33276,11.6406,4.7046,14.0791,1507
33281,5.5091,-5.8323,16.6888,1516
33286,-9.7516,0.6381,9.4894,1517
33291,-9.9455,5.7114,3.8451,1512
33296,7.6315,5.053,11.0576,1517
33301,10.0796,-4.1408,16.3823,1500
33306,-10.5093,-0.2933,12.3661,1463
33311,-11.8154,4.476,4.5897,1513
33316,6.3207,5.8215,8.442,1514
33321,14.1557,-2.3188,15.8604,1523
33326,-9.3075,-0.9433,15.4462,1503
33331,-13.6505,2.4169,5.4372,1527
33336,2.2087,6.1543,5.2158,1517
33341,13.0125,1.0175,16.5691,1509
33346,-5.0805,-3.547,16.3261,1533
33351,-13.2627,1.3922,6.5936,1519
33356,-1.3024,6.5505,4.537,1511
33361,13.2794,3.2358,15.3157,1531
33366,0.3292,-5.4767,16.836,1516
33371,-10.6027,0.7434,7.926,1523
33376,-6.8211,6.5338,3.7074,1513
33381,9.3937,4.3622,13.4147,1513
33386,6.2932,-5.2086,16.3105,1517
33391,-11.2755,0.1496,10.3082,1511
33396,-9.8785,5.5929,4.385,1509
33401,8.8155,5.4827,10.7847,1519
33406,11.9507,-4.3922,15.6868,1497
33411,-10.0497,0.3903,13.2902,1522
33416,-13.149,3.8678,4.9835,1517
33421,4.4628,5.5378,7.1156,1513
33426,12.967,-1.166,16.5786,1511
33431,-7.9272,-1.8591,15.196,1514
33436,-13.0676,2.63,5.8969,1510
33441,2.0004,6.2644,5.6036,1517
33446,14.2359,1.1217,15.9262,1499
33451,-4.4173,-3.7086,16.8133,1529
33456,-12.3361,1.0175,6.6535,1522
33461,-3.0143,6.626,3.8678,1513
33466,11.5855,3.4046,15.2654,1515
33471,2.0111,-5.2672,16.6134,1509
33476,-12.3864,0.4334,8.3845,1531
33481,-6.9623,6.2716,4.1108,1515
33486,10.5943,4.9692,12.8736,1514
33491,8.8789,-5.6252,16.0555,1563
33496,-9.9742,0.8464,11.0277,1513
33501,-12.0428,5.0841,4.2653,1523
33506,6.4224,5.1499,9.3146,1499
33511,11.9662,-2.879,16.4039,1495
33516,-9.6426,-0.8739,13.8672,1525
33521,-12.8724,3.6356,5.0159,1517
33526,4.5562,5.9747,7.1192,1541
33531,14.6573,-0.6177,15.9035,1509
33536,-7.7883,-2.162,16.5487,1513
33541,-13.8253,1.7011,5.8047,1515
33546,0.1437,6.3794,4.4532,1510
33551,13.0424,2.3858,16.1836,1515
33556,-2.3691,-4.4173,16.9186,1523
33561,-13.301,0.6955,7.1311,1525
33566,-4.0175,6.5314,4.0941,1527
33571,12.2344,4.3,14.4741,1513
33576,4.4652,-5.8933,16.6469,1487
33581,-9.8629,0.8236,9.0537,1529
33586,-9.3781,5.9723,3.7649,1519
33591,7.9152,4.7968,11.6394,1517
33596,9.5229,-4.3778,16.3931,1501
33601,-10.562,-0.1149,11.9602,1514
33606,-11.3497,4.7333,4.4041,1523
33611,6.7038,5.7162,9.0309,1507
33616,13.9343,-2.7569,15.846,1495
33621,-9.7085,-0.5722,15.0978,1513
33626,-14.3317,2.7892,5.1679,1515
33631,2.8072,6.0047,5.6755,1531
33636,13.7906,0.6009,16.5643,1533
33641,-6.1914,-3.0622,16.4877,1517
33646,-14.1138,1.4485,6.1651,1523
33651,-0.7841,6.4536,4.6902,1519
33656,13.7643,3.0478,15.4953,1524
33661,-0.5016,-5.2553,17.1976,1517
33666,-10.4423,0.7578,7.5645,1500
33671,-6.1004,6.4284,3.5303,1509
33676,9.2955,4.4137,13.7104,1509
33681,5.7269,-5.2014,16.5188,1517
33686,-11.0624,0.0754,9.9168,1519
33691,-9.013,5.6407,4.1144,1503
33696,8.8107,5.5893,11.0708,1509
33701,11.6466,-4.5717,15.9825,1507
33706,-10.088,0.3567,12.8724,1517
33711,-13.6841,4.0546,4.5765,1515
33716,5.0925,5.6647,7.4663,1509
33721,13.86,-1.4485,16.4829,1503
33726,-8.7544,-1.4042,15.3911,1515
33731,-14.2072,2.4648,5.3977,1466
33736,2.0231,6.2596,5.5929,1515
33741,14.6358,1.3228,16.0902,1513
33746,-5.0793,-3.6105,17.3077,1523
33751,-12.2823,0.9744,6.3195,1514
33756,-2.4002,6.4332,3.6859,1500
33761,11.5903,3.5159,15.5049,1522
33766,1.2905,-5.1763,16.9905,1507
33771,-12.645,0.2382,8.0182,1529
33776,-6.1531,6.2261,3.7792,1501
33781,10.7775,5.1691,13.1909,1509
33786,8.4276,-5.8706,16.4925,1509
33791,-9.76,0.735,10.5034,1511
33796,-11.8525,5.2002,3.9205,1565
33801,6.7505,5.284,9.5469,1503
33806,11.8908,-3.0251,16.6852,1497
33811,-9.8581,-0.8475,13.5452,1529
33816,-12.7144,3.7302,4.6819,1513
33821,4.7956,5.9687,7.2915,1515
33826,14.8345,-0.7913,16.0244,1511
33831,-8.3785,-1.986,16.5679,1507
33836,-13.9797,1.6412,5.5581,1509
33841,0.6632,6.2824,4.4377,1513
33846,12.9694,2.3308,16.4194,1511
33851,-3.2585,-4.2916,17.1425,1527
33856,-13.7954,0.6201,6.8235,1519
33861,-3.1711,6.4715,4.0318,1518
33866,12.5552,4.3862,14.8153,1512
33871,3.48,-5.9616,17.024,1509
33876,-9.8713,0.6632,8.5988,1543
33881,-8.7688,6.0094,3.5195,1509
33886,8.023,4.9596,12.0452,1513
33891,8.8119,-4.6112,16.4589,1511
33896,-10.5441,-0.2849,11.5269,1511
33901,-11.0588,4.8578,4.2976,1527
33906,7.2125,5.7844,9.4571,1514
33911,13.3237,-3.2322,15.8173,1496
33916,-9.8976,-0.4106,14.6836,1515
33921,-14.0192,2.958,5.0961,1507
33926,3.3459,6.0334,6.0621,1523
33931,13.5141,0.2574,16.4877,1507
33936,-6.8199,-2.7725,16.2746,1519
33941,-13.7547,1.6305,6.1447,1528
33946,-0.0587,6.4272,4.8985,1515
33951,13.8983,2.745,15.6186,1515
33956,-1.5586,-4.9716,17.164,1511
33961,-10.5058,0.7362,7.3239,1511
33966,-5.4169,6.5086,3.5781,1519
33971,9.3913,4.3419,14.0911,1503
33976,4.6962,-5.3259,16.4003,1512
33981,-10.9966,0.1592,9.6403,1563
33986,-8.7484,5.8035,4.1851,1509
33991,9.3458,5.5498,11.5963,1520
33996,10.7631,-4.938,15.7622,1501
34001,-10.1658,0.4848,12.4403,1513
34006,-12.9155,4.2665,4.6555,1517
34011,5.6719,5.6467,8.0349,1513
34016,13.3154,-1.8902,16.1142,1509
34021,-9.0573,-1.1863,15.0942,1513
34026,-13.6493,2.5367,5.5677,1517
34031,2.721,6.2704,6.0645,1523
34036,14.364,0.899,15.6653,1507
34041,-5.8466,-3.31,17.0276,1527
34046,-12.2463,0.9553,6.4212,1513
34051,-1.7406,6.529,4.0989,1509
34056,11.7879,3.4943,15.3325,1516
34061,0.158,-5.0793,16.9773,1519
34066,-12.6318,0.2358,7.8781,1517
34071,-5.6216,6.213,4.0522,1502
34076,11.2264,5.2732,13.3273,1497
34081,7.276,-5.8754,16.4613,1527
34086,-9.6438,0.6548,10.307,1507
34091,-11.0277,5.2134,4.0845,1517
34096,6.5757,5.357,10.0389,1514
34101,10.9056,-3.3124,16.2494,1497
34106,-9.7264,-0.6967,13.3237,1543
34111,-12.2954,3.7409,4.9249,1507
34116,5.551,6.031,7.689,1486
34121,14.127,-1.251,15.6461,1515
34126,-8.8178,-1.5407,16.2818,1499
34131,-14.2982,1.8938,5.6,1525
34136,1.2055,6.2908,4.9273,1509
34141,13.5117,1.9752,16.0998,1501
34146,-4.136,-3.893,17.0228,1519
34151,-13.1897,0.729,6.7145,1523
34156,-2.9137,6.5625,4.1803,1507
34161,12.5253,4.0306,14.8824,1524
34166,2.314,-5.7018,16.8001,1512
34171,-10.094,0.5638,8.4982,1544
34176,-7.9595,6.1196,3.8008,1509
34181,8.8633,4.9105,12.5049,1511
34186,7.9835,-5.0051,16.18,1508
34191,-11.1211,0.0156,11.0744,1518
34196,-10.7655,5.0757,4.4819,1529
34201,7.6962,5.7688,9.7731,1510
34206,13.1801,-3.5973,15.6712,1501
34211,-9.8354,-0.0778,14.3915,1507
34216,-13.222,2.9568,5.2804,1510
34221,3.3495,5.9005,6.0813,1525
34226,12.9131,-0.0084,16.4996,1507
34231,-6.4679,-2.7126,15.8125,1505
34236,-12.8676,1.8675,6.2836,1525
34241,0.4741,6.3901,4.9847,1511
34246,13.6158,2.4588,15.5803,1527
34251,-2.3164,-4.6424,17.085,1503
34256,-12.3565,0.6776,7.0689,1531
34261,-4.6196,6.4428,3.796,1515
34266,11.1558,4.3646,14.2311,1513
34271,4.6579,-5.6503,16.7031,1519
34276,-10.4986,0.3879,9.2871,1529
34281,-8.7819,5.8311,4.112,1516
34286,8.9998,5.2265,11.637,1528
34291,10.3669,-4.8806,16.0639,1507
34296,-10.0928,0.3005,12.062,1525
34301,-12.2823,4.3874,4.4879,1511
34306,5.9268,5.709,8.4719,1517
34311,13.8229,-2.3008,16.0519,1515
34316,-9.2213,-0.9337,15.1505,1513
34321,-14.1378,2.6492,5.3079,1519
34326,2.7521,6.1782,5.7748,1515
34331,14.0911,0.7027,16.1932,1495
34336,-6.1327,-3.1161,16.8109,1543
34341,-14.1653,1.2737,6.1507,1525
34346,-1.1779,6.4368,4.4796,1512
34351,13.3632,3.3639,15.4378,1519
34356,0.0239,-5.3451,17.1928,1513
34361,-10.4794,0.6201,7.6219,1515
34366,-6.1758,6.3877,3.5482,1498
34371,9.5002,4.5394,13.5991,1510
34376,6.1184,-5.3391,16.453,1513
34381,-11.4718,0.079,10.003,1516
34386,-9.2656,5.5402,4.0558,1525
34391,8.5832,5.6455,10.9571,1517
34396,12.2236,-4.5119,15.9442,1501
34401,-10.0497,0.3496,13.2699,1541
34406,-13.611,3.7852,4.6735,1509
34411,4.713,5.7054,7.0485,1515
34416,13.1705,-0.9589,16.5763,1513
34421,-8.108,-1.9884,15.6317,1509
34426,-13.6374,2.4361,5.5964,1519
34431,1.9812,6.2273,5.5545,1507
34436,14.4969,1.5969,15.9645,1509
34441,-4.6507,-3.948,17.3927,1529
34446,-12.633,0.8859,6.4476,1516
34451,-2.885,6.3662,3.6739,1507
34456,11.7675,3.9816,15.2415,1519
34461,1.962,-5.448,16.9988,1513
34466,-12.0273,0.1987,8.2408,1533
34471,-6.8007,6.0992,3.8583,1513
34476,10.3178,5.3139,12.8353,1499
34481,8.8657,-5.6623,16.3596,1469
34486,-9.7061,0.6584,10.8864,1519
34491,-11.965,4.9859,4.1084,1524
34496,6.6643,5.4995,9.2919,1501
34501,12.1769,-2.8874,16.4925,1495
34506,-9.8653,-0.8176,13.89,1529
34511,-12.9107,3.4848,4.8566,1517
34516,4.3527,6.0023,6.9935,1548
34521,14.9075,-0.4118,15.9849,1496
34526,-7.9332,-2.2793,16.7127,1513
34531,-13.1681,1.4952,5.8287,1517
34536,0.0922,6.3315,4.2581,1499
34541,12.232,2.5582,16.2686,1507
34546,-2.217,-4.6376,16.8923,1523
34551,-13.0951,0.5758,7.1251,1511
34556,-3.6428,6.4536,4.0115,1515
34561,12.1446,4.5957,14.4729,1500
34566,4.2856,-6.0406,16.8324,1509
34571,-10.0604,0.6117,8.9615,1517
34576,-9.1782,5.8012,3.705,1505
34581,8.4707,5.2385,11.6191,1532
34586,9.6486,-4.6376,16.3261,1497
34591,-10.5237,-0.1568,11.8298,1513
34596,-11.4646,4.5633,4.4903,1557
34601,6.6559,5.9927,9.0656,1503
34606,13.9965,-2.739,15.6641,1525
34611,-9.5134,-0.6835,15.1912,1507
34616,-13.7942,2.5271,5.296,1511
34621,2.9066,6.1435,5.5174,1516
34626,13.0472,0.8009,16.3356,1507
34631,-5.8047,-3.3519,16.5583,1527
34636,-13.6338,1.3144,6.2968,1515
34641,-0.5459,6.4967,4.6579,1509
34646,13.4722,3.3052,15.3265,1524
34651,-0.6919,-5.2648,17.2119,1503
34656,-10.896,0.4645,7.5609,1501
34661,-5.9017,6.3279,3.6332,1512
34666,10.1502,4.7489,13.7056,1519
34671,5.6958,-5.3941,16.5212,1519
34676,-11.1905,-0.0347,9.9228,1509
34681,-9.2919,5.4719,4.1348,1509
34686,8.9567,5.8083,11.1282,1515
34691,11.5748,-4.531,15.6126,1509
34696,-9.9096,0.2646,13.0987,1530
34701,-13.2986,3.7577,4.8471,1513
34706,5.1152,5.8083,7.4615,1508
34711,12.8485,-1.0989,16.1058,1503
34716,-8.4168,-1.8998,15.5276,1511
34721,-13.4913,2.2948,5.6731,1507
34726,2.478,6.2369,5.7138,1502
34731,14.2994,1.5095,15.5743,1507
34736,-5.1691,-3.6739,17.3292,1525
34741,-12.2846,0.7374,6.5326,1523
34746,-2.3703,6.4751,3.814,1519
34751,11.5987,3.8846,15.2068,1525
34756,1.16,-5.2625,16.8432,1505
34761,-12.2763,0.1844,8.2037,1524
34766,-6.341,6.1148,4.0103,1508
34771,10.8038,5.363,13.1142,1513
34776,8.0517,-5.7569,16.1788,1517
34781,-9.8114,0.6452,10.8014,1519
34786,-11.473,5.023,4.2593,1529
34791,6.5398,5.4229,9.6666,1500
34796,11.3988,-3.0969,16.1369,1498
34801,-9.7612,-0.7949,13.6003,1529
34806,-12.5612,3.5793,5.0326,1507
34811,5.0566,6.0777,7.4292,1519
34816,14.3808,-0.893,15.6198,1507
34821,-8.3773,-1.8124,16.4781,1506
34826,-13.8564,1.6448,5.7976,1519
34831,0.7554,6.3578,4.6591,1511
34836,13.1873,2.296,15.9837,1547
34841,-3.4069,-4.2186,16.9689,1512
34846,-13.2268,0.6476,6.9779,1513
34851,-3.3088,6.4679,4.2641,1515
34856,12.4738,4.3491,14.5807,1511
34861,3.1603,-5.8383,16.7857,1503
34866,-9.894,0.6764,8.7783,1523
34871,-8.5605,5.9903,3.8391,1501
34876,8.1954,5.0075,12.0799,1509
34881,8.4803,-4.61,16.2854,1513
34886,-10.6123,-0.0539,11.5257,1519
34891,-10.8888,4.8866,4.4855,1515
34896,7.4005,5.8,9.4786,1515
34901,13.3154,-3.2621,15.7048,1497
34906,-9.8773,-0.2131,14.6405,1515
34911,-14.03,3.0047,5.1631,1515
34916,3.5147,5.9532,6.0501,1530
34921,13.5608,0.1927,16.4135,1507
34926,-6.9396,-2.6444,16.271,1563
34931,-13.89,1.6257,6.1196,1523
34936,0.0922,6.3805,4.9775,1515
34941,13.9618,2.6612,15.5432,1516
34946,-1.8495,-4.9309,17.2406,1495
34951,-10.6674,0.7494,7.2868,1519
34956,-5.2074,6.505,3.6248,1508
34961,9.7061,4.2856,14.1605,1515
34966,4.5095,-5.3905,16.5356,1515
34971,-11.1666,0.2071,9.578,1500
34976,-8.4432,5.8766,4.0677,1507
34981,9.4715,5.5366,11.6885,1519
34986,10.4914,-5.0829,15.8616,1493
34991,-10.1227,0.504,12.3613,1513
34996,-12.8198,4.3527,4.61,1509
35001,5.8694,5.6288,8.1678,1511
35006,12.9694,-2.0997,16.2016,1507
35011,-9.244,-1.1277,14.862,1511
35016,-13.4051,2.7725,5.4731,1513
35021,3.0981,6.2632,6.1974,1528
35026,14.6286,0.5291,15.8305,1517
35031,-6.1579,-3.0071,17.0431,1541
35036,-11.9554,1.1121,6.3386,1519
35041,-1.5155,6.523,3.9265,1515
35046,11.3581,3.1999,15.6425,1515
35051,-0.0204,-4.9907,16.7067,1515
35056,-12.1494,0.431,8.0146,1523
35061,-5.2361,6.3758,3.9744,1509
35066,11.3198,5.0015,13.6936,1515
35071,6.3746,-5.9292,16.3991,1527
35076,-10.1742,0.65,9.9838,1513
35081,-10.2807,5.4444,3.9409,1509
35086,7.8434,5.3259,10.4902,1511
35091,10.9595,-4.0474,16.2064,1495
35096,-10.2663,-0.182,12.7802,1527
35101,-12.2703,4.0318,4.7956,1499
35106,5.7365,5.9268,7.9679,1507
35111,14.2491,-1.7909,15.8556,1511
35116,-8.8969,-1.2402,15.8341,1518
35121,-13.2316,2.0243,5.6455,1515
35126,1.6951,6.2285,4.9105,1514
35131,12.7324,1.5371,16.2973,1501
35136,-4.3886,-3.8331,16.5296,1531
35141,-13.0484,1.154,6.8055,1519
35146,-1.8675,6.4572,4.3479,1453
35151,12.9359,3.7481,15.0069,1512
35156,1.33,-5.6551,16.9653,1515
35161,-10.6219,0.5902,8.0924,1532
35166,-7.1048,6.2046,3.6631,1513
35171,9.3889,4.7561,12.8485,1505
35176,7.3741,-5.1451,16.52,1517
35181,-11.1965,0.0658,10.6303,1523
35186,-10.1586,5.1332,4.3036,1529
35191,8.0912,5.6862,10.1694,1513
35196,12.791,-3.9935,15.7766,1497
35201,-10.0712,0.1065,13.939,1527
35206,-13.4063,3.2908,4.9644,1512
35211,4.0546,5.7844,6.5757,1533
35216,13.0484,-0.4417,16.5727,1497
35221,-7.4579,-2.381,15.8388,1516
35226,-13.2256,2.1332,5.9268,1523
35231,1.3168,6.3135,5.2732,1511
35236,13.9929,2.0123,15.7838,1512
35241,-3.6751,-4.2569,17.1748,1529
35246,-12.3936,0.7685,6.7744,1517
35251,-3.5877,6.4871,3.7828,1515
35256,11.5903,4.0809,14.777,1509
35261,2.879,-5.515,16.7319,1507
35266,-11.6215,0.2873,8.6562,1524
35271,-7.6471,6.0023,4.0247,1509
35276,9.9359,5.2373,12.3756,1517
35281,9.2847,-5.4875,16.1621,1500
35286,-9.9335,0.6752,11.485,1511
35291,-12.044,4.7357,4.3886,1518
35296,6.3686,5.4959,8.904,1513
35301,12.3469,-2.7402,16.2243,1514
35306,-9.8174,-0.8344,14.2647,1518
35311,-12.9826,3.3387,5.1224,1516
35316,4.0199,6.0573,6.8247,1533
35321,14.8225,-0.1365,15.8412,1512
35326,-7.3538,-2.4373,16.9126,1525
35331,-12.5348,1.4006,6.049,1525
35336,-0.5016,6.4141,4.1348,1499
35341,11.8046,2.7246,16.0591,1531
35346,-1.397,-4.7393,16.7079,1517
35351,-12.5133,0.6788,7.5142,1515
35356,-4.2617,6.4057,4.0199,1509
35361,11.8513,4.622,14.2623,1497
35366,4.9763,-6.0406,16.5822,1519
35371,-10.2903,0.6931,9.2991,1517
35376,-9.4882,5.7114,3.8954,1503
35381,8.3977,5.2349,11.2468,1531
35386,10.1682,-4.6268,16.2925,1507
35391,-10.4351,0.018,12.1613,1523
35396,-11.807,4.4065,4.7022,1511
35401,6.2812,5.9137,8.6503,1509
35406,14.0133,-2.4828,15.8125,1507
35411,-9.4212,-0.7865,15.3361,1528
35416,-13.5021,2.4181,5.43,1517
35421,2.5163,6.1986,5.4193,1517
35426,13.0676,0.8643,16.3704,1519
35431,-5.521,-3.4081,16.4829,1529
35436,-13.465,1.3755,6.3841,1515
35441,-1.0008,6.4488,4.6148,1509
35446,13.4434,3.3172,15.1864,1518
35451,0.0,-5.3858,17.0443,1499
35456,-10.5896,0.7219,7.6794,1527
35461,-6.3746,6.4488,3.644,1497
35466,9.5134,4.4867,13.4686,1503
35471,6.2261,-5.2445,16.4518,1513
35476,-11.2887,0.1772,10.1634,1503
35481,-9.4008,5.5629,4.2102,1511
35486,8.6634,5.5845,10.8649,1503
35491,12.0105,-4.5011,15.8041,1493
35496,-10.1215,0.4274,13.2328,1545
35501,-13.5236,3.8223,4.7501,1513
35506,4.8674,5.703,7.2425,1518
35511,13.1861,-1.2175,16.4542,1502
35516,-8.3594,-1.8172,15.5013,1515
35521,-13.6469,2.478,5.5713,1519
35526,2.0877,6.1878,5.6778,1509
35531,14.5651,1.4066,15.8508,1509
35536,-4.7669,-3.7589,17.2227,1516
35541,-12.141,0.9876,6.5481,1525
35546,-2.7461,6.4608,3.7086,1507
35551,11.4551,3.7206,15.3397,1510
35556,1.6364,-5.3067,16.7786,1491
35561,-12.4032,0.3364,8.3031,1527
35566,-6.511,6.1651,3.8882,1510
35571,10.7093,5.2385,13.0173,1513
35576,8.3234,-5.8574,16.2064,1507
35581,-9.985,0.7997,10.8338,1525
35586,-11.7053,5.1439,4.1659,1527
35591,6.6607,5.284,9.5241,1516
35596,11.6825,-3.2046,16.4218,1503
35601,-9.9288,-0.7494,13.6912,1527
35606,-12.6067,3.7577,4.944,1513
35611,4.7992,5.9759,7.3622,1543
35616,14.5998,-0.9948,15.9442,1495
35621,-8.3246,-1.9034,16.3596,1505
35626,-13.6182,1.749,5.7377,1518
35631,0.5255,6.3339,4.6352,1517
35636,13.0771,2.1153,16.1872,1513
35641,-3.2549,-4.3539,16.8384,1517
35646,-13.4518,0.8499,6.9528,1509
35651,-3.2848,6.5038,4.2701,1503
35656,12.5983,4.2796,14.6441,1513
35661,3.4512,-6.0094,16.8683,1520
35666,-9.9132,0.8535,8.6981,1507
35671,-8.7029,6.0466,3.7505,1499
35676,8.0325,4.8686,11.9985,1527
35681,8.6622,-4.6819,16.4362,1514
35686,-10.6195,-0.073,11.5389,1511
35691,-10.8469,4.9692,4.4712,1520
35696,7.2604,5.7748,9.4763,1507
35701,13.3968,-3.3531,15.7538,1499
35706,-9.9216,-0.2502,14.5855,1511
35711,-14.1186,3.0682,5.1044,1515
35716,3.4022,5.9723,6.11,1523
35721,13.8086,0.0611,16.4482,1502
35726,-7.0222,-2.5498,16.344,1523
35731,-13.9295,1.6783,6.0645,1507
35736,0.0359,6.3578,4.9416,1566
35741,14.0264,2.6576,15.6162,1523
35746,-1.9668,-4.877,17.3639,1507
35751,-10.6674,0.7242,7.1323,1515
35756,-5.0829,6.438,3.5805,1511
35761,9.6893,4.4556,14.2862,1513
35766,4.6136,-5.375,16.6684,1516
35771,-11.2276,0.164,9.4463,1517
35776,-8.2803,5.7748,4.0127,1519
35781,9.268,5.6371,11.74,1516
35786,10.7655,-5.1224,15.9322,1501
35791,-10.1945,0.5662,12.3493,1525
35796,-13.034,4.3766,4.4748,1518
35801,5.709,5.7329,8.0996,1517
35806,13.3393,-2.1105,16.3261,1508
35811,-9.2416,-1.1025,14.9602,1514
35816,-13.635,2.7928,5.3271,1509
35821,2.6995,6.2142,6.1483,1517
35826,14.698,0.668,15.9717,1500
35831,-6.0741,-3.2944,17.0335,1518
35836,-11.8848,1.2354,6.2872,1514
35841,-1.8842,6.5805,3.9337,1510
35846,11.3689,3.0849,15.6365,1525
35851,0.1856,-5.1415,16.6624,1502
35856,-12.1578,0.5806,8.005,1525
35861,-5.5845,6.3614,4.0031,1507
35866,11.1881,4.9692,13.6266,1501
35871,7.0066,-5.9999,16.3009,1523
35876,-10.1742,0.8404,10.1478,1513
35881,-10.7117,5.4169,4.0151,1530
35886,7.5046,5.284,10.2328,1507
35891,11.4431,-3.8391,16.271,1497
35896,-10.3406,-0.1915,13.0999,1527
35901,-12.39,3.9995,4.8016,1517
35906,5.1954,5.9125,7.8243,1515
35911,14.7914,-1.4952,15.8664,1513
35916,-8.7688,-1.4461,16.1034,1511
35921,-13.21,1.98,5.5785,1511
