timestamp_ms,ax,ay,az,acs_adc
45531,-9.7564,-2.0889,13.811,1557
45536,-11.5616,3.1999,4.9344,1549
45541,3.8032,6.5422,7.671,1555
45546,14.4921,1.251,13.5069,1523
45551,-5.2852,-3.7517,18.5958,1557
45556,-14.1414,0.4369,6.7074,1544
45561,-2.9544,5.3079,3.7433,1545
45566,10.3908,6.7145,13.5979,1543
45571,5.3211,-5.0003,17.1952,1543
45576,-12.3649,-1.5467,10.0975,1543
45581,-9.2919,4.4377,4.3527,1555
45586,6.6295,7.3969,10.3453,1555
45591,14.2742,-2.4876,13.969,1543
45596,-8.4898,-1.992,16.8468,1541
45601,-12.7288,1.9525,5.8371,1555
45606,-0.0886,5.4803,4.7082,1541
45611,12.123,4.312,14.3377,1547
45616,-2.0602,-4.3479,18.0906,1529
45621,-11.5532,-0.8607,8.2277,1547
45626,-5.8023,5.1918,3.978,1529
45631,10.1251,7.8793,12.4894,1531
45636,10.8038,-5.0853,15.1337,1533
45641,-9.6259,-0.8547,13.5536,1544
45646,-12.4319,3.1819,5.0314,1530
45651,2.5989,6.0645,6.7935,1548
45656,11.3976,0.7554,14.5005,1541
45661,-6.6391,-3.5063,17.3628,1548
45666,-12.1757,0.3508,6.8773,1547
45671,-1.8411,5.9388,4.7262,1529
45676,12.6546,6.0178,13.3872,1548
45681,5.0937,-5.618,17.1557,1549
45686,-9.6031,-0.4561,10.0784,1542
45691,-10.4267,4.5586,4.1288,1553
45696,5.4672,6.5206,9.2404,1544
45701,9.9599,-1.8723,15.1601,1528
45706,-8.7412,-2.8587,15.4761,1555
45711,-12.5636,2.0722,5.8347,1547
45716,2.0865,6.3925,6.11,1544
45721,13.9618,3.0957,13.6493,1541
45726,-1.2127,-4.5813,18.3085,1557
45731,-10.914,-0.0407,7.8494,1553
45736,-6.705,5.1356,3.547,1545
45741,8.667,7.1012,12.1434,1545
45746,7.8973,-4.0941,16.1525,1547
45751,-10.4758,-2.1524,12.4211,1553
45756,-11.1115,3.6176,4.774,1550
45761,5.272,7.0437,8.5832,1548
45766,14.6537,-0.249,13.5524,1545
45771,-6.5158,-2.8587,18.2295,1554
45776,-12.3852,0.8918,6.6116,1559
45781,-3.0406,5.0817,3.7266,1549
45786,11.1941,6.5326,13.8924,1547
45791,3.1747,-4.7274,17.4142,1553
45796,-11.1474,-1.6975,9.8031,1559
45801,-8.2636,4.6675,4.1791,1545
45806,8.0625,8.0098,11.0109,1553
45811,12.9634,-3.1065,14.0552,1542
45816,-8.7759,-1.5969,15.852,1556
45821,-14.212,1.8663,5.7365,1533
45826,0.5938,5.4887,5.2912,1529
45831,12.6713,3.9923,14.0875,1533
45836,-3.4034,-3.7074,18.1241,1565
45841,-12.3218,-1.172,7.9942,1544
45846,-4.8518,5.2421,4.3946,1549
45851,11.1223,7.8314,12.7659,1501
45856,9.4116,-5.2613,15.5144,1531
45861,-9.1854,-0.8236,12.6198,1555
45866,-12.2942,3.2334,5.0542,1519
45871,3.4512,6.1327,7.1024,1551
45876,10.3501,0.3747,14.3137,1532
45881,-7.1108,-3.474,17.2742,1547
45886,-12.0141,0.3543,6.8809,1553
45891,-1.1995,5.946,5.0182,1544
45896,13.0233,5.6683,13.2268,1529
45901,3.7577,-5.2182,17.2227,1529
45906,-9.5744,-0.7015,9.7336,1577
45911,-10.1442,4.5203,4.2054,1544
45916,6.5601,7.0533,9.8342,1559
45921,9.6798,-1.9836,14.7794,1517
45926,-8.6024,-2.7569,15.2678,1561
45931,-12.615,1.9872,5.9831,1526
45936,2.7833,6.4907,6.4416,1509
45941,13.7978,2.6324,13.2268,1544
45946,-2.4505,-3.8355,18.4366,1555
45951,-12.1218,-0.4944,7.7476,1548
45956,-5.7209,5.0973,3.6547,1541
45961,9.4224,7.2676,12.6318,1545
45966,7.4424,-4.0103,15.9083,1547
45971,-11.0157,-2.2434,12.0177,1557
45976,-11.1773,3.4656,5.0099,1523
45981,6.0777,7.5836,8.9615,1545
45986,14.5316,-0.8906,13.1238,1531
45991,-6.6954,-2.2757,18.1313,1548
45996,-12.1673,0.68,6.6774,1531
46001,-2.6899,5.0482,3.9923,1553
46006,10.7655,6.1327,13.7547,1559
46011,1.3743,-4.0701,17.3352,1547
46016,-9.6726,-1.9872,9.8665,1560
46021,-8.8538,4.725,4.4353,1531
46026,9.183,8.0924,11.1546,1560
46031,12.3577,-3.2992,13.9773,1532
46036,-8.74,-1.5323,15.7706,1565
46041,-13.9283,2.0171,5.8885,1547
46046,0.322,5.4468,5.1212,1557
46051,11.3677,3.4105,14.2503,1541
46056,-3.2058,-3.8702,17.7386,1543
46061,-11.0073,-1.0582,8.2013,1561
46066,-5.3989,5.6216,4.2605,1545
46071,11.7029,7.2053,12.7443,1529
46076,8.1582,-4.9668,15.6018,1548
46081,-9.074,-0.9756,12.4917,1558
46086,-12.9323,3.7493,5.0326,1555
46091,4.6723,6.0849,7.2401,1554
46096,11.0014,0.3005,14.5005,1549
46101,-6.5122,-3.3483,16.7941,1545
46106,-11.898,0.6321,7.039,1561
46111,-1.2414,6.347,4.8961,1547
46116,13.3632,4.5526,13.5069,1553
46121,2.9425,-4.701,16.8265,1543
46126,-9.979,-0.6991,9.9527,1563
46131,-10.8457,5.1882,3.8882,1546
46136,7.6626,6.1794,10.2639,1555
46141,9.8055,-2.1859,15.1744,1525
46146,-8.3606,-2.4588,14.8405,1571
46151,-12.9694,2.6025,6.013,1533
46156,3.1975,6.4296,6.1387,1560
46161,13.951,1.6987,14.1689,1531
46166,-2.5259,-3.5386,17.5184,1567
46171,-11.9698,0.0527,7.8901,1547
46176,-6.5194,5.454,3.3184,1553
46181,9.9503,6.1663,13.2447,1528
46186,6.2453,-3.9085,16.0507,1557
46191,-9.5912,-1.7466,11.9674,1553
46196,-11.7041,4.4185,4.8375,1553
46201,6.857,6.7588,8.7831,1547
46206,13.6805,-1.5036,14.4598,1533
46211,-6.869,-2.0255,16.8815,1533
46216,-13.1166,1.5131,6.4165,1563
46221,-2.32,5.2493,3.8714,1549
46226,11.2276,4.7262,15.0655,1563
46231,0.9529,-4.3263,17.1269,1493
46236,-10.1083,-0.9385,9.1734,1567
46241,-8.0601,5.3726,4.0115,1525
46246,9.6067,7.0198,11.5209,1565
46251,11.6562,-4.0342,15.3337,1528
46256,-8.9818,-0.8715,14.2431,1573
46261,-13.6637,3.0574,5.0745,1545
46266,1.2594,5.0781,5.6503,1566
46271,13.301,2.5235,15.6521,1542
46276,-5.0817,-3.3782,17.5447,1575
46281,-12.7036,0.1365,7.0797,1561
46286,-3.14,5.3594,4.2138,1549
46291,12.147,6.9983,13.72,1533
46296,7.4364,-5.8203,16.6349,1555
46301,-9.4846,-0.1664,10.8218,1551
46306,-10.8158,3.9828,4.215,1560
46311,3.4225,5.8897,7.8937,1543
46316,11.643,-0.4776,15.6952,1547
46321,-8.0625,-2.9209,16.5068,1567
46326,-12.5923,1.6879,5.8107,1549
46331,0.7937,5.5186,5.3283,1544
46336,13.7894,4.9093,14.0947,1557
46341,0.1281,-5.284,18.512,1543
46346,-12.056,-0.3567,8.0074,1561
46351,-6.4212,4.9548,3.3974,1547
46356,7.5262,7.1587,11.6777,1549
46361,10.4112,-3.7302,15.8029,1542
46366,-10.0317,-1.6388,13.0364,1565
46371,-11.789,2.8491,4.8542,1531
46376,3.4201,6.3734,7.5705,1559
46381,15.0093,1.0942,13.8157,1555
46386,-5.4229,-3.5015,18.6125,1555
46391,-11.8932,0.4417,6.7325,1553
46396,-3.4955,4.9512,3.7194,1543
46401,10.8194,6.9767,13.6374,1544
46406,3.5494,-4.5191,17.115,1545
46411,-10.8314,-2.0231,10.2879,1543
46416,-9.0956,4.361,4.1851,1556
46421,7.4855,7.841,10.3753,1583
46426,13.4913,-2.5031,13.9175,1544
46431,-8.6072,-1.7131,16.6074,1544
46436,-13.7451,1.5299,5.9436,1542
46441,-0.3723,5.2337,4.5969,1545
46446,12.645,4.7178,14.6202,1541
46451,-2.0423,-3.9169,18.0152,1567
46456,-11.8357,-1.1971,8.2109,1549
46461,-5.5186,5.0242,4.0713,1532
46466,10.8793,8.1068,12.7276,1546
46471,9.7528,-4.9333,15.4306,1526
46476,-8.9352,-0.8918,12.8353,1548
46481,-12.9024,3.1208,4.9596,1533
46486,2.0578,5.6719,6.4105,1549
46491,12.0991,1.2665,14.9709,1546
46496,-6.3135,-3.2908,17.4813,1549
46501,-12.3373,0.231,6.7145,1547
46506,-1.506,5.3965,4.6076,1542
46511,12.9179,6.3494,13.8074,1543
46516,3.6344,-5.3235,17.437,1547
46521,-10.0281,-0.8679,9.3805,1555
46526,-9.1925,4.3084,3.7314,1532
46531,6.0944,6.778,10.1179,1549
46536,12.0668,-2.0506,14.8213,1527
46541,-10.3693,-2.0315,14.9506,1556
46546,-12.6953,1.6005,5.5569,1549
46551,2.2505,6.1699,6.5218,1577
46556,14.9027,3.2178,13.2782,1547
46561,-2.6001,-4.2425,19.1776,1549
46566,-10.6111,-0.2298,7.3993,1555
46571,-5.7916,4.367,3.4872,1543
46576,7.908,7.6746,12.3445,1532
46581,6.3638,-3.6859,16.186,1547
46586,-9.6977,-2.4888,12.1266,1545
46591,-10.9152,3.5279,4.5789,1553
46596,5.612,7.191,8.8633,1547
46601,14.5017,-0.2263,13.2974,1544
46606,-7.7548,-2.484,18.3468,1549
46611,-15.5288,0.346,6.1519,1606
46616,-1.1349,5.1942,4.2533,1547
46621,12.0297,6.5038,14.0635,1558
46626,2.1691,-4.6471,18.1301,1549
46631,-12.2368,-1.5826,8.7472,1567
46636,-7.5214,4.6244,3.9552,1553
46641,7.7536,7.7931,11.4682,1558
46646,12.7707,-3.2968,14.4059,1520
46651,-8.7257,-1.5443,15.123,1557
46656,-14.2838,2.1919,5.4803,1532
46661,1.6723,5.5186,5.4791,1557
46666,13.6793,3.5243,14.461,1529
46671,-4.4101,-3.7697,18.6796,1557
46676,-13.7774,-0.7027,7.0928,1549
46681,-3.4046,4.9321,4.1899,1559
46686,10.9595,8.0206,13.3309,1533
46691,8.8334,-5.6228,16.1932,1559
46696,-9.2057,-0.6919,11.4491,1553
46701,-11.5401,3.4536,4.3586,1557
46706,2.9161,6.2549,7.604,1543
46711,12.9012,0.2981,14.9674,1543
46716,-7.5357,-3.0215,17.3292,1547
46721,-13.1035,0.9361,5.9903,1553
46726,-0.091,5.3917,5.0182,1555
46731,13.1789,5.8359,13.9893,1563
46736,1.6628,-5.3953,18.2438,1545
46741,-12.0883,-0.6776,8.3677,1563
46746,-7.1527,4.6316,3.468,1553
46751,6.924,7.1204,11.1761,1556
46756,12.1518,-3.2693,15.2798,1525
46761,-8.9184,-1.5119,14.3508,1559
46766,-13.2663,2.2589,4.9895,1531
46771,2.1308,6.1088,6.5996,1555
46776,14.7148,2.162,14.218,1532
46781,-4.8351,-3.6081,18.6425,1562
46786,-14.953,-0.3412,6.7457,1547
46791,-3.6488,5.3893,3.9492,1571
46796,10.8804,7.1479,13.5584,1544
46801,7.2496,-5.1332,16.921,1562
46806,-9.0716,-0.9888,10.7272,1555
46811,-11.1235,3.875,4.1037,1560
46816,5.0159,6.7337,8.9735,1545
46821,13.5033,-1.2246,14.5532,1541
46826,-9.8354,-2.1524,16.4757,1553
46831,-13.4853,1.318,5.5952,1546
46836,0.3723,5.4743,5.6922,1545
46841,14.2886,5.2218,13.8205,1555
46846,1.0534,-5.4947,18.6472,1547
46851,-10.0916,-0.1269,8.0721,1565
46856,-7.4747,4.3479,3.5614,1542
46861,7.1802,7.3765,11.2108,1559
46866,7.9787,-3.2106,15.67,1531
46871,-10.1454,-2.4373,13.6853,1564
46876,-11.7986,3.037,4.9333,1547
46881,3.8834,6.505,7.616,1560
46886,14.9494,1.3001,13.6374,1528
46891,-5.8047,-3.4105,18.81,1563
46896,-13.8277,0.1724,6.5338,1547
46901,-2.8311,5.1344,3.6045,1547
46906,10.6889,7.0306,13.8912,1530
46911,5.0063,-5.0147,17.1832,1555
46916,-12.6306,-1.6089,9.748,1546
46921,-8.8274,4.2988,4.2078,1561
46926,6.6116,7.5729,10.6027,1549
46931,14.7686,-2.575,13.7619,1532
46936,-8.9986,-1.7059,16.9079,1543
46941,-12.7958,1.828,5.7425,1548
46946,0.0718,5.2804,4.6663,1545
46951,12.4522,4.531,14.6453,1548
46956,-2.2793,-4.3383,18.0271,1579
46961,-11.6179,-0.8918,7.8338,1550
46966,-5.4336,4.8866,3.954,1533
46971,10.1359,8.339,12.7635,1533
46976,10.8457,-5.1188,15.1984,1528
46981,-9.9048,-0.6835,13.1358,1547
46986,-13.4817,3.0706,4.6483,1545
46991,3.2561,6.0035,7.1898,1553
46996,14.2216,1.1265,14.3269,1525
47001,-7.4555,-2.8742,18.0631,1555
47006,-14.5172,0.2717,6.1938,1553
47011,-1.4449,5.4109,4.9117,1553
47016,12.8329,6.7109,13.6781,1533
47021,5.2182,-6.037,17.3927,1543
47026,-9.7743,-0.3029,9.5529,1543
47031,-9.5205,4.0438,4.0474,1556
47036,5.6048,7.0497,9.6163,1543
47041,10.9176,-1.8687,15.0787,1531
47046,-9.6786,-2.575,15.6736,1559
47051,-12.4355,2.1272,5.3678,1543
47056,1.9704,5.8526,6.3339,1549
47061,14.6286,3.5027,13.708,1546
47066,-2.6384,-4.5813,18.828,1545
47071,-13.6948,-0.3172,7.1814,1547
47076,-4.4712,4.9692,3.5219,1545
47081,9.2859,7.6303,12.979,1545
47086,9.0477,-4.8614,16.1645,1546
47091,-9.6343,-1.0391,11.7148,1541
47096,-11.3545,3.2226,4.3072,1555
47101,4.2976,7.0497,8.8418,1547
47106,15.184,-0.6369,13.6577,1547
47111,-7.8542,-2.3906,18.0271,1543
47116,-14.8644,0.5291,6.0956,1551
47121,-1.0415,5.2804,4.5418,1543
47126,12.8293,6.2142,14.0947,1548
47131,1.7968,-5.2397,18.1923,1543
47136,-13.2794,-1.3132,8.4168,1555
47141,-6.7121,4.3515,3.9816,1545
47146,7.5597,8.2863,11.8202,1555
47151,13.4387,-3.9588,14.1461,1532
47156,-9.5253,-1.2306,15.1553,1555
47161,-12.7395,2.1296,5.4636,1547
47166,1.6652,5.9795,6.0214,1557
47171,12.5755,2.7928,13.8026,1533
47176,-4.4712,-4.1731,18.6137,1555
47181,-12.6713,-0.5375,7.0138,1547
47186,-3.2561,5.0182,4.3455,1559
47191,11.1223,7.926,13.198,1532
47196,7.7883,-5.7365,16.2291,1555
47201,-10.75,-0.6668,11.0109,1553
47206,-10.6997,3.62,3.9875,1557
47211,4.5442,7.1311,9.4415,1541
47216,14.9949,-1.2067,13.4985,1533
47221,-8.5916,-2.1201,17.6896,1551
47226,-13.0209,0.7841,6.0813,1549
47231,-0.5926,5.7186,4.9309,1548
47236,12.8461,4.9584,13.9534,1564
47241,-0.7901,-4.7166,18.0954,1549
47246,-13.1537,-1.1468,7.9607,1557
47251,-5.6395,4.5789,4.0917,1548
47256,8.6395,8.4072,12.3589,1557
47261,12.6103,-4.6711,14.5711,1528
47266,-10.0533,-0.735,14.3676,1567
47271,-13.0903,2.4445,4.9919,1541
47276,2.7342,6.2441,6.5374,1572
47281,13.8265,1.883,13.9977,1530
47286,-6.2537,-3.6476,18.3958,1573
47291,-13.4997,0.0263,6.438,1547
47296,-2.2003,5.0889,4.6448,1556
47301,11.7687,7.3227,13.5703,1531
47306,6.5481,-6.0154,16.8061,1560
47311,-10.1574,-0.4106,10.2388,1554
47316,-10.732,3.9708,3.9265,1555
47321,5.6898,7.0533,9.6319,1545
47326,13.5213,-1.9597,14.3496,1529
47331,-10.0616,-1.7873,16.3476,1548
47336,-13.4722,1.5969,5.2804,1547
47341,0.7685,5.7449,6.3554,1550
47346,14.6597,4.3215,13.4554,1548
47351,-0.6476,-5.1954,18.8651,1548
47356,-10.6757,-0.0311,7.5753,1567
47361,-6.4727,4.361,3.6763,1543
47366,7.0509,7.7249,11.989,1547
47371,8.679,-3.7589,15.8364,1529
47376,-10.1251,-1.9345,13.1142,1549
47381,-11.2156,3.2956,4.616,1545
47386,4.3167,6.7385,8.3606,1559
47391,14.959,0.4166,13.4111,1532
47396,-7.2221,-2.9257,18.585,1551
47401,-16.2626,0.3196,6.0669,1541
47406,-1.8232,5.2421,4.3718,1543
47411,12.1721,6.7313,13.9355,1541
47416,4.5358,-5.545,17.5256,1546
47421,-9.5445,-0.5926,9.4224,1543
47426,-9.8773,4.1192,4.0929,1548
47431,6.5278,7.598,10.4914,1543
47436,12.3289,-2.9353,14.6597,1545
47441,-10.799,-1.9297,15.3887,1533
47446,-12.3074,2.229,5.1056,1543
47451,1.5658,5.788,6.8007,1556
47456,14.8524,3.547,13.4015,1547
47461,-2.7964,-4.8447,19.2721,1548
47466,-11.6993,-0.0706,7.0856,1547
47471,-5.4983,4.7704,3.5159,1545
47476,9.08,7.7812,13.1166,1533
47481,8.2277,-4.8255,15.9861,1541
47486,-11.8621,-1.6879,11.74,1551
47491,-9.8617,3.547,4.3407,1547
47496,4.7046,7.3095,9.6103,1543
47501,15.5037,-0.68,13.0376,1549
47506,-8.4432,-2.5666,18.5958,1553
47511,-13.131,0.8475,5.9388,1557
47516,-1.4413,5.2864,4.2078,1531
47521,11.7855,6.0717,14.1569,1550
47526,1.3096,-5.0398,17.85,1541
47531,-12.5923,-1.2414,8.6227,1553
47536,-6.5122,4.5933,3.9983,1545
47541,8.029,8.2911,12.0345,1563
47546,13.2471,-4.2174,14.2204,1527
47551,-10.1801,-0.844,14.9709,1561
47556,-14.1007,2.3176,4.9009,1543
47561,2.4074,5.9711,6.2345,1560
47566,14.4239,2.4972,14.2934,1544
47571,-5.5414,-3.5506,18.7286,1566
47576,-14.6322,-0.2502,6.4476,1547
47581,-2.8503,5.035,4.4879,1549
47586,11.4275,7.829,13.5033,1533
47591,8.1355,-6.1842,16.5068,1559
47596,-9.9311,-0.3196,10.7332,1553
47601,-10.9738,3.4309,4.1551,1567
47606,4.6232,7.0617,8.7065,1548
47611,13.3213,-0.8691,14.5544,1547
47616,-9.0848,-2.8,17.085,1528
47621,-12.8856,1.3324,5.4312,1543
47626,0.3603,5.533,5.7449,1553
47631,13.9845,5.2074,13.6254,1562
47636,-0.1437,-5.4971,18.6532,1541
47641,-13.8912,-0.5662,7.7153,1565
47646,-5.6934,4.5777,3.5721,1549
47651,8.0792,8.0697,12.3122,1565
47656,12.056,-4.6436,15.0523,1527
47661,-9.5756,-0.8847,13.6302,1579
47666,-12.6115,2.466,5.0338,1549
47671,3.0825,6.6906,6.9983,1567
47676,13.8672,1.075,13.9857,1543
47681,-7.3394,-3.3148,18.2797,1561
47686,-13.2675,0.1808,6.1519,1581
47691,-1.9094,5.0194,4.7405,1549
47696,12.1721,7.4819,13.4734,1533
47701,5.7186,-6.1746,17.273,1547
47706,-10.7248,-0.3711,9.7025,1547
47711,-9.7624,3.972,3.7254,1581
47716,5.8071,7.5585,10.3226,1553
47721,14.115,-2.5438,14.0623,1529
47726,-9.6654,-1.3862,16.2267,1548
47731,-14.7938,1.3886,5.1727,1547
47736,0.8212,6.0885,6.3554,1574
47741,14.8249,3.8235,13.4817,1549
47746,-2.1823,-4.7824,19.1261,1543
47751,-10.902,-0.2693,7.2413,1543
47756,-6.3183,4.5909,3.717,1523
47761,8.9352,7.9739,12.6845,1549
47766,8.9687,-4.7262,15.7981,1528
47771,-11.6957,-1.5909,12.3433,1566
47776,-10.1227,3.4309,4.3646,1583
47781,4.1611,7.1036,9.2093,1550
47786,15.6497,-0.1532,13.0843,1525
47791,-8.1068,-2.8587,18.8603,1544
47796,-13.8959,0.6225,5.9077,1559
47801,-1.4533,5.2361,4.197,1545
47806,12.1482,6.505,14.1258,1545
47811,2.6564,-5.3977,17.844,1543
47816,-13.4829,-1.3575,8.7424,1558
47821,-6.8606,4.3419,3.9899,1515
47826,7.3215,8.357,11.7759,1545
47831,14.1234,-3.9564,13.9211,1509
47836,-10.1215,-1.008,15.7407,1557
47841,-12.6103,2.1117,5.2062,1533
47846,1.2366,5.8239,5.8155,1545
47851,12.5253,3.1173,14.109,1529
47856,-3.9002,-4.3311,18.5527,1553
47861,-12.6306,-0.3771,6.9923,1547
47866,-3.4596,4.9428,4.2174,1545
47871,10.9678,8.1271,13.2208,1527
47876,8.4683,-5.8347,16.0854,1555
47881,-11.0097,-0.4896,11.2204,1549
47886,-10.884,3.5051,3.8966,1549
47891,4.2162,7.0306,9.3589,1549
47896,15.5348,-0.9565,13.5775,1531
47901,-8.6095,-2.2948,18.1229,1547
47906,-12.6306,0.8487,5.9328,1561
47911,-1.2653,5.539,4.695,1517
47916,12.1194,5.2744,14.0671,1557
47921,-0.1329,-4.8961,18.0439,1547
47926,-12.3206,-1.0786,8.193,1559
47931,-5.9137,4.5765,3.9923,1549
47936,8.3809,8.436,12.2451,1553
47941,12.8233,-4.622,14.6513,1542
47946,-10.41,-0.662,14.4562,1563
47951,-14.3269,2.4696,4.4903,1533
47956,2.4936,6.0932,6.9635,1559
47961,15.1948,1.98,13.7798,1546
47966,-5.9999,-3.5686,19.1213,1560
47971,-15.0188,-0.3112,6.3111,1543
47976,-2.7306,5.0841,4.3658,1561
47981,11.5939,7.4855,13.5943,1529
47986,6.6762,-5.9568,17.0,1549
47991,-9.6929,-0.4357,10.058,1546
47996,-10.8876,3.6883,4.0857,1563
48001,5.6479,7.4316,9.5349,1559
48006,13.9498,-1.9752,14.2359,1531
48011,-10.5058,-1.8268,16.6744,1555
48016,-13.1418,1.555,5.0925,1547
48021,0.5183,5.5306,6.2513,1551
48026,14.6046,4.7477,13.4327,1559
48031,-0.5866,-5.5857,19.0028,1545
48036,-10.9714,0.0563,7.4891,1573
48041,-6.8558,4.3718,3.6691,1553
48046,7.6088,7.7297,12.147,1561
48051,9.7899,-4.136,15.7036,1577
48056,-11.0923,-1.7478,13.1023,1571
48061,-10.7859,3.237,4.3694,1541
48066,3.7457,6.5697,8.4408,1559
48071,15.3696,0.5794,13.4399,1527
48076,-7.1886,-3.1699,18.8914,1565
48081,-15.05,0.3974,6.0849,1557
48086,-1.8028,5.0996,4.1084,1573
48091,11.965,6.8869,14.0588,1545
48096,4.2545,-5.606,17.5998,1541
48101,-11.1989,-0.6752,9.1889,1551
48106,-8.3007,4.1312,3.8858,1557
48111,6.4141,7.6734,10.9367,1531
48116,14.0947,-3.4261,14.4394,1543
48121,-9.6367,-1.1372,15.7072,1543
48126,-14.1414,1.8878,5.2241,1541
48131,1.1205,5.7425,5.6886,1548
48136,14.5436,3.4764,14.4777,1530
48141,-3.8283,-4.0941,18.7646,1581
48146,-14.9087,-0.5255,6.7792,1555
48151,-3.9768,4.8566,4.2617,1533
48156,10.3585,8.096,13.1322,1543
48161,10.1801,-5.9604,15.9083,1529
48166,-10.0126,-0.1963,11.9004,1542
48171,-11.1594,3.2274,4.47,1544
48176,3.5829,6.5242,7.7021,1544
48181,13.2088,0.2466,14.6717,1547
48186,-7.8123,-3.2884,17.6034,1554
48191,-12.8808,0.99,5.879,1557
48196,-0.4417,5.2553,4.9775,1545
48201,13.3884,6.1052,13.878,1573
48206,2.1488,-5.8083,18.1241,1531
48211,-13.8445,-0.589,8.406,1561
48216,-6.6679,4.5478,3.6152,1553
48221,6.9097,7.6806,11.5796,1576
48226,13.6685,-3.8547,14.5963,1525
48231,-9.669,-1.142,15.0583,1564
48236,-12.4103,2.2673,5.1631,1543
48241,1.7897,6.0549,6.1052,1561
48246,12.7599,2.2817,14.3736,1525
48251,-5.1332,-4.1647,18.2247,1557
48256,-12.5265,-0.0814,6.7026,1545
48261,-3.0526,4.9596,4.2868,1572
48266,11.4191,7.8913,13.4387,1543
48271,7.689,-6.0885,16.4913,1545
48276,-11.06,-0.3484,10.8122,1549
48281,-10.6243,3.8283,3.7697,1561
48286,4.5849,6.9587,9.5876,1545
48291,15.1194,-1.5778,13.9067,1524
48296,-9.0249,-1.9537,17.3795,1547
48301,-13.9199,1.0116,5.7162,1558
48306,-0.2538,5.7365,5.211,1543
48311,13.7691,4.7968,14.1833,1560
48316,-0.9457,-4.9333,18.4497,1530
48321,-14.5591,-0.9577,7.525,1560
48326,-5.3965,4.6747,4.0031,1557
48331,8.5617,8.3031,12.4941,1561
48336,12.6857,-5.1715,14.9267,1542
48341,-10.1646,-0.5183,13.9917,1559
48346,-12.6043,1.6735,5.5869,1542
48351,2.7761,6.2956,6.7109,1576
48356,11.746,4.452,14.3413,1541
48361,-6.608,-3.735,18.0343,1565
48366,-11.7555,-0.6788,7.8111,1549
48371,-2.15,5.1392,4.6052,1560
48376,9.5433,8.3151,12.7132,1528
48381,6.037,-6.262,17.0766,1553
48386,-10.5668,-0.4058,13.3824,1549
48391,-13.6027,2.9497,4.1743,1560
48396,2.8359,6.2034,7.6543,1551
48401,15.6066,1.1504,13.8421,1545
48406,-6.8402,-3.2094,18.907,1547
48411,-13.5272,0.0898,6.3363,1548
48416,-2.4086,5.1966,4.3203,1555
48421,12.3146,6.9288,13.9833,1563
48426,4.1899,-5.8167,17.4082,1541
48431,-13.3357,-1.0391,9.1997,1567
48436,-7.5609,4.1384,3.9181,1548
48441,6.0849,7.9631,10.9822,1532
48446,15.1445,-3.0083,13.7834,1524
48451,-9.8641,-1.3611,16.7857,1517
48456,-12.5779,1.7992,5.375,1533
48461,0.3903,5.551,5.29,1547
48466,11.7699,3.9265,14.1186,1531
48471,-2.4289,-4.6352,18.2498,1566
48476,-12.0033,-0.5926,7.4735,1553
48481,-4.4388,4.865,4.1192,1543
48486,10.2891,8.3342,13.1106,1545
48491,9.979,-5.521,15.4833,1547
48496,-11.0816,-0.4489,12.1661,1548
48501,-11.7448,3.1759,3.9193,1559
48506,3.3782,6.5697,8.5988,1553
48511,15.9621,0.0634,13.4243,1533
48516,-7.7979,-2.7521,18.7969,1545
48521,-12.1853,0.5698,6.2022,1543
48526,-2.5031,5.1523,4.5346,1545
48531,10.8888,6.1076,14.0276,1548
48536,1.9609,-4.9692,17.4082,1545
48541,-11.5508,-1.1756,9.0118,1556
48546,-7.0677,4.4388,3.9983,1528
48551,7.7057,8.2768,11.5269,1548
48556,13.6637,-3.9025,14.1234,1543
48561,-10.4495,-0.8248,15.5779,1558
48566,-15.0619,2.0423,4.5885,1534
48571,1.4808,5.8299,6.5015,1559
48576,15.2918,3.146,13.7643,1544
48581,-4.0031,-4.2808,19.2135,1546
48586,-11.5975,-0.1317,6.8678,1557
48591,-4.9847,4.8961,3.9277,1533
48596,10.3011,7.6662,13.4782,1547
48601,7.3813,-5.4636,16.3392,1547
48606,-12.4163,-1.3707,11.0445,1555
48611,-9.0513,3.7493,4.0833,1541
48616,4.6914,7.3466,9.8174,1546
48621,15.8544,-1.1696,13.222,1528
48626,-9.165,-2.2577,18.5036,1555
48631,-13.7379,1.0056,5.6575,1555
48636,-0.929,5.3127,4.4568,1549
48641,12.5696,5.8047,14.2551,1533
48646,0.4669,-5.1368,17.9996,1555
48651,-13.2962,-1.1241,8.1918,1557
48656,-5.9556,4.6304,4.0809,1550
48661,8.0732,8.412,12.3397,1547
48666,13.3489,-4.6962,14.4179,1555
48671,-10.5237,-0.6333,14.7698,1545
48676,-13.6098,2.3044,4.707,1558
48681,2.302,6.0525,6.3985,1545
48686,14.5448,2.2613,14.1928,1533
48691,-6.1651,-3.541,18.6999,1533
48696,-14.2156,-0.0922,6.2896,1553
48701,-2.739,5.0386,4.6424,1542
48706,11.6358,7.7632,13.6015,1558
48711,7.7883,-6.4428,16.4458,1549
48716,-10.4351,-0.0239,10.556,1555
48721,-11.1306,3.4931,4.13,1549
48726,5.0661,7.0282,9.1937,1560
48731,14.2263,-1.5191,14.3628,1527
48736,-10.3609,-2.1536,16.9893,1567
48741,-13.04,1.4581,5.1284,1548
48746,0.1688,5.3893,6.1004,1556
48751,14.4047,5.0566,13.5919,1545
48756,0.2933,-5.8586,18.4282,1561
48761,-11.6203,0.182,7.7883,1549
48766,-7.1275,4.5633,3.705,1560
48771,8.0936,7.5657,12.1877,1543
48776,11.2563,-4.6364,15.2391,1561
48781,-12.0141,-0.9637,13.3704,1553
48786,-11.1043,3.0694,4.4125,1555
48791,2.8276,6.3782,8.3641,1547
48796,16.0184,1.0116,13.3034,1533
48801,-6.2716,-3.5865,18.9729,1553
48806,-11.9267,0.8033,6.2285,1545
48811,-3.6978,4.7022,4.1336,1547
48816,9.748,6.699,13.6972,1571
48821,4.7202,-5.0589,16.7965,1545
48826,-11.3665,-1.1528,10.2604,1571
48831,-8.4587,4.3155,4.1204,1541
48836,6.6056,7.6207,10.8409,1561
48841,14.5651,-2.7354,13.8337,1529
48846,-9.8593,-1.227,16.6433,1575
48851,-15.6832,1.6472,5.1032,1532
48856,0.4884,5.4121,5.6886,1609
48861,14.516,4.4831,14.1497,1541
48866,-1.3312,-4.9033,18.7538,1571
48871,-11.1809,-0.2263,7.4543,1549
48876,-6.3746,4.6926,3.869,1561
48881,9.341,7.9284,12.8389,1546
48886,9.7983,-5.2684,15.5851,1559
48891,-12.3254,-1.0738,12.2906,1553
48896,-10.3597,3.3004,4.3503,1568
48901,3.2417,6.6295,8.9986,1550
48906,16.1609,0.243,13.1585,1541
48911,-7.5729,-3.2358,18.9956,1553
48916,-12.3158,0.9792,5.9687,1558
48921,-2.7845,4.8076,4.379,1543
48926,10.4567,6.3375,13.8337,1553
48931,2.9928,-5.1044,17.0431,1555
48936,-11.6502,-1.0415,9.5888,1561
48941,-7.9021,4.4855,4.1408,1531
48946,7.2975,7.9763,11.4802,1533
48951,14.1162,-3.5602,13.8552,1544
48956,-10.313,-0.8428,16.0388,1549
48961,-14.8225,1.8244,4.944,1531
48966,1.1468,5.6276,5.9951,1549
48971,14.5699,3.4297,14.0516,1532
48976,-3.2477,-4.2916,18.8256,1557
48981,-14.0564,-0.5124,6.9947,1553
48986,-4.4688,4.883,4.1695,1546
48991,10.1275,7.926,13.3154,1532
48996,9.821,-5.9065,15.6234,1542
49001,-10.1538,-0.1604,11.8202,1547
49006,-11.7196,3.0825,4.6519,1549
49011,4.1515,6.8893,8.2863,1545
49016,14.3077,-0.5028,14.1246,1529
49021,-9.1459,-2.4672,17.6369,1551
49026,-13.1202,0.9673,5.6192,1533
49031,-0.8308,5.1523,5.4791,1523
49036,13.4913,6.1711,13.6398,1549
49041,3.1412,-6.1758,17.8452,1541
49046,-11.2743,0.0299,8.7305,1575
49051,-8.3103,4.3694,3.644,1545
49056,7.0557,7.6148,11.4335,1532
49061,13.0855,-3.8499,14.5891,1529
49066,-11.1187,-0.7901,14.7519,1543
49071,-12.5516,2.2206,4.5921,1531
49076,1.7621,6.1375,7.4759,1547
49081,15.9119,2.6731,13.143,1519
49086,-4.3658,-4.3024,19.4685,1546
49091,-11.552,0.2466,6.7074,1553
49096,-5.2373,4.4544,3.7792,1548
49101,9.4104,7.9188,13.2806,1545
49106,7.3239,-4.8363,16.2363,1553
49111,-11.2803,-1.5706,11.5029,1561
49116,-9.0166,3.6188,4.1671,1543
49121,5.2541,7.6375,10.1023,1553
49126,15.4234,-1.415,13.0269,1541
49131,-9.8186,-1.8088,18.1588,1549
49136,-16.3524,0.7374,5.0996,1545
49141,-0.2981,5.2277,5.5665,1557
49146,14.1761,6.1902,13.3549,1548
49151,1.4222,-5.7042,18.828,1560
49156,-9.8869,-0.3603,8.1475,1551
49161,-7.8769,3.705,4.1025,1548
49166,7.2688,8.6239,11.5125,1545
49171,10.732,-3.4177,14.7148,1555
49176,-10.3011,-2.2422,14.4646,1555
49181,-11.564,2.5307,4.9213,1558
49186,3.1855,6.5876,7.914,1555
49191,15.2415,1.737,12.7264,1543
49196,-6.5697,-3.4321,19.6061,1543
49201,-17.0216,-0.4884,6.1088,1557
49206,-2.3236,4.8399,4.5478,1541
49211,11.5831,8.2253,13.1154,1559
49216,7.5765,-6.0047,16.69,1548
49221,-9.408,-0.5938,10.6147,1559
49226,-10.1825,3.0622,4.5406,1549
49231,5.4336,8.0565,9.3697,1556
49236,12.0057,-1.3539,13.5584,1523
49241,-9.3039,-2.9628,17.1928,1563
49246,-12.8114,1.0666,5.715,1547
49251,0.9337,5.6731,6.0358,1560
49256,14.0192,5.0314,12.8305,1541
49261,-0.7135,-5.187,19.0016,1559
49266,-14.4311,-0.7793,7.7656,1559
49271,-5.4552,4.3598,3.8403,1563
49276,8.2444,8.5509,12.4044,1479
49281,12.202,-4.8638,14.4813,1549
49286,-9.9228,-0.7207,13.9151,1547
49291,-11.7472,2.3834,5.2241,1561
49296,2.8766,6.8103,7.2508,1553
49301,13.1023,1.0139,13.6374,1532
49306,-6.8546,-3.4189,18.1612,1551
49311,-12.4738,0.3388,6.3853,1555
49316,-1.9525,4.9979,4.6735,1543
49321,12.3254,7.4603,13.4913,1557
49326,5.8335,-6.0442,16.9653,1547
49331,-11.7436,-0.3041,10.0054,1565
49336,-8.9926,4.136,3.711,1541
49341,5.3846,7.1635,10.4052,1555
49346,14.947,-2.4134,13.9079,1527
49351,-9.4128,-1.4401,16.6098,1575
49356,-14.3185,1.4653,5.5126,1533
49361,0.5818,5.624,5.6216,1560
49366,14.4179,4.1216,14.2886,1525
49371,-3.0406,-4.2988,18.4138,1565
49376,-14.3532,-0.7314,7.1766,1555
49381,-4.3622,4.616,4.2341,1563
49386,9.7193,8.4408,12.9119,1546
49391,11.4814,-5.8119,15.2714,1559
49396,-10.5453,-0.0204,12.888,1543
49401,-12.7276,2.9233,4.367,1567
49406,3.4596,6.3794,7.7357,1545
49411,14.9733,0.4274,14.1102,1566
49416,-8.9818,-2.7916,18.0008,1533
49421,-13.4099,0.7649,5.7413,1547
49426,-1.1684,4.9775,5.3259,1547
49431,13.2124,6.8905,13.623,1559
49436,4.2617,-6.4284,17.7147,1549
49441,-12.3182,-0.0347,8.9543,1559
49446,-7.756,4.2497,3.4955,1545
49451,5.9472,7.7057,11.0887,1547
49456,14.7363,-3.3375,14.1018,1543
49461,-9.918,-1.1588,15.9382,1557
49466,-14.8357,1.7681,5.0613,1547
49471,1.3431,5.8694,6.4093,1557
49476,15.4163,3.3279,13.8361,1531
49481,-4.616,-4.0857,19.1752,1558
49486,-15.2008,-0.7027,6.4596,1543
49491,-3.316,4.5789,4.452,1547
49496,10.5908,8.6742,13.1897,1547
49501,10.1682,-6.2501,15.9717,1543
49506,-10.143,-0.1592,11.5029,1541
49511,-12.5803,3.0131,3.9409,1558
49516,3.9397,7.1144,8.843,1553
49521,16.1633,-0.5926,13.3788,1528
49526,-10.1801,-2.0435,18.4006,1532
49531,-14.7746,0.4824,5.1188,1532
49536,-0.7889,5.2134,5.9053,1555
49541,14.0647,6.5637,13.1537,1549
49546,2.5163,-6.5793,18.5706,1545
49551,-11.4239,0.0611,8.0529,1549
49556,-8.0302,4.0402,3.5602,1544
49561,6.8534,8.4695,11.7112,1547
49566,13.9893,-4.1731,14.2455,1528
49571,-11.1725,-0.759,15.0511,1578
49576,-13.2687,1.986,4.5059,1547
49581,1.4545,6.3614,7.8266,1561
49586,16.2147,2.478,12.8054,1527
49591,-5.053,-4.537,19.7486,1553
49596,-12.8844,0.1844,6.3351,1547
49601,-4.1312,4.7417,3.9875,1545
49606,10.3717,8.011,13.4303,1529
49611,8.4671,-6.0322,16.3847,1549
49616,-12.736,-0.6859,10.9367,1555
49621,-8.8107,3.5913,4.0534,1544
49626,4.1982,7.4053,10.2364,1544
49631,16.5822,-1.4485,13.0807,1527
49636,-9.5565,-2.1727,18.5132,1555
49641,-14.8848,1.0511,5.3822,1545
49646,-0.6967,5.2062,4.8973,1548
49651,13.4506,6.0885,14.1653,1545
49656,1.4006,-5.6216,18.4078,1541
49661,-14.0671,-0.7518,8.0194,1545
49666,-5.6264,4.3874,3.9552,1547
49671,7.4747,8.3665,12.1745,1533
49676,14.3245,-4.6878,14.2263,1529
49681,-10.6865,-0.4501,15.0775,1547
49686,-14.4945,2.2063,4.549,1545
49691,1.6328,5.6778,6.62,1553
49696,15.755,2.745,14.0803,1524
49701,-5.3606,-3.8894,19.095,1557
49706,-15.1194,-0.3077,6.2884,1549
49711,-3.1184,4.713,4.5897,1549
49716,11.0049,8.0385,13.386,1545
49721,9.1399,-6.4811,16.095,1531
49726,-10.4818,0.1269,11.2958,1541
49731,-11.9363,3.2501,4.13,1555
49736,4.1336,6.6571,8.843,1545
49741,15.3277,-0.9816,14.0204,1529
49746,-9.6031,-1.8567,17.5627,1541
49751,-14.0085,0.8847,5.4157,1553
49756,-0.8966,5.0973,5.8598,1531
49761,13.89,6.0908,13.4027,1532
49766,2.6983,-6.0908,17.8572,1545
49771,-10.7153,0.0036,8.6586,1553
49776,-8.7017,4.197,3.8283,1531
49781,6.8354,7.5956,11.2264,1571
49786,12.7779,-3.5135,14.4526,1532
49791,-11.1989,-1.2091,15.0093,1549
49796,-12.1494,2.0375,4.889,1541
49801,1.3767,5.9819,7.6387,1547
49806,15.2307,2.988,12.7755,1527
49811,-3.2525,-4.5334,18.8484,1556
49816,-11.4479,-0.0168,7.2592,1555
49821,-6.0549,4.5131,4.1312,1548
49826,8.7305,7.616,12.8545,1549
49831,8.6072,-4.6088,15.3504,1548
49836,-11.5808,-1.4054,12.4774,1548
49841,-10.0844,3.2872,4.7058,1561
49846,4.1456,7.1108,9.5972,1555
49851,15.2427,-0.2717,12.3828,1542
49856,-7.9248,-2.4134,18.4641,1544
49861,-15.1912,0.1006,6.2237,1543
49866,-1.5191,5.2672,5.0039,1541
49871,11.9459,6.4931,13.3142,1559
49876,4.1767,-5.3044,17.0467,1543
49881,-10.222,-0.8272,9.4978,1563
49886,-9.3817,3.802,4.5167,1550
49891,6.6116,8.2492,11.1175,1555
49896,13.6781,-3.207,13.113,1544
49901,-9.8426,-0.8691,16.0292,1563
49906,-14.8225,1.0942,5.6934,1533
49911,0.6009,6.2656,6.7552,1563
49916,14.1868,3.6931,12.6881,1533
49921,-1.4126,-4.5382,18.4318,1577
49926,-10.6015,-0.5052,7.7225,1547
49931,-7.0222,4.6412,4.5394,1563
49936,8.8669,7.7536,12.2954,1528
49941,9.7049,-4.6819,14.7842,1559
49946,-11.9363,-1.142,13.21,1541
49951,-11.0241,3.1065,4.9153,1560
49956,3.4453,6.7947,9.0872,1555
49961,15.2966,0.7374,12.4343,1547
49966,-6.0059,-3.2681,18.6448,1547
49971,-11.9171,0.5231,6.5996,1556
49976,-3.6763,5.047,4.5753,1551
49981,10.7093,6.426,13.3369,1563
49986,4.1767,-4.8542,16.2411,1543
49991,-12.1254,-1.2402,10.495,1561
49996,-8.8573,4.2437,4.549,1544
50001,6.517,7.7716,10.9954,1560
50006,14.6765,-2.4349,12.9419,1525
50011,-9.3003,-1.3539,17.1688,1553
50016,-12.6965,1.4449,5.8107,1553
50021,-0.4693,5.5522,5.369,1553
50026,12.4498,4.2808,13.7714,1550
50031,-0.8356,-4.525,17.413,1561
50036,-12.6186,-0.7458,8.193,1557
50041,-5.867,4.8399,4.4005,1553
50046,9.2668,8.0194,12.706,1542
50051,12.0357,-4.9356,14.1366,1557
50056,-10.6099,-0.2957,14.1677,1553
50061,-12.0883,2.6947,5.0613,1551
50066,2.5426,6.1938,7.1778,1549
50071,13.72,1.2414,13.9199,1555
50076,-6.2525,-3.2394,17.7626,1557
50081,-13.2052,0.3519,6.5027,1560
50086,-2.393,5.108,4.9488,1530
50091,11.8513,6.8354,13.5871,1549
50096,7.0222,-6.0825,16.0759,1532
50101,-10.5668,0.0515,10.647,1559
50106,-10.3118,3.7385,4.3838,1543
50111,5.1667,6.9001,9.487,1581
50116,13.0448,-1.5778,14.3042,1519
50121,-9.7181,-2.0638,16.5511,1559
50126,-12.7324,1.6712,5.4588,1530
50131,0.6381,5.5486,6.3195,1549
50136,14.1114,4.4712,13.4279,1543
50141,0.1939,-5.2613,17.9445,1561
50146,-11.4323,-0.0156,8.0074,1549
50151,-7.0737,4.6507,3.8319,1557
50156,8.3282,7.4543,12.372,1548
50161,10.8074,-4.4185,15.0188,1553
50166,-11.7902,-1.0068,13.3417,1555
50171,-11.0397,3.0119,4.5801,1563
50176,2.9951,6.4344,8.6311,1542
50181,15.8903,0.9313,13.137,1533
50186,-6.122,-3.3686,18.8244,1545
50191,-12.0823,0.7829,6.3865,1556
50196,-3.8343,4.7932,4.2318,1553
50201,9.7264,6.6894,13.7894,1563
50206,5.1727,-4.956,16.5798,1547
50211,-11.4742,-0.9792,10.4639,1561
50216,-8.272,4.2318,4.0941,1547
50221,6.256,7.5441,10.7583,1565
50226,14.9171,-2.7473,13.6386,1535
50231,-10.3717,-0.8356,16.751,1572
50236,-15.5192,1.7178,4.78,1511
50241,0.1018,5.1631,6.0885,1561
50246,15.2403,4.8231,13.9462,1531
50251,-0.3567,-5.4277,18.7119,1547
50256,-10.8553,0.4729,7.4508,1553
50261,-7.355,4.2665,3.7912,1561
50266,8.4443,7.6722,12.3672,1531
50271,10.5225,-4.47,15.427,1549
50276,-11.5628,-1.3012,13.2938,1544
50281,-10.4172,3.4058,4.3646,1556
50286,2.9892,6.2644,8.2696,1553
50291,16.5775,0.6752,13.7798,1553
50296,-7.8075,-3.1795,18.8184,1547
50301,-16.6277,0.7542,5.4743,1557
50306,-2.0973,4.9524,4.6555,1545
50311,12.7156,7.2868,13.9833,1555
50316,6.5781,-6.8474,17.1473,1543
50321,-10.5716,0.7362,9.6798,1563
50326,-10.1658,3.6512,3.9002,1540
50331,5.6371,7.2401,9.8928,1559
50336,13.6805,-2.8072,14.8357,1529
50341,-11.3605,-1.8016,16.1034,1562
50346,-11.9219,2.1644,4.865,1530
50351,0.5339,5.3786,6.4799,1566
50356,15.9861,4.215,13.9343,1531
50361,-2.0219,-5.8359,19.1632,1555
50366,-15.9813,0.3388,6.7696,1546
50371,-4.3886,4.8602,3.7912,1556
50376,8.7628,7.9643,12.8916,1545
50381,12.6749,-6.0059,15.3696,1549
50386,-10.975,0.1544,12.955,1549
50391,-12.4822,2.6432,4.2485,1555
50396,2.7809,6.6164,7.6471,1553
50401,14.7842,0.1161,14.297,1544
50406,-9.4092,-2.7138,18.1636,1549
50411,-12.8569,0.5088,5.6072,1559
50416,-1.6436,4.9955,5.2732,1544
50421,13.5069,7.3562,13.5105,1565
50426,5.278,-7.3251,17.7303,1545
50431,-13.1106,0.5722,8.9771,1563
50436,-8.3749,4.0043,3.4141,1529
50441,5.1296,7.7955,11.0756,1563
50446,16.2052,-3.5075,13.7056,1533
50451,-11.2659,-1.2318,16.8971,1561
50456,-13.2866,1.5287,4.9285,1541
50461,0.1437,6.0837,6.195,1567
50466,14.607,3.4812,13.7631,1543
50471,-4.197,-4.6675,18.5634,1565
50476,-13.4039,-0.3723,6.8378,1553
50481,-4.2126,4.8219,4.525,1560
50486,9.9012,8.3809,12.9682,1530
50491,11.8262,-6.5254,15.2918,1547
50496,-11.6693,0.4082,12.8676,1546
50501,-12.2344,2.8527,4.1659,1567
50506,3.1196,6.8079,8.1391,1549
50511,15.6665,-0.1161,13.7738,1541
50516,-9.3589,-2.5606,18.2749,1533
50521,-13.8624,0.7123,5.4576,1555
50526,-1.5634,5.3522,5.5162,1527
50531,13.1214,6.6331,13.5679,1565
50536,4.9991,-6.9791,17.5004,1541
50541,-11.2073,0.6608,8.9471,1571
50546,-9.2536,3.9037,3.8176,1531
50551,6.2046,7.6291,10.6279,1557
50556,14.0396,-3.4548,14.5256,1545
50561,-11.9171,-1.1289,15.7706,1565
50566,-12.226,2.1368,4.6196,1551
50571,1.0642,5.9628,7.2939,1565
50576,15.5707,3.2944,13.1657,1529
50581,-2.9006,-5.3786,19.0938,1561
50586,-12.3254,0.5148,6.76,1545
50591,-5.3786,4.7022,3.8559,1557
50596,9.3374,7.8733,13.0747,1544
50601,9.6582,-5.5677,16.0256,1563
50606,-12.5456,-0.7673,11.9554,1547
50611,-9.584,3.3124,4.0749,1564
50616,3.7852,7.2784,9.584,1547
50621,16.3189,-0.589,12.8138,1546
50626,-8.7544,-2.7545,18.9836,1549
50631,-12.809,0.9337,5.703,1549
50636,-2.2098,5.205,4.6531,1533
50641,11.6155,6.2237,13.9546,1563
50646,2.3056,-5.2864,17.7291,1554
50651,-12.5947,-1.087,8.934,1567
50656,-6.4835,4.4077,4.0031,1542
50661,7.2425,8.3653,11.813,1555
50666,14.194,-4.0342,13.7894,1519
50671,-10.7117,-0.8116,15.8532,1563
50676,-14.1928,1.8747,4.7728,1545
50681,1.4557,5.9041,6.3003,1555
50686,14.8309,3.1101,13.799,1529
50691,-4.2198,-4.1336,19.0674,1567
50696,-14.7806,-0.5878,6.5661,1559
50701,-3.6631,4.8483,4.4927,1544
50706,10.4208,8.187,13.2974,1533
50711,9.517,-6.1459,15.864,1517
50716,-10.1921,-0.1293,11.546,1547
50721,-10.5333,2.8575,4.4628,1556
50726,4.1468,7.2568,8.4336,1547
50731,13.3034,-0.3615,13.805,1533
50736,-8.8873,-2.7916,17.7817,1545
50741,-12.8952,0.7769,5.7413,1546
50746,-0.2047,5.4612,5.6659,1529
50751,13.0496,5.964,13.1956,1559
50756,2.2254,-5.7509,18.105,1541
50761,-11.6155,-0.4729,8.5234,1545
50766,-7.4208,4.2401,3.7278,1544
50771,6.9743,7.9595,11.7196,1531
50776,12.7455,-3.796,14.3963,1529
50781,-9.6283,-0.9409,14.777,1547
50786,-13.7595,1.7669,4.9584,1547
50791,1.9585,6.5829,7.2401,1553
50796,14.941,2.2314,13.1214,1531
50801,-4.9237,-3.5805,19.1823,1565
50806,-13.0113,-0.6333,6.7445,1547
50811,-3.7924,4.7621,4.2114,1542
50816,10.3226,8.0158,13.3357,1553
50821,7.8183,-5.4576,16.3344,1545
50826,-10.4603,-0.8583,10.805,1547
50831,-10.058,3.1412,4.2114,1547
50836,4.3179,7.6579,9.8031,1543
50841,15.4713,-1.2222,12.979,1531
50846,-8.6993,-2.0758,18.2618,1549
50851,-12.6617,0.5782,6.037,1542
50856,-1.5359,5.4636,4.8339,1544
50861,11.7531,5.7688,13.7499,1557
50866,0.8392,-4.8076,17.905,1553
50871,-12.3816,-1.3659,8.5102,1557
50876,-6.1639,4.4748,4.1037,1543
50881,7.4986,8.5497,12.0428,1533
50886,13.4674,-3.9959,13.951,1545
50891,-10.0987,-0.9697,15.3636,1555
50896,-14.4215,1.9357,4.9728,1545
50901,1.8459,6.0442,6.3518,1557
50906,14.3508,2.9257,13.7595,1528
50911,-4.3946,-3.7302,18.9944,1561
50916,-14.9841,-0.8188,6.6607,1555
50921,-3.7445,5.0123,4.5765,1555
50926,10.2843,8.1235,13.3118,1523
50931,9.7935,-6.0286,15.7515,1560
50936,-9.9527,-0.2753,11.6502,1549
50941,-10.9894,2.9341,4.5633,1575
50946,3.7314,7.0557,8.1415,1548
50951,13.0592,-0.085,13.8672,1543
50956,-8.0828,-3.1232,17.8428,1543
50961,-12.7874,0.6608,5.8838,1561
50966,-0.753,5.3606,5.4336,1555
50971,12.8724,6.4871,13.3369,1568
50976,3.4093,-6.0992,17.7339,1549
50981,-13.149,-0.4573,8.6263,1567
50986,-7.2257,4.1922,3.7146,1544
50991,6.0286,8.0194,11.5353,1561
50996,14.8069,-3.4836,13.8792,1533
51001,-9.8964,-1.2151,16.1226,1565
51006,-12.4187,1.5802,5.4241,1533
51011,0.4058,6.1555,5.9101,1563
51016,12.0752,3.2777,13.611,1531
51021,-3.3387,-4.2677,18.4437,1559
51026,-12.2487,-0.7242,7.2425,1558
51031,-4.0055,4.8243,4.361,1562
51036,9.8964,8.5102,12.9598,1533
51041,10.5405,-5.709,15.4438,1549
51046,-11.1259,-0.31,12.2966,1551
51051,-11.8142,2.9832,3.9409,1564
51056,3.0155,6.8726,8.7795,1549
51061,16.1429,0.334,12.9909,1544
51066,-7.7931,-2.9281,19.2362,1553
51071,-12.2248,0.2981,6.1124,1553
51076,-2.8611,5.1619,4.5286,1529
51081,10.9271,6.7421,13.8361,1555
51086,3.2214,-5.0147,17.2825,1551
51091,-11.6634,-1.5395,9.3709,1561
51096,-7.2796,4.1875,4.0462,1532
51101,6.6427,8.4803,11.4179,1563
51106,14.6346,-3.2597,13.4817,1529
51111,-10.4447,-1.2258,16.7175,1573
51116,-15.5108,1.3575,4.8255,1543
51121,0.8152,5.8838,6.2441,1559
51126,14.461,4.2868,13.3393,1531
51131,-2.1249,-4.8255,19.3499,1557
51136,-11.5353,-0.6357,7.1778,1533
51141,-5.7042,4.5406,4.0019,1553
51146,9.1925,8.6167,12.949,1547
51151,10.3262,-5.551,15.4354,1547
51156,-11.8333,-0.8954,12.2607,1547
51161,-10.4758,2.6995,4.2473,1547
51166,2.9784,7.2987,9.1303,1545
51171,16.083,0.4896,12.4307,1528
51176,-7.5417,-3.286,19.7151,1548
51181,-12.044,0.3795,6.122,1557
51186,-3.1316,4.7681,4.5657,1545
51191,9.8988,7.0402,13.3225,1553
51196,4.0989,-4.8483,17.0156,1543
51201,-11.2791,-1.7178,9.9695,1567
51206,-7.9452,4.0713,4.2569,1528
51211,6.7217,8.4491,11.3365,1561
51216,14.7914,-2.7737,13.0951,1541
51221,-10.2125,-1.3204,17.2143,1555
51226,-16.0663,1.0116,4.9273,1544
51231,0.5914,5.794,6.0693,1558
51236,14.1785,4.8435,12.9945,1551
51241,-0.9649,-4.9057,19.387,1551
51246,-10.3274,-0.65,7.4256,1553
51251,-6.9348,4.2796,4.0366,1541
51256,8.7975,8.8071,12.5241,1544
51261,10.5524,-4.6448,14.959,1555
51266,-11.9734,-1.8004,13.2806,1549
51271,-10.3418,2.6671,4.4819,1553
51276,3.304,7.1455,8.8693,1547
51281,15.7263,1.1732,12.2846,1533
51286,-7.2748,-3.5506,20.1616,1543
51291,-14.9494,-0.0323,6.0094,1561
51296,-2.2374,4.9524,4.2653,1553
51301,11.0229,7.8243,13.4351,1545
51306,6.3985,-5.9508,17.079,1546
51311,-10.4411,-0.7075,9.7743,1555
51316,-9.4236,3.5003,3.9863,1543
51321,5.2469,8.3833,10.7679,1545
51326,15.3145,-2.5845,13.2124,1545
51331,-9.8976,-1.4916,17.3975,1557
51336,-15.1924,0.814,5.1332,1533
51341,0.0994,5.7988,5.7485,1547
51346,14.0324,5.1799,13.2675,1531
51351,-0.5148,-5.2421,19.4158,1559
51356,-11.8884,-0.7075,7.44,1546
51361,-6.0142,4.3395,3.8798,1531
51366,8.023,8.8873,12.4678,1544
51371,12.4032,-5.1044,14.6477,1527
51376,-10.3992,-0.656,13.4961,1549
51381,-13.028,2.1835,4.3934,1544
51386,2.2446,7.009,8.1965,1555
51391,15.9083,1.5131,12.6953,1527
51396,-6.5015,-3.6571,19.9329,1548
51401,-13.0891,-0.1891,6.1878,1557
51406,-3.2765,4.9344,4.2701,1541
51411,10.9463,8.0158,13.3106,1555
51416,6.5936,-6.0035,17.0036,1549
51421,-12.5612,-1.1313,10.0353,1549
51426,-8.169,3.5698,4.1324,1567
51431,4.8411,8.2935,10.8481,1542
51436,16.0687,-2.1763,12.6845,1545
51441,-10.149,-1.9369,18.2809,1543
51446,-13.3848,0.9421,5.3738,1543
51451,-0.6476,5.7305,5.1308,1543
51456,12.4451,5.3965,13.6182,1543
51461,-0.3029,-4.9524,18.5251,1532
51466,-12.894,-1.3755,7.865,1547
51471,-5.2792,4.5466,4.282,1541
51476,8.2181,8.8837,12.5229,1531
51481,13.4255,-4.9404,14.0887,1541
51486,-10.8709,-0.6452,14.5256,1531
51491,-14.2347,2.0339,4.4388,1545
51496,2.1943,6.5637,7.4855,1547
51501,15.4689,2.2003,12.8832,1543
51506,-5.9867,-3.8571,19.9389,1563
51511,-14.2922,-0.5267,6.2225,1545
51516,-2.9413,4.9584,4.4412,1549
51521,10.7763,8.3043,13.3106,1545
51526,7.9523,-6.1292,16.6517,1543
51531,-10.1778,-0.5303,10.2807,1543
51536,-10.4651,3.1472,4.0654,1555
51541,4.5095,8.1451,10.0784,1545
51546,15.8496,-1.6568,12.8365,1531
51551,-9.845,-1.9884,18.3132,1553
51556,-15.2654,0.3771,5.3798,1543
51561,-0.3256,5.7389,5.7269,1529
51566,13.5679,5.8598,13.0735,1553
51571,0.9613,-5.6467,19.0878,1534
51576,-11.8561,-0.6632,7.7033,1560
51581,-6.4739,4.0953,3.9373,1543
51586,7.2784,8.9926,12.1649,1553
51591,13.6984,-4.6483,14.194,1543
51596,-10.5082,-0.82,14.631,1559
51601,-13.9031,1.719,4.5825,1555
51606,1.9166,6.7924,7.6243,1560
51611,15.6856,2.3331,12.5863,1543
51616,-5.8826,-4.0151,20.2645,1563
51621,-14.1988,-0.5543,6.189,1547
51626,-3.1328,4.7884,4.397,1545
51631,10.4531,8.5581,13.119,1547
51636,8.4491,-6.1459,16.5451,1555
51641,-10.2771,-0.5614,10.5417,1545
51646,-10.5608,2.9963,4.0606,1561
51651,4.3706,8.187,9.997,1529
51656,15.8879,-1.555,12.6976,1531
51661,-9.9383,-2.0506,18.658,1547
51666,-15.2822,0.2729,5.3905,1548
51671,-0.5303,5.6898,5.7305,1547
51676,13.4506,6.0274,12.9419,1557
51681,1.245,-5.8083,19.1201,1549
51686,-11.3222,-0.5842,7.7225,1560
51691,-6.9911,4.039,3.875,1531
51696,7.3071,9.0656,12.1326,1558
51701,13.5344,-4.7046,14.1437,1525
51706,-10.9188,-0.7099,14.6238,1559
51711,-13.4195,1.7514,4.4748,1549
51716,1.8136,6.8498,7.9667,1567
51721,15.7802,2.2661,12.4235,1528
51726,-5.8143,-4.1683,20.2585,1559
51731,-13.1442,-0.2239,6.2405,1549
51736,-3.4907,4.8231,4.2174,1554
51741,10.3537,8.3893,13.2519,1545
51746,8.1475,-6.1112,16.6601,1553
51751,-12.2571,-0.8296,10.4675,1553
51756,-8.7388,3.2777,3.9684,1564
51761,4.3898,8.3043,10.5608,1533
51766,16.4518,-1.6604,12.3816,1548
51771,-10.1957,-2.2505,19.0351,1549
51776,-13.9702,0.6321,5.3846,1553
51781,-0.6584,5.612,5.0913,1553
51786,12.8461,5.9556,13.4602,1561
51791,0.5567,-5.3989,18.816,1541
51796,-13.3201,-1.3228,7.8554,1563
51801,-5.3403,4.3479,4.1468,1547
51806,7.7632,9.1183,12.4343,1555
51811,14.0671,-4.8746,13.7571,1528
51816,-11.1115,-0.6237,15.1146,1565
51821,-14.2192,1.8687,4.4245,1555
51826,2.0255,6.5027,7.2425,1563
51831,15.4175,2.4983,12.9885,1530
51836,-5.6371,-4.0294,19.9617,1565
51841,-14.8895,-0.5974,6.1292,1556
51846,-2.9209,4.9356,4.5813,1545
51851,10.7691,8.3737,13.2567,1547
51856,8.9376,-6.511,16.2937,1555
51861,-10.4866,-0.1808,10.7536,1545
51866,-11.1534,2.9892,4.0294,1567
51871,4.4819,7.8422,9.6857,1559
51876,15.6305,-1.5706,13.1346,1527
51881,-11.0002,-1.6891,18.1337,1543
51886,-13.9833,0.4788,5.0099,1545
51891,-0.2861,5.6707,6.2991,1579
51896,13.9486,5.9592,12.7084,1558
51901,1.646,-6.3434,18.931,1532
51906,-11.3892,-0.0335,7.7931,1567
51911,-7.4879,4.033,3.7122,1531
51916,7.258,8.6335,11.9734,1548
51921,13.1897,-4.5203,14.382,1547
51926,-12.3325,-0.8727,14.5675,1555
51931,-11.6849,2.0877,4.4209,1533
51936,2.0255,6.8211,8.3785,1557
51941,16.0819,2.1261,12.2583,1533
51946,-5.7389,-4.464,20.1328,1567
51951,-12.9574,0.1676,6.1268,1553
51956,-3.8188,4.7262,4.0486,1548
51961,10.3825,8.2588,13.3788,1543
51966,7.8626,-6.0011,16.5092,1545
51971,-12.8353,-1.0738,10.7284,1553
51976,-8.4036,3.4393,4.0773,1563
51981,4.8722,8.2959,10.7272,1549
51986,16.3524,-1.8555,12.4331,1533
51991,-10.4196,-2.0363,18.8208,1555
51996,-14.7758,0.814,5.2277,1545
52001,-0.2693,5.5893,5.357,1548
52006,13.4542,5.9041,13.4375,1547
52011,0.6321,-5.6707,18.9333,1547
52016,-13.726,-0.893,7.6698,1555
52021,-5.3151,4.3586,4.0498,1549
52026,7.7859,9.0202,12.4953,1543
52031,14.0216,-5.1008,14.0659,1525
52036,-11.1977,-0.5411,14.8141,1555
52041,-13.4015,1.9261,4.6064,1528
52046,2.2039,6.6164,7.2006,1545
52051,15.2523,2.0004,13.2639,1543
52056,-7.2496,-3.462,19.3523,1557
52061,-13.9558,-0.4393,6.0178,1551
52066,-2.3355,5.0051,4.9309,1557
52071,11.4646,8.163,13.1466,1543
52076,8.2839,-6.8247,16.5631,1533
52081,-11.1306,0.1185,10.4986,1547
52086,-10.6817,3.3315,3.7553,1555
52091,4.628,7.6686,9.8881,1548
52096,15.8484,-1.919,13.3345,1533
52101,-10.5129,-1.6628,17.9314,1553
52106,-14.9243,0.7278,4.968,1547
52111,-0.0419,5.715,6.2692,1547
52116,14.4287,5.5055,12.9921,1547
52121,0.2933,-6.0071,19.2242,1543
52126,-11.3772,-0.1532,7.4316,1551
52131,-6.8091,4.1013,3.7122,1533
52136,7.944,8.9076,12.3301,1544
52141,12.5444,-5.0937,14.6956,1529
52146,-12.5648,-0.7961,13.8169,1545
52151,-11.0516,2.2913,4.312,1541
52156,2.4732,7.0294,8.7197,1567
52161,16.52,1.47,12.123,1527
52166,-7.0976,-3.9995,20.304,1554
52171,-13.9821,0.2095,5.8933,1545
52176,-2.7869,4.8602,4.2641,1527
52181,11.0552,8.1068,13.441,1533
52186,6.8714,-6.3363,17.1317,1547
52191,-12.7587,-0.723,9.93,1541
52196,-7.9978,3.4907,3.8906,1555
52201,5.1739,8.5497,11.1163,1543
52206,16.3153,-2.7138,12.6569,1527
52211,-11.0361,-1.64,18.2534,1549
52216,-14.5292,0.9685,5.0817,1556
52221,0.182,5.7557,5.6443,1546
52226,14.0923,5.1966,13.3644,1544
52231,-1.5754,-5.3127,19.3511,1527
52236,-14.0121,-0.9565,7.1563,1545
52241,-4.4676,4.5562,4.2437,1547
52246,8.6862,9.1698,12.7814,1533
52251,13.1777,-5.794,14.4861,1547
52256,-11.4563,-0.1927,13.8433,1553
52261,-13.2878,2.2685,4.1575,1547
52266,2.7186,6.8474,7.9344,1547
52271,16.1609,1.0965,12.9957,1541
52276,-8.2504,-3.2118,19.7605,1559
52281,-15.026,-0.1329,5.5474,1553
52286,-1.8148,5.1978,5.0901,1546
52291,12.1877,7.8171,13.2411,1548
52296,6.6619,-6.9994,17.3161,1533
52301,-10.9774,0.17,9.5038,1557
52306,-9.8019,3.4788,3.7218,1553
52311,5.466,8.2528,10.6267,1533
52316,15.3612,-3.0754,13.5464,1525
52321,-12.1123,-1.1241,17.0359,1541
52326,-13.3728,1.239,4.6029,1549
52331,0.644,6.0837,6.9971,1553
52336,15.269,4.4544,12.6737,1527
52341,-1.6269,-5.9185,19.7414,1556
52346,-12.4522,0.2155,6.8534,1556
52351,-5.5988,4.4257,3.6631,1547
52356,8.6538,8.7628,12.8569,1543
52361,11.7412,-5.8107,15.2666,1555
52366,-12.6953,-0.516,12.7814,1543
52371,-10.562,2.6911,3.9468,1555
52376,3.1137,7.4879,9.4032,1553
52381,16.8911,0.1568,12.2475,1543
52386,-8.7592,-3.371,20.1532,1547
52391,-14.2898,0.4477,5.4971,1556
52396,-1.834,5.1463,4.4975,1531
52401,12.1075,7.4867,13.5033,1549
52406,4.7836,-6.4452,17.8955,1531
52411,-13.3525,-0.7446,8.8526,1559
52416,-6.8151,3.8966,3.8523,1542
52421,6.116,8.9364,11.7795,1562
52426,15.9178,-3.7673,13.0759,1525
52431,-11.5137,-1.1516,17.2023,1564
52436,-14.5089,1.3587,4.6783,1544
52441,1.0271,6.201,6.2429,1559
52446,14.9745,3.9253,13.2256,1541
52451,-3.7649,-4.9177,19.8755,1549
52456,-14.4215,-0.7877,6.5254,1549
52461,-3.5039,4.7621,4.3946,1555
52466,9.7001,8.9711,13.0209,1531
52471,11.6155,-6.4799,15.4115,1554
52476,-11.2085,-0.018,12.4223,1550
52481,-12.4032,2.5606,3.9456,1558
52486,3.4872,7.452,8.8238,1561
52491,16.3069,-0.1712,12.8545,1549
52496,-9.7169,-2.6911,19.4673,1543
52501,-15.044,0.0515,5.1942,1545
52506,-1.0283,5.4552,5.6264,1547
52511,13.0735,7.0306,13.0065,1554
52516,4.2222,-6.8474,18.245,1554
52521,-11.1271,0.0706,8.4851,1565
52526,-8.5533,3.6619,3.7122,1531
52531,6.3351,8.7388,11.406,1571
52536,14.5508,-4.0115,13.7714,1528
52541,-12.4726,-0.9194,15.931,1563
52546,-12.6115,1.6149,4.3922,1525
52551,1.3791,6.5218,7.7381,1566
52556,15.7634,3.3243,12.293,1531
52561,-3.8247,-5.2577,20.1197,1563
52566,-12.979,0.2059,6.3805,1544
52571,-4.4616,4.6328,3.8283,1554
52576,9.517,8.7616,13.1418,1541
52581,10.1706,-6.1172,15.8161,1561
52586,-12.6809,-0.5543,11.6981,1549
52591,-9.5936,3.0287,3.9504,1557
52596,3.869,7.9715,10.0006,1557
52601,16.8073,-0.7913,12.3002,1547
52606,-9.7217,-2.6839,19.7031,1544
52611,-14.771,0.5626,5.357,1555
52616,-0.9613,5.3858,4.9237,1553
52621,12.815,6.9288,13.4183,1565
52626,2.8994,-6.2237,18.6245,1554
52631,-13.5404,-0.8727,8.1798,1553
52636,-5.9807,4.0594,3.8295,1547
52641,6.8139,9.2237,12.1745,1563
52646,15.2559,-4.5011,13.4901,1529
52651,-11.485,-0.9158,16.2231,1575
52656,-14.4682,1.5227,4.476,1533
52661,1.5886,6.444,6.8438,1565
52666,15.4582,3.2298,12.8473,1545
52671,-5.1475,-4.6052,20.2609,1561
52676,-14.8093,-0.6476,6.1591,1547
52681,-2.9772,4.7812,4.5454,1555
52686,10.2735,8.8801,13.1011,1544
52691,10.3621,-6.6619,15.9155,1555
52696,-10.9152,-0.1125,11.4132,1547
52701,-11.6011,2.7461,3.8738,1565
52706,4.0642,7.8243,9.4344,1557
52711,16.2363,-0.9577,12.7515,1533
52716,-10.7248,-2.1081,19.0674,1545
52721,-14.7411,0.2382,4.9763,1555
52726,-0.3352,5.5677,6.0142,1543
52731,13.6996,6.5505,12.7647,1563
52736,2.4337,-6.5613,18.9082,1547
52741,-11.6107,-0.1856,7.9021,1559
52746,-7.331,3.8032,3.5686,1550
52751,6.8522,9.1171,11.9363,1562
52756,14.2419,-4.4053,13.8995,1533
52761,-11.8585,-0.8535,15.3037,1563
52766,-13.0257,1.5862,4.1683,1547
52771,1.7669,6.8546,8.0804,1571
52776,16.1477,2.575,12.0572,1533
52781,-5.7676,-4.5011,20.7386,1562
52786,-13.5105,-0.1089,6.0777,1544
52791,-3.4393,4.6519,4.0845,1565
52796,10.1873,8.8011,13.228,1531
52801,8.7412,-6.3446,16.4877,1565
52806,-12.5133,-0.6812,10.671,1541
52811,-8.8885,3.0347,3.8547,1563
52816,4.3898,8.4934,10.6482,1554
52821,16.6217,-1.7645,12.1985,1555
52826,-10.5872,-2.2398,19.3451,1549
52831,-14.4861,0.5986,5.1978,1555
52836,-0.2514,5.709,5.4133,1553
52841,13.3668,6.0394,13.0771,1567
52846,0.4262,-5.6036,19.0806,1547
52851,-13.8852,-1.257,7.6435,1561
52856,-4.8734,4.2377,4.1767,1547
52861,7.835,9.3673,12.5301,1555
52866,14.1988,-5.023,13.8469,1527
52871,-11.3066,-0.6991,14.9985,1564
52876,-14.1844,1.6795,4.3323,1541
52881,2.3104,6.9288,7.6938,1559
52886,15.7108,2.1835,12.3014,1532
52891,-6.7157,-3.9181,20.5853,1565
52896,-15.0057,-0.5997,5.8981,1548
52901,-2.3834,4.9201,4.7549,1548
52906,11.0061,8.4527,13.0688,1533
52911,8.2875,-6.6307,16.8324,1554
52916,-10.8002,-0.2801,10.2005,1553
52921,-10.3382,3.0095,3.7936,1571
52926,4.792,8.4827,10.3872,1553
52931,16.0902,-2.0925,12.7635,1546
52936,-11.3485,-1.6831,18.3958,1549
52941,-14.7615,0.6045,4.7214,1543
52946,0.1437,5.9496,6.5326,1555
52951,14.382,5.448,12.4786,1547
52956,0.1401,-6.2357,19.6025,1547
52961,-11.8932,-0.0419,7.1575,1565
52966,-6.3267,4.1659,3.7661,1531
52971,7.7488,9.0345,12.4271,1553
52976,12.882,-5.3151,14.6729,1529
52981,-12.7431,-0.656,13.8229,1553
52986,-11.157,2.2781,4.0247,1545
52991,2.6109,7.2939,8.9064,1562
52996,16.4865,1.1971,12.0153,1543
53001,-7.2856,-4.0342,20.5051,1557
53006,-13.8469,0.3795,5.7138,1555
53011,-2.5414,5.0985,4.2737,1543
53016,11.0816,7.9284,13.4147,1544
53021,6.7062,-6.4248,17.2011,1545
53026,-13.1705,-0.6835,9.8102,1543
53031,-7.5681,3.7984,3.8056,1546
53036,5.3235,8.4803,11.1366,1549
53041,16.3093,-2.8599,12.9059,1542
53046,-10.8876,-1.6831,18.0762,1549
53051,-14.6405,1.2689,4.8315,1546
53056,0.4082,5.8407,5.5917,1554
53061,14.2599,4.9967,13.5177,1529
53066,-1.5107,-5.4384,19.332,1533
53071,-14.2814,-0.7458,7.0677,1549
53076,-4.2569,4.5717,4.1851,1542
53081,8.7747,9.013,12.8329,1531
53086,12.8652,-5.9209,14.7076,1527
53091,-11.3497,-0.2897,13.6194,1555
53096,-13.1633,2.3774,4.1001,1545
53101,2.788,6.9576,8.0876,1544
53106,16.0878,0.9505,12.9107,1524
53111,-8.0972,-3.3579,19.7174,1556
53116,-15.3013,-0.17,5.5701,1557
53121,-1.7777,5.223,5.1787,1554
53126,12.0596,7.6231,13.1071,1533
53131,6.2608,-6.8546,17.2981,1527
53136,-10.7895,-0.0431,9.5493,1549
53141,-9.6654,3.4453,3.9995,1545
53146,5.6216,8.3641,10.6386,1553
53151,14.6932,-2.9748,13.4434,1543
53156,-11.9303,-1.2929,16.9031,1550
53161,-12.9179,1.2246,4.7836,1542
53166,0.7781,6.1232,7.1371,1541
53171,14.6537,4.373,12.3481,1533
53176,-1.2246,-5.8203,19.508,1549
53181,-12.2679,-0.0563,7.1946,1545
53186,-5.8239,4.4053,3.8475,1547
53191,8.2145,8.7005,12.6055,1551
53196,11.7268,-5.2816,14.8153,1534
53201,-11.8597,-0.6883,13.3273,1547
53206,-11.3258,2.4038,4.2737,1541
53211,2.8204,7.4496,9.1506,1548
53216,16.0591,0.735,11.9902,1519
53221,-7.1204,-3.6057,19.8803,1547
53226,-12.7084,0.2251,6.1375,1554
53231,-3.1544,5.1236,4.555,1549
53236,10.6985,7.3981,13.2986,1541
53241,5.9592,-5.6671,16.7834,1549
53246,-12.7336,-1.3587,10.2532,1547
53251,-7.7608,3.8499,4.2617,1559
53256,5.7581,8.5126,11.1175,1555
53261,15.5982,-2.5905,12.4044,1542
53266,-10.471,-1.6221,18.1756,1543
53271,-15.0727,0.8751,5.2505,1551
53276,0.2394,5.8838,5.8012,1555
53281,13.4446,5.12,13.0556,1555
53286,0.164,-5.4684,18.7969,1543
53291,-13.0532,-0.6955,7.6974,1561
53296,-5.6683,4.3922,4.1982,1533
53301,7.9763,8.8442,12.554,1551
53306,13.1394,-5.2182,14.0013,1527
53311,-10.8948,-0.4453,14.4586,1559
53316,-13.1585,1.9154,4.8231,1533
53321,2.4936,7.0378,7.6555,1571
53326,14.9674,1.5143,12.6474,1531
53331,-6.8474,-3.2813,19.2889,1560
53336,-14.4143,-0.5052,6.207,1553
53341,-2.3595,5.1583,5.1906,1549
53346,11.0241,7.8482,12.8377,1543
53351,8.6239,-6.5218,16.0854,1559
53356,-10.799,-0.0168,10.9212,1541
53361,-10.8864,3.1089,4.1647,1567
53366,4.9835,7.9511,9.8701,1548
53371,14.8022,-1.743,13.034,1579
53376,-11.0157,-1.6723,17.8117,1542
53381,-13.386,0.7386,5.1104,1548
53386,0.1353,5.8873,6.4823,1541
53391,13.7295,5.4791,12.5133,1557
53396,1.64,-6.3578,18.6832,1547
53401,-11.8597,0.0778,7.9152,1599
53406,-7.2903,4.2437,3.7876,1546
53411,7.2496,8.5329,12.0572,1561
53416,13.2112,-4.707,14.2694,1543
53421,-12.2439,-0.6524,14.7303,1567
53426,-12.1673,2.223,4.3395,1548
53431,2.0375,6.9204,8.3163,1573
53436,15.9334,1.8615,12.2906,1545
53441,-5.1882,-4.6364,19.818,1567
53446,-12.5205,0.4633,6.2836,1548
53451,-4.1264,4.9871,4.2365,1561
53456,10.0856,7.7883,13.2483,1546
53461,8.0685,-5.8969,16.3177,1562
53466,-12.9586,-1.0953,11.1282,1547
53471,-8.5377,3.7613,4.1659,1559
53476,4.8052,8.0254,10.5453,1545
53481,16.1908,-1.7526,12.4822,1545
53486,-9.8294,-2.3439,18.8029,1531
53491,-14.9554,0.9541,5.2409,1547
53496,-0.5375,5.7449,5.2672,1531
53501,12.9155,5.8442,13.4674,1562
53506,2.241,-6.0406,18.3947,1545
53511,-13.2519,-0.4956,8.0756,1565
53516,-6.1172,4.385,3.9899,1547
53521,7.112,8.6155,12.2248,1567
53526,14.5711,-4.7776,13.8433,1523
53531,-11.1558,-0.6452,15.5444,1573
53536,-13.7463,1.822,4.6926,1544
53541,1.6939,6.5625,6.9037,1575
53546,15.1014,2.5977,13.2615,1527
53551,-5.5677,-4.0725,19.4349,1567
53556,-14.1988,-0.4549,6.286,1544
53561,-2.9987,5.0075,4.7357,1557
53566,10.3896,8.3629,13.0388,1527
53571,10.4435,-6.7864,15.7347,1549
53576,-11.5209,0.2801,11.6861,1543
53581,-11.6418,3.1496,3.8188,1560
53586,3.7625,7.2604,9.2452,1556
53591,16.3057,-0.8643,13.3225,1542
53596,-9.9144,-2.3092,18.6772,1531
53601,-14.9207,0.6357,5.0254,1556
53606,-0.7673,5.4995,5.7425,1541
53611,13.5069,6.5074,13.1669,1559
53616,3.7553,-7.0222,18.1457,1541
53621,-11.8477,0.4393,8.4013,1560
53626,-8.0158,4.0749,3.644,1547
53631,6.2237,8.2696,11.5496,1561
53636,15.032,-4.227,14.0564,1523
53641,-12.4463,-0.6895,15.8029,1567
53646,-13.149,1.7813,4.2713,1553
53651,1.1899,6.2956,7.5633,1553
53656,15.9765,3.2813,12.5552,1546
53661,-3.6631,-5.5282,19.9437,1533
53666,-13.1717,0.3256,6.4153,1549
53671,-4.4125,4.7525,4.0127,1549
53676,9.262,8.4827,12.9993,1542
53681,10.6913,-6.2177,15.5527,1540
53686,-12.7395,-0.34,12.0488,1551
53691,-10.0772,3.0023,4.0306,1550
53696,3.5123,7.6734,9.8366,1547
53701,16.696,-0.4764,12.1566,1531
53706,-8.9974,-3.1256,19.7151,1541
53711,-14.1557,0.5052,5.5988,1551
53716,-1.5694,5.4109,4.8698,1543
53721,12.153,6.9312,13.2806,1553
53726,4.1575,-6.2908,17.7422,1549
53731,-13.4099,-0.8452,9.0321,1547
53736,-6.6966,4.057,4.136,1541
53741,6.207,8.8178,11.8405,1544
53746,15.5635,-3.7158,12.7719,1530
53751,-11.2216,-1.2031,17.2478,1562
53756,-14.3245,1.2342,5.023,1547
53761,1.0343,6.4416,6.3698,1542
53766,14.0599,3.9612,12.7599,1531
53771,-2.6635,-4.7692,19.4601,1548
53776,-14.1868,-1.0403,7.0186,1543
53781,-4.1037,4.7776,4.604,1532
53786,8.8729,8.7939,12.7072,1541
53791,12.3852,-5.9268,14.5005,1541
53796,-11.1151,-0.2873,13.5488,1554
53801,-12.5899,2.211,4.5837,1545
53806,3.134,7.4472,8.2157,1551
53811,14.7267,0.5387,12.6402,1529
53816,-8.2744,-2.8299,19.1943,1553
53821,-13.8924,-0.2825,5.8071,1545
53826,-1.6915,5.4648,5.4899,1547
53831,11.5365,7.3801,12.8066,1547
53836,7.2676,-6.8115,16.8827,1543
53841,-10.9858,0.0874,10.0173,1556
53846,-10.3118,3.5314,3.881,1565
53851,5.0182,8.1044,10.3956,1557
53856,15.3181,-2.3284,13.1274,1559
53861,-10.7272,-1.5467,17.7267,1544
53866,-14.5603,0.8033,4.8459,1545
53871,0.091,6.1938,6.6559,1545
53876,13.963,5.0099,12.6091,1563
53881,1.1025,-6.2848,18.9238,1541
53886,-11.2803,0.1688,7.5381,1566
53891,-7.3646,4.2737,3.9049,1547
53896,7.4723,8.5904,12.0177,1564
53901,12.8676,-4.7669,14.4155,1547
53906,-12.9263,-0.9577,14.5304,1561
53911,-11.0397,2.3008,4.3586,1527
53916,2.3343,6.9899,8.5533,1573
53921,15.8544,2.0183,12.0644,1532
53926,-5.0961,-4.8076,20.1927,1567
53931,-14.4442,0.2741,6.098,1549
53936,-3.3914,5.1463,4.1587,1561
53941,9.572,8.0804,13.1837,1547
53946,10.1047,-6.2441,16.034,1555
53951,-11.1151,-0.2382,11.5017,1551
53956,-11.248,3.0275,3.9875,1555
53961,3.8355,7.9607,9.8749,1559
53966,16.4206,-1.0714,12.469,1551
53971,-9.3553,-2.6624,19.2805,1548
53976,-15.1457,0.3735,5.3235,1560
53981,-1.1744,5.6946,5.3965,1531
53986,12.4379,6.6475,13.0424,1553
53991,4.7285,-6.7181,17.9517,1545
53996,-11.6155,-0.0515,8.7628,1555
54001,-8.2025,3.9253,3.9205,1534
54006,5.8203,8.5665,11.4586,1553
54011,15.4881,-3.6643,13.1454,1529
54016,-11.1965,-1.166,16.9964,1541
54021,-14.8417,1.0942,4.8614,1528
54026,0.7099,6.4751,6.9911,1542
54031,14.5424,4.0797,12.4331,1545
54036,-1.2749,-5.709,19.6013,1541
54041,-12.2906,-0.2071,7.0054,1557
54046,-5.5976,4.5466,4.0259,1541
54051,8.0409,8.7305,12.5432,1555
54056,12.651,-5.3534,14.6046,1542
54061,-11.4191,-0.4501,13.7415,1561
54066,-12.6713,2.1261,4.4161,1579
54071,2.4588,7.4232,8.7951,1568
54076,15.8436,1.3048,11.8429,1527
54081,-6.3758,-4.0486,20.0921,1560
54086,-12.8533,-0.0718,6.1818,1543
54091,-3.3842,5.187,4.616,1558
54096,10.3142,7.7656,12.9275,1553
54101,7.9248,-6.122,16.3416,1557
54106,-12.8377,-0.8847,10.8242,1532
54111,-8.6503,3.3567,4.2988,1565
54116,4.543,8.2277,10.7296,1545
54121,16.034,-1.4653,11.8944,1557
54126,-9.5768,-2.4217,19.1991,1549
54131,-13.4399,0.5854,5.7245,1559
54136,-1.2115,5.8191,5.2289,1555
54141,11.6394,5.9448,12.9203,1561
54146,2.6372,-5.2397,17.8464,1529
54151,-12.9658,-1.5107,8.8969,1561
54156,-6.347,4.3144,4.4125,1541
54161,6.9372,8.8226,11.9734,1545
54166,14.7662,-3.7697,12.7802,1526
54171,-10.8924,-1.0786,16.9186,1547
54176,-14.5244,1.1325,5.1523,1553
54181,1.221,6.4655,6.4643,1555
54186,13.7188,3.717,12.627,1547
54191,-2.2194,-4.5873,19.2901,1543
54196,-14.054,-1.0834,7.2317,1547
54201,-4.4245,4.8231,4.6052,1533
54206,8.685,8.6143,12.6737,1546
54211,12.3816,-5.5952,14.3963,1525
54216,-10.726,-0.3699,13.6888,1559
54221,-12.4534,2.0973,4.8578,1544
54226,2.8766,7.3646,7.8422,1563
54231,14.0001,0.8871,12.7467,1531
54236,-7.452,-2.9868,18.9764,1555
54241,-13.3704,-0.4381,6.183,1547
54246,-2.0363,5.442,5.4229,1559
54251,11.1522,7.5154,12.6713,1547
54256,8.1606,-6.6212,16.1776,1561
54261,-10.9918,-0.006,10.7847,1531
54266,-11.0014,3.2465,4.0689,1555
54271,4.8111,7.9763,10.0904,1549
54276,15.2594,-1.7166,12.7874,1554
54281,-9.8557,-1.7561,18.2426,1543
54286,-15.026,0.3795,5.3032,1549
54291,-0.3065,6.0537,6.2764,1545
54296,13.2088,5.6755,12.4199,1559
54301,2.6312,-6.2165,18.4509,1545
54306,-10.7069,-0.1329,8.2109,1559
54311,-8.2648,3.8523,4.1539,1549
54316,7.0102,8.7592,11.5628,1557
54321,13.307,-4.1216,13.8385,1527
54326,-12.566,-1.154,15.5228,1563
54331,-11.6945,1.6723,4.7166,1547
54336,1.962,6.9097,8.1247,1555
54341,15.044,2.964,11.6681,1555
54346,-3.3172,-5.2086,20.0431,1547
54351,-12.9969,-0.0431,6.6966,1557
54356,-4.725,4.7441,4.0342,1541
54361,8.8166,8.4575,12.7886,1549
54366,10.9092,-5.5749,15.2499,1531
54371,-11.8441,-0.6321,12.4965,1555
54376,-10.7931,2.642,4.2018,1547
54381,3.4764,8.0206,9.7432,1558
54386,16.1261,-0.018,11.7675,1529
54391,-8.2277,-3.2561,20.0921,1549
54396,-13.5596,0.1999,5.8634,1547
54401,-2.1416,5.4001,4.7058,1555
54406,11.1725,7.2832,13.0771,1544
54411,5.3941,-6.0178,17.4861,1555
54416,-13.1561,-1.2869,9.5672,1543
54421,-7.2065,3.8331,4.2341,1557
54426,5.6587,8.8346,11.4958,1557
54431,15.9502,-2.9221,12.2308,1543
54436,-10.9259,-1.7047,18.3049,1549
54441,-14.5268,0.8835,5.1128,1560
54446,0.3579,6.2836,5.8849,1549
54451,13.2735,4.9285,12.7647,1554
54456,-0.31,-5.3331,19.2434,1549
54461,-13.787,-1.1037,7.5022,1559
54466,-4.9692,4.5358,4.3455,1541
54471,7.8578,9.0058,12.4642,1560
54476,13.6996,-5.138,13.799,1547
54481,-11.0301,-0.6704,14.8764,1567
54486,-13.4231,1.7957,4.8052,1529
54491,2.3918,7.112,7.428,1567
54496,14.3951,1.9489,12.6845,1541
54501,-6.1172,-3.5099,19.557,1556
54506,-14.0803,-0.9038,6.3135,1547
54511,-2.6647,5.1918,4.9811,1546
54516,10.3034,8.1942,12.6953,1547
54521,9.7899,-6.4476,15.7491,1545
54526,-10.6698,-0.1927,11.5867,1545
54531,-11.8752,2.8156,4.3,1548
54536,4.2377,7.8673,9.2524,1533
54541,15.1002,-0.8308,12.7216,1547
54546,-9.5205,-2.211,18.7059,1548
54551,-14.3892,0.0335,5.3929,1549
54556,-0.8751,5.7988,5.9412,1543
54561,12.3469,6.462,12.5468,1541
54566,4.7776,-6.6798,17.68,1523
54571,-10.6374,-0.0706,9.0465,1553
54576,-9.3039,3.6703,4.1037,1553
54581,6.2345,8.5497,10.8816,1557
54586,13.8133,-3.2537,13.4159,1547
54591,-11.8429,-1.421,16.5775,1533
54596,-12.5277,1.3336,4.9368,1533
54601,1.0642,6.5374,7.3538,1541
54606,14.2599,4.0247,12.05,1560
54611,-0.7422,-5.8945,19.2398,1543
54616,-12.0333,0.0108,7.3418,1563
54621,-6.213,4.5981,3.9816,1557
54626,7.9452,8.4827,12.4283,1562
54631,12.1877,-5.0458,14.5244,1544
54636,-11.9519,-0.7733,13.8708,1560
54641,-11.6861,2.2673,4.4197,1547
54646,2.6444,7.4627,9.0022,1563
54651,15.6126,1.2462,11.7771,1541
54656,-5.8706,-4.1228,19.9569,1559
54661,-12.5492,0.0323,6.353,1557
54666,-3.8726,5.0661,4.4173,1558
54671,10.1227,7.8231,13.0185,1545
54676,7.9344,-5.7808,16.204,1553
54681,-12.8377,-1.3707,11.2049,1553
54686,-8.6622,3.4141,4.3299,1557
54691,4.8782,8.43,10.6889,1547
54696,15.9502,-1.482,11.7555,1551
54701,-9.6738,-2.4062,19.4098,1549
54706,-14.6346,0.4525,5.6563,1547
54711,-0.814,5.8622,5.2349,1545
54716,12.1194,6.207,12.8772,1562
54721,3.213,-5.8849,18.2067,1531
54726,-13.1106,-1.057,8.5688,1556
54731,-6.5529,4.1456,4.1252,1547
54736,6.5853,9.0848,12.0285,1545
54741,15.1134,-4.0235,12.864,1548
54746,-11.0014,-1.1744,16.8731,1545
54751,-13.8409,1.1708,5.1499,1543
54756,1.1468,6.7133,6.4009,1533
54761,13.5536,3.4776,12.6031,1531
54766,-3.4105,-4.4113,19.4074,1542
54771,-13.6769,-1.2749,6.9947,1532
54776,-3.7864,4.9608,4.7393,1549
54781,9.1267,8.7688,12.6462,1549
54786,12.2344,-5.958,14.601,1529
54791,-11.2456,-0.2693,13.4889,1551
54796,-13.1286,2.2314,4.3503,1543
54801,3.2848,7.507,8.418,1565
54806,15.3229,0.5519,12.3768,1527
54811,-7.7835,-3.2106,19.7749,1573
54816,-15.0116,-0.5064,5.8407,1547
54821,-1.8244,5.5677,5.3067,1549
54826,11.4,7.3909,12.7132,1541
54831,7.252,-6.6726,16.8097,1553
54836,-10.5141,-0.1137,10.0377,1545
54841,-10.088,3.2082,4.2174,1561
54846,5.4456,8.5377,10.1538,1546
54851,14.1246,-2.4217,13.1657,1555
54856,-11.4144,-1.7561,17.4657,1553
54861,-12.8174,0.9278,5.0733,1559
54866,0.5543,6.3111,6.7648,1579
54871,13.635,4.853,12.2212,1557
54876,1.081,-6.268,18.8208,1544
54881,-11.7364,0.0587,7.8243,1555
54886,-7.1551,4.3443,3.9002,1541
54891,7.4891,8.4707,12.0644,1565
54896,12.7587,-4.8183,14.2958,1525
54901,-12.1793,-0.8464,14.5771,1567
54906,-11.9447,2.1177,4.458,1531
54911,2.308,7.2832,8.5305,1555
54916,15.4306,1.7609,11.9794,1542
54921,-4.9285,-4.5873,19.8707,1563
54926,-12.0991,0.3448,6.4344,1555
54931,-4.4819,4.8914,4.385,1549
54936,9.7348,7.9308,12.7707,1541
54941,8.1714,-5.4253,16.1106,1549
54946,-12.5085,-1.4114,11.6394,1553
54951,-8.9423,3.6428,4.3036,1555
54956,4.9416,8.2516,10.3382,1543
54961,15.87,-1.2222,12.1147,1556
54966,-9.4176,-2.5091,19.2781,1543
54971,-15.0954,0.668,5.4624,1553
54976,-0.7841,5.7856,5.0685,1551
54981,12.4343,6.2249,13.1992,1557
54986,3.3531,-6.1459,18.1576,1545
54991,-12.5013,-0.5219,8.5018,1561
54996,-6.9504,4.1934,3.9792,1555
55001,6.7038,8.8813,11.9806,1533
55006,14.9434,-4.3922,13.3848,1527
55011,-11.2204,-0.9325,16.2387,1560
55016,-13.8959,1.5311,4.7561,1531
55021,1.4748,6.7109,6.8378,1556
55026,14.8285,3.1161,12.8138,1545
55031,-4.3574,-4.7681,19.8551,1555
55036,-14.5328,-0.674,6.4715,1555
55041,-3.3303,5.0865,4.6124,1551
55046,9.566,8.5461,12.8257,1533
55051,11.1833,-6.4117,15.3588,1544
55056,-11.0516,-0.1053,12.3972,1557
55061,-11.6813,2.6983,4.306,1544
55066,3.7601,7.7859,8.758,1544
55071,14.8512,-0.5555,12.9682,1531
55076,-9.8509,-2.5833,18.7298,1551
55081,-13.544,0.2957,5.4121,1541
55086,-0.8619,5.776,5.8107,1545
55091,12.5504,6.4847,12.7372,1531
55096,4.8542,-6.8821,17.6967,1528
55101,-11.2863,0.1652,9.0908,1545
55106,-8.9687,3.8367,3.8942,1557
55111,6.2082,8.4288,11.0492,1548
55116,14.0049,-3.6164,13.6422,1531
55121,-11.971,-1.2354,16.2542,1549
55126,-12.6797,1.5383,4.7417,1547
55131,1.3958,6.6415,7.61,1553
55136,14.6836,3.4919,12.1183,1527
55141,-1.9752,-5.5677,19.6301,1532
55146,-12.0069,0.0946,7.0366,1548
55151,-5.7042,4.5921,3.9576,1547
55156,8.7412,8.5162,12.5815,1547
55161,10.7631,-5.4121,15.0883,1548
55166,-12.5911,-1.0511,13.0939,1555
55171,-10.2987,2.8383,4.3946,1544
55176,3.5039,7.75,9.5158,1564
55181,15.7802,0.3376,11.8226,1531
55186,-7.361,-3.5721,19.9449,1565
55191,-13.4746,0.3627,5.9604,1532
55196,-2.6109,5.4097,4.5514,1557
55201,10.8589,7.2341,13.1621,1543
55206,6.0178,-5.9616,17.0527,1551
55211,-12.9227,-1.1672,10.094,1527
55216,-7.8446,3.8247,4.2054,1564
55221,5.5186,8.6479,11.2755,1553
55226,15.7,-2.6887,12.2858,1555
55231,-10.4339,-1.8364,18.4425,1543
55236,-13.8157,0.9661,5.375,1559
55241,-0.1197,6.0645,5.5689,1547
55246,12.6282,4.9344,13.052,1557
55251,-0.0646,-5.1224,18.6556,1547
55256,-13.4027,-1.3324,7.9176,1563
55261,-5.1679,4.7058,4.3682,1543
55266,8.0014,8.9615,12.4044,1564
55271,13.8936,-5.0206,13.5703,1577
55276,-11.3437,-0.5854,15.3612,1567
55281,-14.0659,1.9261,4.5921,1532
55286,2.2194,6.857,7.355,1563
55291,14.9685,2.144,12.7072,1547
55296,-5.3319,-4.1096,19.7677,1563
55301,-14.9099,-0.6452,6.2704,1547
55306,-2.8563,5.1727,4.8111,1555
55311,10.3106,8.2708,12.9694,1547
55316,9.9539,-6.5553,15.7072,1531
55321,-10.6877,-0.0898,11.5317,1553
55326,-11.7328,2.8,4.2844,1549
55331,4.282,8.0385,9.3051,1547
55336,15.2391,-1.0894,12.6414,1543
55341,-10.6566,-1.9968,18.7095,1545
55346,-13.7367,0.1652,5.3319,1543
55351,-0.4226,5.8754,6.1711,1545
55356,12.8712,6.4057,12.3756,1545
55361,4.1875,-6.7792,18.1073,1531
55366,-11.5305,0.0335,8.6814,1549
55371,-8.4515,3.9732,3.7362,1547
55376,6.11,8.6263,11.394,1548
55381,14.8022,-3.7517,13.4159,1545
55386,-11.3102,-1.0678,16.4709,1545
55391,-14.2287,1.3048,4.6172,1545
55396,1.087,6.6667,7.3909,1546
55401,15.038,3.5686,12.2463,1519
55406,-2.2936,-5.6012,19.6875,1547
55411,-12.0704,0.0599,6.8055,1557
55416,-5.5342,4.64,4.063,1527
55421,8.7783,8.6491,12.6833,1559
55426,11.2587,-5.8586,15.0547,1531
55431,-13.0472,-0.6883,12.9622,1561
55436,-10.2639,2.7521,4.2928,1547
55441,3.2178,7.744,9.6223,1567
55446,16.259,0.3352,11.7029,1529
55451,-7.7847,-3.7481,20.1628,1561
55456,-14.0085,0.3017,5.8335,1546
55461,-2.3032,5.3917,4.6771,1557
55466,11.0935,7.3598,13.0161,1543
55471,6.5972,-6.3937,17.0132,1547
55476,-13.0053,-0.7446,10.003,1543
55481,-7.9344,3.5638,4.1707,1567
55486,5.4289,8.8645,11.3258,1553
55491,16.1501,-2.6803,12.044,1555
55496,-10.9595,-1.7609,18.591,1553
55501,-13.9127,0.8272,5.3211,1544
55506,-0.0132,6.1663,5.8466,1549
55511,13.0304,5.0266,12.6653,1555
55516,-0.3053,-5.2816,18.7681,1548
55521,-13.5572,-1.2761,7.8661,1563
55526,-5.0338,4.604,4.5274,1546
55531,8.0218,9.0597,12.4618,1556
55536,13.8947,-5.1392,13.4722,1519
55541,-11.6622,-0.4944,15.4187,1565
55546,-13.6661,1.7597,4.7393,1545
55551,2.4122,7.1287,7.5872,1563
55556,14.7471,1.8747,12.3361,1549
55561,-6.2572,-3.6512,19.6851,1555
55566,-14.4251,-0.7374,6.2189,1553
55571,-2.5977,5.3056,5.1332,1551
55576,10.4208,8.1259,12.7407,1545
55581,9.7612,-6.6667,15.6952,1554
55586,-11.0588,-0.0036,11.5053,1547
55591,-11.2551,2.8132,4.2725,1547
55596,4.5502,8.1702,9.5241,1553
55601,14.929,-1.4078,12.6581,1543
55606,-10.8242,-1.919,18.5431,1549
55611,-13.5021,0.3496,5.2936,1548
55616,-0.2203,6.0118,6.3698,1531
55621,13.1502,5.8957,12.2835,1547
55626,3.5243,-6.7816,18.1217,1531
55631,-11.8621,0.1233,8.4252,1547
55636,-8.0074,3.9648,3.7888,1548
55641,6.7098,8.7233,11.7124,1547
55646,14.3401,-4.2174,13.5452,1531
55651,-12.1003,-0.7817,16.0842,1544
55656,-13.1645,1.5071,4.5059,1545
55661,1.7226,7.009,8.0098,1553
55666,15.3911,2.8814,11.7699,1541
55671,-3.6428,-5.2062,20.0466,1543
55676,-12.5995,0.1305,6.5122,1543
55681,-4.6495,4.7369,4.2042,1541
55686,9.4763,8.588,12.8676,1555
55691,10.1837,-6.1052,15.4989,1519
55696,-13.2651,-0.7314,12.1769,1547
55701,-9.3529,3.0382,4.1647,1529
55706,4.0989,8.2301,10.2125,1553
55711,16.4565,-0.729,11.582,1527
55716,-9.3218,-3.0574,20.0167,1543
55721,-14.0815,0.6572,5.5079,1545
55726,-1.4138,5.6144,4.938,1545
55731,12.0357,6.6367,13.0197,1546
55736,3.8331,-6.2752,17.935,1524
55741,-13.5847,-0.9349,8.8693,1547
55746,-6.4691,4.2114,4.112,1555
55751,6.6116,9.0549,12.0057,1553
55756,15.4282,-4.1025,12.8509,1532
55761,-11.6502,-1.1588,17.2526,1557
55766,-13.9019,1.3551,4.859,1547
55771,1.1995,6.6248,6.5829,1549
55776,14.1976,3.4393,12.6246,1548
55781,-3.7266,-4.7118,19.4852,1545
55786,-14.0456,-0.9278,6.8067,1548
55791,-3.5913,5.0278,4.725,1553
55796,9.4619,8.6981,12.7348,1553
55801,11.91,-6.3087,14.7615,1531
55806,-11.5903,-0.0682,13.058,1547
55811,-12.5049,2.4505,4.2653,1531
55816,3.6344,7.6818,8.7688,1559
55821,15.6126,-0.0239,12.463,1531
55826,-9.2811,-2.6779,19.5187,1554
55831,-14.6274,-0.1628,5.4923,1543
55836,-1.063,5.6336,5.6814,1533
55841,12.2248,7.0318,12.6186,1525
55846,5.958,-6.918,17.3244,1555
55851,-11.2276,0.0862,9.4344,1532
55856,-9.3111,3.4572,3.9672,1563
55861,5.9017,8.7041,10.9355,1545
55866,14.6956,-3.316,13.1478,1557
55871,-12.4259,-1.2474,17.0683,1548
55876,-12.8521,1.2198,4.6998,1555
55881,1.1193,6.5362,7.3741,1543
55886,14.7088,4.0498,11.971,1559
55891,-1.1157,-6.013,19.5642,1546
55896,-12.3804,0.1796,7.0449,1573
55901,-5.7269,4.5023,3.9229,1549
55906,8.3522,8.7197,12.5803,1561
55911,11.9231,-5.545,14.8045,1528
55916,-12.9502,-0.6991,13.4841,1565
55921,-10.6602,2.6025,4.2282,1532
55926,3.2046,7.7057,9.3901,1577
55931,16.0974,0.6309,11.728,1543
55936,-7.3418,-3.9444,20.2142,1567
55941,-13.3357,0.4549,5.8945,1541
55946,-2.7497,5.2373,4.5645,1565
55951,10.9235,7.4843,13.0975,1547
55956,6.28,-6.195,16.86,1563
55961,-13.2459,-1.0858,10.2376,1541
55966,-7.671,3.8164,4.1647,1562
55971,5.685,8.7939,11.3832,1558
55976,15.852,-2.7497,12.1159,1545
55981,-10.9259,-1.7885,18.5622,1533
55986,-14.2192,0.9972,5.211,1559
55991,0.176,6.1723,5.7844,1545
55996,13.149,4.9309,12.7755,1562
56001,-0.4322,-5.3714,18.8711,1547
56006,-13.811,-1.1396,7.7201,1553
56011,-4.8997,4.6316,4.4281,1542
56016,8.1139,9.0321,12.5492,1558
56021,13.635,-5.3008,13.6469,1533
56026,-11.5161,-0.5291,15.0248,1555
56031,-13.1741,1.8926,4.6364,1529
56036,2.5809,7.2161,7.5573,1566
56041,14.4526,1.5419,12.469,1527
56046,-6.8618,-3.4991,19.5451,1555
56051,-14.0049,-0.6416,6.2453,1551
56056,-2.3008,5.3498,5.1415,1555
56061,10.805,7.9799,12.7647,1541
56066,9.1411,-6.7241,15.8843,1557
56071,-11.2719,0.0527,11.242,1549
56076,-11.0768,3.0299,4.1168,1549
56081,4.7836,8.1235,9.7552,1553
56086,15.1146,-1.6173,12.7539,1532
56091,-10.8685,-1.8196,18.4114,1549
56096,-13.8145,0.4764,5.1775,1559
56101,-0.0132,6.0286,6.4464,1555
56106,13.3118,5.6611,12.3218,1555
56111,2.8395,-6.5841,18.318,1527
56116,-11.6394,0.0694,8.3546,1555
56121,-7.7943,3.8642,3.875,1548
56126,7.0928,8.764,11.8286,1544
56131,13.5871,-4.3527,13.7379,1542
56136,-12.7503,-0.9218,15.5671,1553
56141,-11.9088,1.8028,4.5406,1547
56146,2.1404,7.0916,8.2827,1544
56151,15.2762,2.5199,11.5939,1542
56156,-4.2246,-4.9596,20.1089,1555
56161,-12.8497,0.0802,6.5745,1547
56166,-4.3227,4.7094,4.1851,1547
56171,9.6091,8.503,12.9634,1546
56176,9.5217,-5.9065,15.5252,1532
56181,-12.9443,-0.9122,12.0392,1547
56186,-9.3589,3.0011,4.2461,1541
56191,4.3515,8.4036,10.3789,1547
56196,16.0495,-0.9385,11.5831,1533
56201,-9.3122,-2.7342,19.7857,1549
56206,-13.7104,0.5004,5.6539,1545
56211,-1.3575,5.5893,5.0398,1541
56216,11.789,6.4871,12.9598,1543
56221,3.2202,-5.6659,17.7973,1545
56226,-13.3201,-1.336,9.0716,1555
56231,-6.4033,4.2174,4.2569,1553
56236,6.8103,9.0549,11.9806,1545
56241,15.0464,-3.9468,12.6522,1532
56246,-11.406,-1.1468,17.2131,1542
56251,-14.1078,1.3982,4.9081,1542
56256,1.3599,6.5505,6.4428,1547
56261,13.9474,3.4943,12.785,1559
56266,-3.4261,-4.6328,19.5139,1544
56271,-14.1809,-0.9505,6.8378,1564
56276,-3.6727,4.9943,4.5993,1543
56281,9.3577,8.7388,12.8664,1558
56286,11.825,-6.1519,14.6741,1543
56291,-11.2767,-0.2789,13.1502,1557
56296,-12.1817,2.4193,4.4269,1549
56301,3.6117,7.6614,8.4803,1563
56306,13.4949,3.7505,12.7934,1541
56311,-9.2859,-2.7497,19.1728,1575
56316,-13.6817,-1.081,7.0844,1554
56321,-1.0175,5.6108,5.636,1559
56326,9.2033,8.8382,12.7072,1529
56331,6.1806,-6.76,17.2478,1560
56336,-11.3868,-0.3639,13.6314,1543
56341,-9.59,3.5147,3.8762,1565
56346,3.3579,7.531,8.3965,1557
56351,14.692,-3.0023,13.0496,1544
56356,-8.0074,-3.1041,19.5403,1529
56361,-13.7966,1.0546,4.8614,1573
56366,-1.7035,5.6072,5.3953,1548
56371,11.6334,7.3466,12.7515,1567
56376,6.9803,-6.8031,16.7558,1549
56381,-10.7727,-0.0587,10.0305,1575
56386,-9.6247,3.2693,4.3347,1531
56391,5.7748,8.6036,10.2472,1555
56396,13.4698,-2.5187,13.149,1528
56401,-11.2851,-1.9908,17.3556,1564
56406,-12.5085,1.1061,5.1152,1549
56411,1.0511,6.4763,6.9899,1559
56416,13.6924,4.6196,11.9878,1525
56421,0.3388,-6.0669,19.1536,1561
56426,-12.5061,-0.2322,7.5836,1546
56431,-6.3853,4.4353,3.8247,1557
56436,7.6327,8.8214,12.3948,1545
56441,12.8832,-4.9644,14.1641,1549
56446,-11.1043,-0.9206,14.4622,1551
56451,-13.2363,1.8603,4.458,1557
56456,2.5534,7.7105,8.5605,1523
56461,15.3947,1.3479,11.6693,1545
56466,-6.1758,-4.1611,20.1987,1545
56471,-13.0257,-0.1544,6.2189,1554
56476,-3.3028,5.2194,4.6627,1555
56481,10.2939,8.0134,12.8281,1553
56486,8.0649,-6.2525,16.4266,1533
56491,-12.5636,-0.7338,10.7428,1555
56496,-8.7951,3.3806,4.1683,1549
56501,4.689,8.6634,10.8481,1543
56506,15.9909,-1.6855,11.8836,1543
56511,-9.8438,-2.5115,19.2997,1545
56516,-12.8928,0.8787,5.5282,1545
56521,-1.0846,5.8311,5.4289,1545
56526,11.1534,5.4061,12.7683,1544
56531,1.4521,-5.0135,18.1516,1588
56536,-12.4546,-1.4796,8.6084,1543
56541,-6.1076,4.6376,4.3251,1545
56546,7.7788,9.0537,12.2056,1543
56551,14.1066,-4.4017,13.2244,1543
56556,-11.0612,-0.9457,16.2435,1529
56561,-14.4334,1.6448,4.8088,1545
56566,1.8447,6.8726,6.7564,1555
56571,14.1785,2.8323,12.6833,1523
56576,-3.7206,-4.5657,19.6815,1533
56581,-14.4191,-0.6728,6.6702,1533
56586,-3.8068,5.1787,4.6244,1545
56591,9.5445,8.3845,12.8676,1548
56596,11.0097,-6.3051,15.2104,1487
56601,-10.7141,-0.1628,12.469,1533
56606,-11.6227,2.6839,4.5562,1564
56611,3.5961,7.78,8.4551,1553
56616,14.054,-0.4118,13.0747,1553
56621,-8.8047,-2.8347,18.6041,1548
56626,-13.1765,0.2442,5.7269,1541
56631,-1.3024,5.7293,5.5545,1551
56636,11.9794,6.669,12.7683,1563
56641,6.3135,-7.0042,17.0012,1553
56646,-11.2504,0.1365,9.8761,1564
56651,-9.8725,3.802,3.9289,1543
56656,5.6228,8.0254,10.6099,1591
56661,14.4933,-2.8216,13.3872,1541
56666,-10.665,-1.4748,17.1688,1561
56671,-13.9558,0.9948,4.968,1544
56676,0.486,6.45,6.9025,1559
56681,13.69,4.4508,12.1649,1543
56686,0.668,-6.0071,18.7909,1563
56691,-10.6865,-0.1185,7.8446,1544
56696,-7.2269,4.0318,4.3311,1543
56701,7.7249,8.7029,11.7076,1533
56706,11.0792,-3.9421,14.4131,1542
56711,-11.4239,-2.0243,14.7411,1542
56716,-11.2563,2.4912,4.8147,1555
56721,3.2382,7.4196,8.503,1547
56726,14.5843,1.8555,11.8142,1529
56731,-5.0135,-4.3084,20.0383,1549
56736,-14.8596,-0.1939,6.438,1565
56741,-3.3483,5.3139,4.1587,1594
56746,9.5385,8.023,13.0508,1554
56751,9.6067,-6.0765,16.004,1541
56756,-10.2711,-0.4872,11.4826,1556
56761,-11.5975,3.0574,4.3287,1547
56766,4.1623,8.1487,9.5589,1553
56771,15.4929,-1.5586,12.8198,1529
56776,-10.4076,-2.3176,18.5575,1563
56781,-14.364,0.4489,5.1846,1547
56786,-1.0391,5.934,6.019,1547
56791,12.6474,6.0813,12.633,1565
56796,4.5514,-7.2748,17.7638,1532
56801,-11.2492,0.243,8.9184,1549
56806,-8.0397,3.5829,4.4233,1533
56811,7.0174,8.8885,11.0085,1547
56816,12.3493,-3.9923,13.702,1529
56821,-12.4199,-1.7729,16.016,1557
56826,-11.8345,1.8483,4.8926,1545
56831,2.2709,7.1323,8.0565,1547
56836,14.0528,3.0095,11.6693,1532
56841,-1.7202,-5.3008,19.3511,1561
56846,-11.3713,-0.1125,7.2508,1554
56851,-5.9268,4.4544,4.2916,1517
56856,9.1997,8.345,12.1625,1533
56861,8.9651,-4.6902,15.2403,1557
56866,-12.3732,-1.8531,13.1837,1557
56871,-10.5141,2.9425,4.6316,1555
56876,4.3323,8.0601,9.7971,1553
56881,14.9051,0.2358,11.6083,1549
56886,-6.8007,-3.4668,19.4816,1545
56891,-12.3445,0.2825,6.3087,1544
56896,-3.1759,5.1008,4.6711,1549
56901,11.1139,7.0042,12.8664,1564
56906,4.4149,-5.302,17.018,1516
56911,-13.21,-1.6807,10.1718,1567
56916,-8.0864,4.1599,4.2629,1543
56921,6.1136,8.6993,11.4251,1557
56926,15.2391,-2.6061,12.2835,1523
56931,-10.1849,-1.9585,18.1133,1573
56936,-12.6761,1.6424,5.3463,1547
56941,-0.5076,6.0753,5.6072,1559
56946,13.3441,4.2126,13.3429,1528
56951,-1.0247,-5.1523,18.5958,1563
56956,-15.0104,-0.8308,7.5908,1545
56961,-5.5474,5.3786,4.2162,1559
56966,8.3366,8.1654,12.8174,1533
56971,13.5452,-5.3714,14.1258,1533
56976,-11.2599,-0.5064,14.8165,1545
56981,-11.9016,2.812,4.7465,1563
56986,2.2996,7.0557,7.1144,1553
56991,14.8417,0.5315,13.8253,1546
56996,-6.6248,-3.3435,18.8986,1547
57001,-16.3955,-0.0694,5.7748,1554
57006,-2.6001,5.7377,4.8806,1530
57011,11.2204,7.1108,13.4542,1559
57016,8.91,-6.7947,16.2602,1542
57021,-10.896,0.1221,10.9319,1559
57026,-10.0461,3.4584,4.5346,1526
57031,5.7245,8.0254,9.2692,1557
57036,14.1785,-2.7318,14.0959,1527
57041,-11.2384,-1.1839,16.9402,1563
57046,-14.0025,1.2222,4.5765,1544
57051,0.5794,6.207,6.7098,1553
57056,14.0983,5.0123,12.6438,1529
57061,1.7035,-6.2537,18.8436,1564
57066,-10.4579,0.2251,7.7273,1545
57071,-6.9899,3.9373,4.1372,1549
57076,8.8119,8.5724,11.3413,1527
57081,10.2208,-4.5538,15.609,1553
57086,-13.471,-1.9357,13.6877,1550
57091,-9.9252,2.8575,4.1707,1553
57096,3.5566,7.3394,9.0393,1553
57101,15.9071,1.5467,12.0955,1547
57106,-6.2273,-4.4628,20.5219,1547
57111,-12.5624,0.826,5.9268,1559
57116,-3.3866,4.3203,3.9696,1549
57121,9.019,7.853,13.0125,1565
57126,6.0561,-4.7692,17.1808,1555
57131,-11.2061,-1.8268,10.7153,1561
57136,-8.4803,3.8571,3.9516,1549
57141,6.4021,8.7448,10.829,1561
57146,15.2594,-2.5402,12.8724,1531
57151,-10.4866,-1.9345,18.2007,1563
57156,-15.1553,1.1325,4.9237,1545
57161,0.2143,5.7186,5.2708,1565
57166,13.5596,5.3439,13.5955,1548
57171,-0.5004,-5.5677,19.6181,1567
57176,-12.4367,-0.4274,7.288,1546
57181,-5.4684,4.4281,3.8068,1554
57186,8.0361,8.8358,12.5013,1529
57191,12.2727,-5.3498,15.0248,1555
57196,-10.7236,-0.6393,13.4806,1543
57201,-12.5169,2.3631,4.2006,1563
57206,2.3296,6.948,7.8973,1547
57211,15.4821,1.2354,13.1921,1531
57216,-7.0832,-3.8571,19.909,1543
57221,-13.9366,-0.0311,5.8574,1553
57226,-2.4732,5.1894,4.4879,1544
57231,11.1079,7.6471,13.2938,1561
57236,6.1399,-6.2644,17.2885,1533
57241,-10.7667,-0.5471,9.7588,1563
57246,-9.068,3.4931,3.9744,1549
57251,5.1308,8.2205,10.5321,1555
57256,14.7878,-2.4205,13.2723,1531
57261,-9.8414,-1.8196,17.583,1566
57266,-13.9103,0.844,5.3582,1541
57271,0.1927,6.1699,5.7221,1555
57276,13.1777,4.6448,13.2459,1545
57281,-0.7506,-5.1092,19.2578,1561
57286,-12.9646,-0.8212,7.4962,1543
57291,-5.7377,4.6675,4.0031,1547
57296,7.671,8.2492,12.3732,1541
57301,12.2906,-4.7166,14.7974,1544
57306,-9.9,-0.9301,14.1366,1542
57311,-12.1218,2.3379,5.0051,1557
57316,2.3966,6.8103,6.8007,1553
57321,13.9929,1.2534,13.8457,1547
57326,-6.3111,-3.0586,18.6664,1529
57331,-14.7698,-0.2334,6.1435,1561
57336,-2.8419,5.2732,4.6974,1545
57341,10.2532,7.5537,13.4219,1553
57346,9.4439,-6.0166,15.9394,1533
57351,-10.0449,-0.4453,11.6586,1559
57356,-11.0804,3.3878,4.5753,1548
57361,5.2277,7.2891,8.2803,1547
57366,13.5117,-1.2689,14.1928,1525
57371,-8.74,-1.7573,17.4525,1555
57376,-15.2559,0.6285,5.4971,1543
57381,-0.9493,5.7593,5.4851,1541
57386,12.4259,6.1112,13.4937,1547
57391,5.2876,-5.9975,17.4202,1543
57396,-9.7707,-0.2358,9.3649,1563
57401,-9.4822,4.1982,4.0749,1547
57406,7.7321,7.7213,9.9455,1560
57411,12.0859,-3.4943,15.1553,1533
57416,-9.8964,-0.9912,15.3265,1574
57421,-14.5927,1.6149,4.5885,1543
57426,0.3747,6.2189,6.4883,1565
57431,14.4586,3.8966,13.6865,1533
57436,0.0515,-5.3067,18.6221,1567
57441,-10.2268,0.0335,7.501,1557
57446,-6.7229,4.7716,4.0235,1567
57451,9.9383,7.8111,11.9997,1567
57456,9.2979,-5.0542,16.3117,1555
57461,-11.3389,-0.7278,12.2128,1548
57466,-11.1713,2.6863,3.9863,1557
57471,2.5367,6.7505,8.5437,1555
57476,15.7826,1.3084,13.1286,1547
57481,-5.2469,-3.8439,19.557,1544
57486,-11.3844,0.4022,6.3602,1555
57491,-3.4153,4.9141,4.0426,1531
57496,11.8262,7.4436,13.3082,1563
57501,4.5095,-5.3498,17.85,1533
57506,-14.862,-1.8459,9.5553,1565
57511,-7.7093,3.7565,3.7984,1528
57516,5.1332,8.1008,10.8026,1553
57521,15.7898,-1.5227,12.8425,1531
57526,-8.5365,-2.411,18.7382,1560
57531,-12.5001,1.1983,5.7928,1547
57536,-0.2526,5.3283,4.5095,1553
57541,13.0939,5.7317,13.7798,1547
57546,-1.9872,-4.0342,19.0842,1557
57551,-15.1768,-1.9501,7.7117,1545
57556,-4.7369,4.3574,3.9804,1533
57561,7.4543,9.013,12.5588,1546
57566,14.133,-4.0654,13.8074,1531
57571,-9.6067,-1.4868,15.8149,1545
57576,-12.8281,2.2613,5.0901,1545
57581,2.077,5.7401,5.4241,1558
57586,12.9766,3.3196,14.2275,1529
57591,-6.8019,-3.0598,18.9848,1557
57596,-12.5277,-0.9673,6.5134,1554
57601,-2.9916,4.6088,4.4317,1544
57606,9.6869,8.9723,13.4171,1548
57611,10.7655,-5.8634,15.354,1553
57616,-9.7336,-0.8452,12.4295,1550
57621,-11.4491,2.8718,4.5011,1565
57626,3.1987,6.517,7.2676,1542
57631,12.311,1.4162,13.7834,1541
57636,-7.039,-3.6823,18.6963,1543
57641,-12.7324,-0.2526,6.2549,1549
57646,-1.1732,5.4348,4.8123,1527
57651,11.3174,7.2113,13.3596,1559
57656,5.4384,-5.6946,17.2179,1547
57661,-10.088,-0.9876,9.6558,1565
57666,-9.7444,3.6595,3.7924,1553
57671,4.9931,7.5968,10.0832,1551
57676,13.7643,-1.7957,13.7583,1519
57681,-8.8262,-1.9513,17.1138,1566
57686,-14.7447,0.6931,5.4947,1541
57691,0.103,6.1914,5.7569,1555
57696,13.125,4.9297,13.2974,1533
57701,-0.0503,-4.9656,19.0004,1561
57706,-10.0963,-0.8248,7.8051,1549
57711,-7.3957,4.4077,3.9049,1553
57716,7.3969,8.3246,11.9327,1533
57721,11.4156,-3.9768,14.9231,1531
57726,-11.2336,-1.7406,14.0204,1555
57731,-11.3449,2.3798,4.4927,1547
57736,2.2314,6.6583,7.92,1548
57741,14.4957,2.5546,12.6115,1529
57746,-4.0091,-4.5657,19.8024,1549
57751,-11.5197,0.1413,6.6786,1575
57756,-4.3551,4.5825,3.954,1549
57761,9.1985,8.0385,12.9981,1547
57766,6.3147,-4.7106,16.2566,1546
57771,-11.7867,-2.2709,11.5185,1547
57776,-9.5505,3.5602,4.2796,1559
57781,4.7896,7.6686,9.736,1542
57786,14.9195,-0.3998,12.7479,1523
57791,-7.9655,-3.0131,19.2506,1555
57796,-12.6162,0.9912,5.7976,1555
57801,-1.634,5.0075,4.2162,1533
57806,11.0648,6.6451,13.8708,1549
57811,1.4054,-4.8231,17.747,1532
57816,-12.0799,-1.8148,8.9364,1565
57821,-7.1646,4.561,3.9816,1531
57826,7.2484,8.4851,11.7352,1555
57831,13.9642,-3.3279,13.702,1530
57836,-9.7564,-1.634,16.3835,1563
57841,-12.7276,2.0267,5.199,1545
57846,1.142,5.7078,5.3271,1565
57851,12.4965,4.0953,14.2168,1545
57856,-3.8188,-4.1587,18.7981,1561
57861,-12.4235,-1.069,7.0461,1544
57866,-3.948,5.0518,4.0965,1557
57871,9.6786,8.4432,13.2423,1525
57876,10.5548,-5.2708,15.3887,1557
57881,-9.6426,-0.9972,12.5456,1554
57886,-12.1661,2.9102,4.5645,1557
57891,3.395,6.6679,7.3406,1544
57896,13.4051,1.1468,13.9307,1545
57901,-7.5609,-3.4117,18.5742,1546
57906,-13.313,-0.0335,5.9209,1547
57911,-1.0463,5.4791,5.0051,1544
57916,11.3653,7.1299,13.3429,1561
57921,5.3463,-5.7652,17.4849,1543
57926,-9.7133,-0.9194,9.3889,1557
57931,-9.8904,3.7685,3.8583,1533
57936,5.3726,7.9152,10.1825,1563
57941,13.7379,-1.9992,13.7415,1527
57946,-9.2751,-1.8663,16.842,1527
57951,-14.3221,0.6057,5.1655,1547
57956,0.1987,6.2752,6.3578,1563
57961,13.1897,4.9452,12.8174,1571
57966,0.8487,-5.3032,19.1381,1549
57971,-9.8653,-0.8128,7.7321,1545
57976,-7.2939,4.1084,4.0247,1533
57981,7.3155,8.5748,11.5736,1531
57986,10.5082,-3.2118,14.7459,1528
57991,-10.829,-2.6624,14.6298,1557
57996,-11.4431,2.2338,4.8602,1546
58001,2.8982,6.9097,7.9775,1561
58006,14.0803,2.5079,12.2846,1543
58011,-4.0809,-4.2294,20.0155,1557
58016,-12.4199,-0.5183,6.7361,1559
58021,-4.2677,4.8028,3.7002,1544
58026,8.9016,8.2468,13.0544,1561
58031,8.6802,-4.7369,16.0771,1553
58036,-11.3497,-1.9381,11.5484,1549
58041,-9.6403,2.8706,4.2473,1565
58046,4.0761,7.8554,9.7731,1563
58051,15.2726,-0.1748,12.2535,1547
58056,-7.6914,-2.9999,19.6253,1554
58061,-12.5193,0.091,6.0166,1549
58066,-1.9465,5.0649,4.446,1546
58071,9.8641,6.9887,13.3333,1559
58076,2.32,-4.3993,17.7602,1555
58081,-11.0145,-2.4912,9.2392,1561
58086,-7.5022,4.0881,4.112,1509
58091,7.0318,9.0249,11.5784,1557
58096,13.9139,-2.7713,13.0053,1527
58101,-9.8258,-1.8651,17.0922,1573
58106,-14.0528,1.1492,5.533,1524
58111,1.0738,5.8718,5.4672,1577
58116,12.8353,4.3922,13.2339,1544
58121,-2.8036,-4.1168,19.2949,1563
58126,-14.2659,-1.7693,7.2281,1562
58131,-4.3407,4.8375,4.4113,1561
58136,8.9663,8.6945,12.9323,1547
58141,11.2671,-4.8961,14.7962,1548
58146,-9.5696,-1.3731,13.1765,1551
58151,-12.1183,2.5259,4.9213,1561
58156,4.1108,7.2137,7.4567,1545
58161,13.2902,0.7901,13.0915,1559
58166,-9.0776,-2.6109,18.8364,1533
58171,-13.1897,-0.3579,5.9364,1543
58176,-0.972,5.3965,5.3343,1547
58181,11.5233,7.2987,12.9167,1555
58186,5.9675,-5.7784,17.2598,1541
58191,-9.6307,-0.9613,9.6845,1563
58196,-9.669,3.5805,4.1899,1551
58201,6.7433,8.1678,9.906,1563
58206,12.0345,-2.2386,14.1856,1515
58211,-11.7017,-2.4409,16.4637,1567
58216,-12.3289,1.4126,4.9608,1533
58221,1.5646,6.2213,6.839,1561
58226,13.7571,4.3874,12.6522,1529
58231,-0.6237,-5.3127,19.2254,1559
58236,-10.7655,-0.3364,7.4208,1556
58241,-6.365,4.2964,3.8223,1561
58246,9.5457,8.4695,12.1649,1548
58251,8.4384,-4.5514,15.7742,1561
58256,-13.283,-2.3535,12.7288,1543
58261,-10.1263,3.0801,4.282,1555
58266,3.9983,7.2532,9.1758,1547
58271,15.3408,0.8272,12.4606,1553
58276,-6.3315,-3.553,19.7127,1547
58281,-11.9997,0.5004,6.2297,1549
58286,-2.8252,4.8435,4.0031,1551
58291,11.9566,7.4256,13.5045,1563
58296,2.2673,-4.6639,17.6165,1543
58301,-13.8888,-2.2709,9.4727,1559
58306,-7.1515,4.0917,3.9468,1529
58311,6.4069,8.5653,11.4012,1561
58316,15.1326,-2.4995,12.9909,1527
58321,-9.4296,-2.0063,17.8284,1575
58326,-12.961,1.6005,5.4743,1527
58331,0.322,5.5354,4.6962,1561
58336,13.2914,4.8135,14.042,1545
58341,-3.3651,-3.9109,18.8304,1555
58346,-14.801,-1.4976,7.3574,1555
58351,-4.3993,4.792,4.1719,1531
58356,9.0237,8.8406,13.0424,1549
58361,12.8054,-5.1392,14.443,1553
58366,-9.76,-1.0427,14.1988,1542
58371,-12.6605,2.6564,4.9416,1559
58376,3.2394,6.5469,6.2429,1553
58381,13.8074,1.4126,14.0911,1553
58386,-8.0002,-2.6288,18.7023,1541
58391,-15.178,-0.4465,6.0035,1548
58396,-1.8723,5.2756,4.95,1541
58401,11.2683,7.841,13.4111,1543
58406,8.9914,-6.2501,16.1345,1543
58411,-9.7875,-0.7554,11.2288,1561
58416,-11.1654,3.5913,4.3754,1553
58421,6.3135,7.6902,8.521,1555
58426,12.9658,-1.7909,14.1785,1531
58431,-9.6379,-1.7538,17.176,1571
58436,-15.0452,0.5279,5.3498,1575
58441,-0.237,6.0346,5.8646,1553
58446,13.6637,5.4923,13.2603,1545
58451,2.9999,-5.63,18.2079,1547
58456,-9.7863,-0.5782,8.5665,1547
58461,-8.3151,4.5406,4.0115,1541
58466,9.3877,8.3282,11.0756,1529
58471,10.1909,-4.1527,15.4055,1499
58476,-10.9403,-1.2989,13.6051,1545
58481,-12.5193,2.1261,4.628,1545
58486,2.211,6.5493,7.4316,1545
58491,15.1361,2.3535,13.2627,1544
58496,-3.1089,-4.3527,18.9561,1548
58501,-10.9499,-0.0072,6.9061,1517
58506,-4.8255,5.1487,3.9684,1547
58511,11.6119,7.4364,13.0005,1544
58516,5.5605,-5.302,17.0946,1529
58521,-13.4686,-1.579,10.2592,1542
58526,-9.4284,3.735,4.0869,1549
58531,4.853,7.3682,10.058,1503
58536,15.5743,-0.9565,13.1645,1528
58541,-7.6124,-2.6217,18.4964,1560
58546,-12.3732,1.0534,5.9939,1548
58551,-1.2438,5.4241,4.4017,1529
58556,13.4051,5.7377,13.8169,1573
58561,-0.1448,-4.798,18.5766,1554
58566,-16.5176,-1.8998,8.2145,1553
58571,-6.4117,4.6495,3.9923,1528
58576,7.6375,8.3833,12.2631,1541
58581,14.4263,-3.6512,13.6206,1514
58586,-9.3637,-1.506,16.2147,1560
58591,-12.8257,2.0925,5.4013,1533
58596,2.0291,6.0825,5.4564,1563
58601,13.9773,3.0406,13.86,1555
58606,-5.3379,-3.2166,19.0985,1563
58611,-16.848,-1.4365,6.9204,1554
58616,-3.6464,4.9524,4.4185,1555
58621,10.495,8.6754,13.3189,1548
58626,11.3258,-5.375,14.8716,1549
58631,-9.4798,-1.0594,13.1166,1545
58636,-12.1242,3.0718,4.9141,1561
58641,4.8854,7.0354,7.3729,1556
58646,13.4243,-0.1305,13.8912,1554
58651,-8.8011,-2.059,18.1469,1549
58656,-15.7239,-0.243,5.9245,1542
58661,-1.3755,5.3175,5.0242,1545
58666,12.8533,7.2808,13.4375,1563
58671,6.2513,-5.934,16.8516,1529
58676,-9.493,-0.8559,10.2197,1565
58681,-10.1215,3.8858,4.3922,1547
58686,7.8566,8.0816,9.6522,1559
58691,11.8621,-2.9113,14.4598,1531
58696,-10.307,-1.4114,15.6353,1563
58701,-14.1497,1.0942,5.0314,1531
58706,0.6476,6.1028,6.5577,1559
58711,14.3951,4.4568,13.0077,1531
58716,0.2478,-5.1332,18.6592,1567
58721,-10.1586,-0.5507,8.0014,1545
58726,-7.0713,4.6196,4.0127,1557
58731,10.6398,8.5066,11.9542,1549
58736,8.5545,-4.8471,15.7993,1526
58741,-11.0109,-1.1277,12.3289,1547
58746,-11.6334,2.6887,4.3946,1559
58751,2.8024,6.9312,8.5078,1553
58756,15.4522,1.0834,12.9969,1548
58761,-5.1811,-3.6955,19.0806,1553
58766,-11.5233,0.3962,6.5338,1451
58771,-3.5841,5.2529,4.0773,1545
58776,12.3457,7.0629,13.5667,1555
58781,3.9097,-5.5378,17.6441,1531
58786,-14.6346,-1.658,9.4332,1553
58791,-7.9883,4.2868,3.8654,1544
58796,5.3858,7.8003,11.0337,1559
58801,15.9178,-2.2087,13.2699,1542
58806,-8.9112,-2.1811,17.8428,1555
58811,-12.5791,1.7909,5.527,1545
58816,-0.4262,5.6922,4.6926,1558
58821,13.9785,4.8111,14.3269,1545
58826,-2.8287,-4.4209,18.6556,1560
58831,-14.7112,-1.1672,7.3658,1549
58836,-4.6687,4.8088,4.0199,1547
58841,8.2349,8.819,12.8617,1579
58846,14.0947,-5.0542,14.3485,1528
58851,-10.41,-0.7769,15.0607,1545
58856,-12.1877,2.8048,4.6747,1547
58861,1.9692,6.11,5.9197,1549
58866,11.9997,2.399,14.4167,1523
58871,-5.6539,-4.1731,18.6257,1557
58876,-11.8609,-0.1808,6.529,1553
58881,-2.8838,5.1667,4.4173,1547
58886,10.7883,8.3869,13.4961,1527
58891,9.0621,-6.4165,16.1872,1543
58896,-10.5548,-0.3687,11.2228,1546
58901,-11.6969,3.5135,3.705,1561
58906,3.3722,6.9013,8.7987,1553
58911,15.2714,-0.4944,13.7595,1546
58916,-8.2169,-2.8192,18.3707,1543
58921,-14.9039,0.4896,5.6132,1575
58926,-1.1971,5.7138,5.1368,1543
58931,12.803,6.3853,13.6146,1566
58936,2.8276,-6.1387,18.4174,1533
58941,-11.1402,-0.5806,8.3749,1567
58946,-7.6734,4.1276,3.705,1547
58951,6.0106,8.4216,11.3186,1567
58956,13.9809,-3.6583,14.2635,1545
58961,-9.8126,-1.5107,15.7682,1571
58966,-14.1964,1.5275,4.938,1543
58971,0.9828,6.4512,6.5314,1574
58976,14.4239,3.462,13.137,1531
58981,-3.3758,-4.8866,19.66,1561
58986,-13.1298,-0.7123,6.9168,1548
58991,-4.604,4.7872,4.1001,1565
58996,8.995,8.5054,12.8796,1592
59001,10.1083,-5.5498,15.6461,1563
59006,-9.748,-1.0499,12.22,1549
59011,-11.9207,2.6743,4.6639,1559
59016,3.7421,7.6794,8.6107,1553
59021,14.467,0.0012,12.7479,1533
59026,-8.0218,-2.6157,18.8124,1545
59031,-15.2559,-0.4633,6.0717,1546
59036,-1.3898,5.7293,5.4468,1549
59041,11.7819,6.693,12.6617,1563
59046,4.9632,-5.4085,17.4705,1531
59051,-9.2009,-1.2845,9.5517,1567
59056,-9.2823,3.4488,4.5765,1544
59061,7.1575,8.6682,10.3669,1561
59066,11.303,-2.4481,13.5572,1545
59071,-11.3796,-2.3343,16.1633,1567
59076,-12.1673,1.1456,5.4648,1542
59081,1.8459,6.3566,7.1766,1560
59086,13.6074,3.9971,11.8836,1528
59091,-1.2629,-4.6436,19.2769,1567
59096,-10.5979,-0.7865,7.7081,1543
59101,-6.1591,4.136,4.0606,1561
59106,9.9575,8.7005,12.1985,1545
59111,7.5537,-4.3419,15.4665,1550
59116,-13.6924,-2.6049,12.3768,1557
59121,-10.2951,2.7438,4.6986,1559
59126,4.6747,7.8051,9.5253,1545
59131,15.5072,0.1425,11.8106,1561
59136,-6.6966,-2.8802,19.5175,1543
59141,-11.7879,0.3663,6.4871,1480
59146,-2.7725,4.962,4.0761,1573
59151,12.5803,7.2173,13.3788,1560
59156,1.9609,-4.6795,17.8895,1544
59161,-16.0124,-2.2565,9.2452,1561
59166,-7.6746,4.3096,4.0677,1531
59171,7.1682,8.4288,11.6801,1566
59176,15.2906,-3.1436,13.0424,1528
59181,-9.4248,-1.7166,17.3735,1561
59186,-12.554,2.1129,5.4863,1529
59191,0.4405,5.7485,4.974,1560
59196,14.273,3.6404,14.3437,1545
59201,-3.5506,-4.2341,18.8723,1573
59206,-16.8396,-0.8236,7.1491,1549
59211,-5.1068,5.3151,3.9828,1556
59216,9.6678,7.8997,13.1681,1533
59221,11.6885,-5.4169,15.2032,1555
59226,-9.9611,-0.6381,13.4183,1543
59231,-11.7352,3.5123,4.7106,1566
59236,3.7781,6.4919,7.0282,1547
59241,14.303,-0.3328,15.026,1533
59246,-7.932,-2.3044,17.577,1553
59251,-16.1118,0.7482,5.606,1542
59256,-1.8124,5.4648,5.0087,1556
59261,12.864,6.5745,14.0983,1560
59266,6.62,-6.6427,17.0036,1551
59271,-10.3262,0.1987,9.8605,1563
59276,-9.3063,4.3012,4.0031,1549
59281,7.1706,7.3203,9.5038,1556
59286,12.536,-3.3866,15.5898,1533
59291,-12.3768,-1.3372,14.9697,1556
59296,-12.2439,2.5199,4.4077,1543
59301,1.0092,5.6431,6.9911,1573
59306,15.4175,4.2126,13.4554,1533
59311,-0.565,-5.8933,19.0674,1560
59316,-10.7847,0.6153,7.258,1553
59321,-6.1304,4.4592,3.7505,1557
59326,9.8809,7.8147,11.971,1533
59331,8.1259,-5.2505,16.7403,1551
59336,-14.5555,-2.1428,12.0835,1549
59341,-9.2189,3.7852,3.9385,1544
59346,3.4991,6.9671,9.4667,1533
59351,16.417,0.2682,12.9263,1529
59356,-7.2149,-3.9456,19.5115,1553
59361,-12.1769,1.3563,5.7688,1555
59366,-2.6695,4.8016,4.1743,1544
59371,11.8046,6.9767,13.5835,1547
59376,1.4605,-4.9392,18.0164,1545
59381,-13.4099,-1.9154,9.1411,1547
59386,-6.6858,4.4197,3.9516,1549
59391,6.3578,8.6323,11.6059,1555
59396,15.1002,-3.2896,13.2567,1525
59401,-10.2244,-1.8567,17.3508,1571
59406,-12.6522,1.9441,5.2014,1553
59411,0.3879,5.8239,5.2996,1563
59416,13.5141,4.2473,13.6673,1543
59421,-3.4213,-3.9828,18.9118,1566
59426,-15.4222,-1.2689,7.2736,1541
59431,-4.2916,5.0566,4.215,1559
59436,9.323,8.5305,12.9347,1545
59441,11.9507,-5.3331,14.7962,1549
59446,-10.1215,-1.0523,13.7906,1553
59451,-12.068,3.0263,4.7836,1561
59456,4.0821,7.1275,7.0713,1547
59461,13.5368,0.401,13.7403,1543
59466,-7.6531,-2.7737,18.6137,1545
59471,-15.3708,-0.4118,6.3255,1547
59476,-2.472,6.043,4.6304,1556
59481,11.8214,6.6092,13.2531,1567
59486,5.7233,-5.6288,17.0419,1533
59491,-9.833,-1.1935,10.3669,1561
59496,-10.4148,4.6064,4.276,1549
59501,7.6626,7.9476,9.7887,1566
59506,11.4646,-2.8,14.6872,1532
59511,-8.6694,-2.302,15.8652,1563
59516,-14.0576,1.7861,5.5713,1532
59521,1.0499,6.9121,5.6156,1561
59526,12.7204,3.0347,13.4758,1529
59531,-1.3455,-4.7908,17.9745,1573
59536,-11.2623,-0.6919,8.4276,1555
59541,-6.936,6.5469,3.9768,1562
59546,10.7176,6.5386,12.2272,1542
59551,7.762,-4.3898,15.9969,1557
59556,-8.9052,-2.3499,12.9059,1561
59561,-13.3309,4.0127,5.0961,1563
59566,6.4512,7.355,7.8123,1553
59571,12.0033,-0.2658,13.6446,1549
59576,-6.5446,-3.6536,17.2754,1555
59581,-12.5384,-0.1101,7.3658,1545
59586,-1.6436,6.8055,4.3467,1549
59591,13.3764,4.6711,12.9059,1565
59596,2.6647,-3.7218,17.0527,1548
59601,-9.9204,-2.5019,10.6901,1563
59606,-11.4778,5.0685,4.1408,1547
59611,9.5265,7.4328,10.6159,1555
59616,8.7041,-1.4688,13.8409,1547
59621,-7.7919,-2.982,15.6186,1551
59626,-13.9857,1.4617,6.8259,1531
59631,4.0282,6.954,5.9352,1554
59636,12.9766,2.1895,12.6761,1528
59641,-2.4936,-2.2446,18.1516,1558
59646,-11.7483,-2.0195,8.6347,1553
59651,-6.6116,5.2529,3.3818,1549
59656,10.1706,7.7835,13.0412,1541
59661,5.4995,-2.7043,15.0679,1533
59666,-7.6399,-3.2633,12.4487,1545
59671,-13.2375,3.5303,5.6132,1527
59676,7.8003,7.8925,8.8442,1549
59681,12.0189,-0.6764,12.6569,1541
59686,-6.7002,-1.8567,17.6596,1555
59691,-13.7164,-0.0658,7.2676,1553
59696,-1.0295,5.4013,4.1635,1545
59701,11.1654,5.9089,13.3405,1553
59706,0.0934,-3.3315,17.2143,1542
59711,-9.0668,-2.8,9.5708,1557
59716,-9.0297,4.78,4.5981,1542
59721,10.2627,8.6658,11.4994,1528
59726,10.5105,-3.31,13.8277,1542
59731,-8.2672,-1.8675,15.1529,1557
59736,-13.8122,2.15,5.8826,1547
59741,2.7617,5.9376,5.782,1545
59746,11.5041,2.8036,13.283,1529
59751,-5.4731,-3.6715,18.1492,1543
59756,-10.8254,-1.2701,7.847,1549
59761,-4.4556,6.019,4.4137,1529
59766,12.6522,7.0174,12.6713,1544
59771,6.6164,-4.8518,16.2674,1533
59776,-8.8669,-1.5826,11.9267,1553
59781,-12.287,4.3922,4.47,1547
59786,6.1746,6.3039,7.8578,1561
59791,10.4531,-0.34,14.6896,1527
59796,-9.1638,-3.5111,16.417,1560
59801,-12.2727,0.9206,6.5015,1548
59806,0.5279,6.7145,5.2529,1555
59811,14.6298,3.9516,13.4291,1541
59816,0.9637,-4.7585,18.1026,1555
59821,-10.4698,-0.8859,9.0357,1523
59826,-8.6203,5.4887,3.2561,1555
59831,9.0633,6.45,10.7392,1554
59836,6.9707,-3.0335,16.3704,1544
59841,-10.8804,-3.1687,13.2627,1541
59846,-12.2212,3.1999,5.3415,1553
59851,4.9668,7.3634,7.4651,1525
59856,15.36,-0.079,13.7427,1545
59861,-4.3598,-3.5231,18.3635,1548
59866,-12.4391,0.6931,7.0665,1548
59871,-3.9265,5.9879,2.9748,1545
59876,12.1625,5.3989,13.5057,1563
59881,1.7011,-4.1707,17.8631,1548
59886,-11.2875,-2.0363,10.1778,1565
59891,-10.1813,5.2385,4.2437,1547
59896,9.0465,7.3478,10.0425,1566
59901,13.5476,-3.2669,14.862,1541
59906,-7.5082,-1.8316,16.2818,1573
59911,-13.4458,2.3176,5.9221,1528
59916,0.6823,5.3917,3.9863,1565
59921,13.3345,3.6955,15.2367,1533
59926,-6.8139,-3.6117,17.6285,1571
59931,-10.1347,-1.3695,7.9847,1548
59936,-6.0166,6.1268,4.197,1546
59941,13.131,7.4879,12.3744,1547
59946,9.153,-5.0458,15.791,1560
59951,-8.7089,-1.324,13.3261,1532
59956,-13.3896,3.8415,4.8052,1575
59961,4.7932,5.0015,6.0693,1553
59966,11.1594,1.3707,15.2966,1523
59971,-9.9455,-3.3327,16.9665,1531
59976,-11.3342,-0.4441,6.9192,1545
59981,-1.148,6.7337,5.0063,1553
59986,14.8153,5.0829,12.9143,1557
59991,3.1448,-4.7968,17.6141,1548
59996,-9.6127,-1.3324,10.0149,1551
60001,-10.4363,5.017,3.644,1531
60006,8.8047,6.456,9.7348,1545
60011,8.9459,-2.0087,15.5515,1529
60016,-12.4343,-2.8407,14.467,1545
60021,-12.7348,1.6759,5.5115,1543
60026,3.7362,7.1682,6.9779,1553
60031,15.342,1.2737,12.8341,1544
60036,-3.4141,-3.3662,18.4808,1545
60041,-11.3138,-0.7374,7.7069,1559
60046,-5.7186,5.2912,3.4117,1544
60051,12.0644,6.857,13.0831,1547
60056,3.7326,-3.7397,16.8073,1551
60061,-11.6825,-2.4983,11.1941,1557
60066,-11.4311,3.9576,4.4496,1549
60071,8.4635,8.1774,9.9323,1549
60076,13.2531,-2.3391,13.3549,1533
60081,-7.3454,-1.7741,17.0347,1560
60086,-13.4985,0.9337,6.6032,1528
60091,-0.2263,5.4145,4.1096,1561
60096,13.532,4.561,14.437,1547
60101,-3.3363,-2.9269,17.8763,1567
60106,-10.9128,-2.1751,8.4168,1547
60111,-7.4831,5.387,3.948,1555
60116,12.4606,8.4851,12.5755,1545
60121,9.0848,-4.1827,14.9638,1549
60126,-8.26,-1.5275,13.6434,1548
60131,-14.0815,3.0574,5.3654,1555
60136,4.4161,5.6395,6.2632,1543
60141,12.7958,1.2067,14.3892,1555
60146,-9.3877,-2.4253,17.5315,1553
60151,-11.8154,-0.7171,6.7277,1547
60156,-2.1249,6.1304,4.6172,1549
60161,14.5544,6.2944,13.3441,1566
60166,3.4488,-4.6136,17.2945,1549
60171,-8.764,-1.312,9.7839,1563
60176,-10.8541,4.5095,3.9456,1533
60181,8.0625,7.112,9.6283,1560
60186,10.6326,-2.1979,15.2032,1529
60191,-11.9973,-2.1117,14.5448,1571
60196,-12.4391,1.6723,5.1667,1531
60201,2.4481,6.6116,6.7445,1557
60206,15.5408,2.7031,13.1466,1543
60211,-3.4345,-4.0019,19.3428,1563
60216,-10.7464,-0.2682,7.0581,1543
60221,-5.7102,4.7142,3.4848,1553
60226,11.3306,8.0349,12.9275,1541
60231,5.6036,-4.9081,17.2945,1551
60236,-13.1645,-2.0542,10.501,1555
60241,-9.9922,3.7936,3.8834,1547
60246,5.2553,7.6052,9.8378,1547
60251,15.4917,-1.2115,13.3644,1527
60256,-8.1882,-2.7976,18.3372,1545
60261,-12.7695,1.257,5.8299,1547
60266,-0.8715,5.4552,4.3718,1549
60271,13.9726,5.3546,14.0923,1551
60276,-1.4844,-4.7022,19.1165,1544
60281,-14.2287,-1.6281,7.7452,1547
60286,-6.8079,4.8758,3.5913,1533
60291,8.4934,8.3989,12.4056,1545
60296,11.7867,-4.1108,14.8189,1555
60301,-9.1363,-1.8172,14.2706,1546
60306,-12.8545,2.709,5.0925,1554
60311,3.626,6.6894,6.705,1556
60316,13.8995,1.1157,13.8157,1553
60321,-7.039,-2.8204,18.7239,1559
60326,-15.0978,-0.6345,6.4823,1553
60331,-2.9437,5.5174,4.2377,1531
60336,12.4929,7.4424,13.696,1557
60341,6.0753,-5.5749,16.8983,1530
60346,-9.2811,-1.2258,10.483,1555
60351,-10.6051,4.0438,4.1922,1546
60356,7.6591,7.8362,9.4942,1555
60361,11.7555,-2.7019,14.5783,1541
60366,-10.2532,-1.8483,15.5827,1555
60371,-13.5404,1.1325,5.5162,1523
60376,1.0738,6.1675,5.8395,1567
60381,14.8357,3.9887,13.3525,1547
60386,-1.4485,-4.4137,18.8903,1561
60391,-10.2053,-0.7985,7.8003,1547
60396,-6.7409,4.7118,3.6248,1555
60401,11.1306,8.2959,12.4475,1527
60406,6.7421,-4.47,16.1633,1564
60411,-12.7012,-2.1596,11.7938,1533
60416,-11.2516,2.9856,4.6328,1564
60421,5.5725,7.7764,8.9567,1545
60426,15.196,-0.6871,12.7779,1543
60431,-7.118,-2.4337,18.731,1532
60436,-12.0955,0.4274,6.5386,1554
60441,-2.2817,5.1667,3.9373,1531
60446,13.3788,6.4907,13.9091,1561
60451,-0.5997,-3.9995,18.0906,1553
60456,-13.2351,-2.3152,9.1842,1567
60461,-7.8614,4.4568,4.1228,1547
60466,10.1394,9.2177,11.9818,1547
60471,12.8533,-4.5023,13.7846,1545
60476,-9.2692,-1.172,15.7538,1564
60481,-13.2363,2.0399,5.6814,1546
60486,2.0147,5.7054,5.3379,1547
60491,14.1366,2.5977,14.2216,1543
60496,-6.693,-2.7222,18.6891,1567
60501,-14.4777,-1.1205,7.1694,1555
60506,-3.626,5.1727,4.2377,1532
60511,12.7862,8.26,13.362,1545
60516,7.525,-5.5545,15.9334,1555
60521,-9.1842,-1.0714,11.5161,1541
60526,-11.6442,3.547,4.7274,1549
60531,6.4691,7.3622,8.5234,1555
60536,12.4582,-1.6149,14.0827,1533
60541,-10.3681,-1.6412,16.4697,1545
60546,-13.9977,0.6369,5.6886,1543
60551,0.5411,5.8814,5.8562,1560
60556,14.8081,4.9177,12.9443,1529
60561,0.4058,-5.0434,18.4461,1567
60566,-9.9252,-0.8056,8.3222,1545
60571,-7.8111,4.3383,3.9851,1553
60576,10.6757,8.5497,11.7962,1541
60581,8.321,-4.5071,15.6198,1555
60586,-11.9914,-1.6053,12.5863,1553
60591,-11.7412,2.7222,4.5059,1560
60596,3.7936,7.0102,8.515,1557
60607,0.3053,-3.0311,0.1556,1557
60610,-10.1969,-0.6165,7.9667,1553
60615,-7.0413,4.6124,3.8762,1555
60620,11.3641,8.5724,12.2356,1544
60625,7.4136,-4.9165,15.9562,1559
60630,-12.056,-1.5766,11.9961,1547
60635,-11.3916,3.0299,4.4029,1564
60640,4.0893,7.1503,8.8466,1549
60645,15.6293,0.0599,12.7264,1547
60650,-6.7062,-3.1568,18.8424,1533
60655,-11.9806,0.5483,6.4859,1554
60660,-2.5486,5.3163,4.2784,1553
60665,13.7894,6.2441,13.544,1599
60670,0.7326,-4.9069,18.1516,1532
60675,-14.0252,-1.6652,8.7616,1561
60680,-8.3019,4.5274,3.7781,1580
60685,7.8925,8.4539,11.6514,1541
60690,13.3154,-3.5674,13.7284,1551
60695,-9.3865,-1.7071,16.0842,1551
60700,-13.1083,2.0913,5.5342,1533
60705,2.2158,6.377,5.94,1548
60710,14.1605,2.0973,13.4937,1533
60715,-5.4588,-3.2346,18.7921,1553
60720,-15.2547,-0.9852,7.088,1548
60725,-4.4592,5.3678,4.2246,1543
60730,11.6071,8.0062,13.3644,1547
60735,7.9799,-5.4839,15.7622,1549
60740,-9.5864,-1.154,11.9327,1556
60745,-11.6945,3.6763,4.6962,1553
60750,6.7564,7.7381,8.9735,1544
60755,12.6103,-2.0016,13.6972,1527
60760,-9.1135,-1.7095,16.8923,1554
60765,-14.3473,0.668,6.0214,1547
60770,-0.1532,6.0992,5.3882,1556
60775,14.1066,4.7573,13.2555,1544
60780,0.5722,-4.7465,18.1457,1565
60785,-9.8976,-0.929,8.5281,1551
60790,-8.2037,4.8578,3.9744,1555
60795,10.4722,8.2085,11.9135,1549
60800,8.5497,-4.2868,15.3241,1555
60805,-11.6167,-1.7885,12.8365,1545
60810,-12.2619,2.6205,4.8997,1566
60815,4.4317,7.5046,8.248,1544
60826,-15.2475,-3.0311,0.1556,1573
60829,-10.2053,-0.6871,8.1642,1546
60834,-7.5154,4.865,3.893,1563
60839,10.9188,8.1235,12.1997,1589
60844,7.4615,-4.5035,15.8065,1558
60849,-12.5528,-1.9908,12.2248,1553
60854,-11.6167,2.903,4.6699,1563
60859,5.3989,7.847,8.8585,1555
60864,15.178,-0.6093,12.5648,1544
60869,-6.6822,-2.569,18.6736,1543
60874,-12.074,0.4262,6.5781,1553
60879,-2.66,5.3941,3.978,1551
60884,13.2735,6.3363,13.8457,1559
60889,0.4597,-4.4029,18.0128,1547
60894,-13.3968,-2.1632,9.2392,1557
60899,-8.442,4.5861,4.0534,1563
60904,9.8988,9.1363,11.8992,1549
60909,12.7743,-4.2198,13.6853,1531
60914,-9.1231,-1.2534,15.9071,1559
60919,-13.2244,2.053,5.7042,1551
60924,1.998,5.9915,5.5186,1553
60929,13.9175,2.4253,13.939,1545
60934,-6.2094,-2.8754,18.5227,1543
60939,-14.0324,-1.1839,7.3741,1546
60944,-3.9133,5.4743,4.3036,1577
60949,12.785,8.0002,13.1789,1555
60954,7.5573,-5.5126,15.9394,1534
60959,-9.1506,-1.1372,11.7041,1561
60964,-11.886,3.5997,4.6855,1531
60969,6.523,7.3813,8.4443,1563
60974,12.1961,-1.4389,13.9869,1529
60979,-11.5891,-2.0602,16.3596,1575
60984,-13.0556,0.2538,5.8466,1531
60989,0.8583,6.6248,6.0094,1557
60994,15.038,4.2796,12.4618,1529
60999,0.1101,-4.5969,18.5934,1555
61004,-9.572,-1.136,8.4539,1555
61009,-8.3354,4.5274,3.8654,1561
61014,10.5345,8.6586,11.716,1545
61019,7.7405,-3.8834,15.4366,1557
61024,-13.1681,-2.5953,12.6809,1557
61029,-11.631,2.2458,4.9273,1555
61034,5.3103,8.3055,8.831,1560
61039,15.3863,-0.2634,12.0093,1541
61044,-6.3291,-2.557,19.0973,1547
61049,-11.7053,-0.2933,6.93,1565
61054,-3.5183,4.9919,3.9217,1545
61059,13.1418,7.2568,13.465,1533
61064,1.3036,-4.1695,17.7255,1541
61069,-13.8253,-2.6276,9.6271,1543
61074,-8.7317,3.9708,4.2138,1553
61079,9.1566,9.5134,11.734,1575
61084,13.38,-3.6248,12.9275,1542
61089,-9.1913,-1.4425,16.6624,1560
61094,-13.2758,1.3743,6.0142,1545
61099,1.5383,5.964,5.387,1549
61104,13.8433,3.1544,13.3213,1545
61109,-5.4157,-2.879,18.8041,1545
61114,-14.2251,-1.7549,7.6962,1548
61119,-4.7046,5.2589,4.2318,1549
61124,12.3182,8.4767,13.0149,1581
61129,8.2157,-5.3175,15.3456,1547
61134,-9.1961,-1.4114,12.451,1563
61139,-12.4163,3.2334,5.0482,1545
61144,6.1507,7.3993,8.3043,1543
61149,12.4678,-1.2067,13.5081,1523
61154,-9.6426,-1.889,17.0862,1551
61159,-13.8684,-0.0311,6.2656,1553
61164,-0.0934,6.1974,5.4767,1547
61169,14.3101,4.944,12.7324,1547
61174,0.9828,-4.7118,17.9254,1557
61179,-9.584,-1.3587,8.9088,1560
61184,-8.8969,4.4101,4.1934,1557
61189,10.1706,8.3977,11.6071,1547
61194,8.8346,-3.9648,14.9865,1555
61199,-11.4922,-1.8579,13.2818,1547
61204,-12.4331,2.1847,5.0566,1547
61209,4.2162,7.4675,8.0924,1553
61214,15.1457,0.5686,12.3972,1544
61219,-5.7545,-3.0047,18.846,1544
61224,-11.4563,-0.1688,6.9492,1543
61229,-3.9911,5.1308,4.0306,1541
61234,13.0197,7.118,13.4662,1564
61239,2.5498,-4.5921,17.3568,1582
61244,-12.9431,-1.901,9.6929,1567
61249,-9.2428,4.0929,4.0677,1533
61254,8.0481,8.6993,11.2587,1577
61259,13.6685,-3.1867,13.1897,1555
61264,-9.2033,-1.5239,16.7343,1573
61269,-13.046,1.5766,5.7604,1541
61274,1.1504,5.9005,5.3846,1571
61279,14.1521,3.3351,13.6481,1529
61284,-4.5693,-3.3363,18.8555,1573
61289,-15.2128,-1.3012,7.4771,1556
61294,-4.7022,5.0961,4.0426,1572
61299,11.5017,8.5545,13.2579,1541
61304,9.3793,-5.5402,15.2044,1549
61309,-9.7025,-1.075,12.6821,1555
61314,-12.135,3.3842,4.7321,1554
61319,5.8203,7.3741,8.0864,1549
61324,13.222,-1.2965,13.8624,1531
61329,-8.8526,-1.889,17.3987,1545
61334,-15.0057,0.559,6.0597,1549
61339,-0.844,5.7114,5.0889,1544
61344,14.133,5.6671,13.4375,1533
61349,2.0686,-5.3678,17.6836,1557
61354,-9.9252,-0.7949,8.9627,1550
61359,-8.7736,4.4987,4.1084,1553
61364,10.0317,8.4695,11.5029,1541
61369,9.4763,-4.385,15.1014,1548
61374,-10.89,-1.5455,13.5452,1545
61379,-12.6474,2.4038,4.8279,1555
61384,3.2142,6.7983,7.7788,1555
61389,15.3732,1.3372,12.6581,1543
61394,-5.0075,-3.644,18.9453,1546
61399,-11.5604,0.0012,6.8989,1563
61404,-4.1324,5.0925,4.1312,1533
61409,13.0496,7.2951,13.2567,1500
61414,3.1173,-5.1032,17.2442,1547
61419,-12.6282,-1.8004,9.8653,1561
61424,-9.6714,4.1096,4.1204,1551
61429,7.0677,8.2851,10.9343,1533
61434,13.8828,-2.7366,13.113,1531
61439,-8.9364,-1.901,16.9976,1578
61444,-12.9742,1.415,5.9137,1553
61449,0.9206,6.11,5.5534,1573
61454,14.1234,3.2657,13.2902,1545
61459,-3.8726,-3.5099,18.7502,1573
61464,-14.4346,-1.4198,7.7057,1543
61469,-5.7269,5.1655,4.0701,1553
61474,11.0002,8.4503,13.0843,1549
61479,9.0692,-4.9955,14.9913,1553
61484,-9.4691,-1.385,12.9131,1547
61489,-12.4762,3.1639,5.0649,1561
61494,5.782,7.5477,8.3677,1553
61499,13.1214,-1.1277,13.2256,1542
61504,-8.3845,-1.8651,17.6584,1547
61509,-14.6621,0.0443,6.3889,1545
61514,-1.1875,5.8622,5.1224,1532
61519,13.6194,5.5342,13.1705,1541
61524,2.0674,-5.0218,17.4741,1545
61529,-9.8809,-1.1337,9.2153,1547
61534,-9.1159,4.5909,4.2401,1556
61539,9.9252,8.3318,11.5628,1557
61544,9.6666,-4.1156,14.6429,1554
61549,-10.3034,-1.4808,13.9965,1545
61554,-13.1071,2.2182,5.2098,1556
61559,3.3351,6.8271,7.4089,1547
61564,14.8452,1.2965,12.712,1545
61569,-4.7525,-3.2166,18.5946,1549
61574,-11.4203,-0.2406,7.2221,1557
61579,-4.361,5.1775,4.1432,1549
61584,12.8114,7.1646,13.3154,1556
61589,3.5542,-4.853,16.7391,1556
61594,-12.9215,-1.8232,10.2256,1549
61599,-9.7456,4.0402,4.2868,1553
61604,7.6148,8.4898,10.8637,1565
61609,14.0492,-2.8443,13.0221,1531
61614,-9.0214,-1.5287,17.2323,1571
61619,-12.8784,1.4473,5.9161,1545
61624,0.4585,5.8035,5.1894,1575
61629,14.2587,3.6667,13.6673,1545
61634,-3.7445,-3.638,18.6484,1567
61639,-15.3049,-1.2977,7.7835,1547
61644,-5.4372,5.0278,4.0689,1553
61649,11.2156,8.5557,13.2088,1533
61654,10.1394,-5.5905,14.9039,1549
61659,-9.93,-0.8416,13.2794,1553
61664,-12.2631,3.1927,4.9009,1563
61669,5.2577,7.1419,7.7201,1544
61674,13.5847,-1.0151,13.7834,1574
61679,-8.5413,-1.913,17.668,1533
61684,-15.4701,0.4238,6.1327,1547
61689,-1.4102,5.606,5.0458,1543
61694,13.9187,6.0262,13.4626,1553
61699,2.8084,-5.5701,17.3029,1502
61704,-9.9539,-0.7159,9.2416,1549
61709,-9.104,4.4736,4.2641,1549
61714,9.7013,8.4264,11.224,1547
61719,10.1119,-4.2916,14.8728,1547
61724,-10.4734,-1.2617,13.9809,1547
61729,-12.9861,2.3236,4.9069,1553
61734,2.5881,6.6104,7.5513,1555
61739,15.4378,1.7693,12.639,1547
61744,-4.4855,-3.8223,18.8914,1553
61749,-11.3246,-0.0718,7.0593,1562
61754,-4.537,5.0542,4.2066,1548
61759,13.113,7.4867,13.1681,1561
61764,3.8523,-5.2577,17.0,1543
61769,-12.6905,-1.6316,10.1538,1555
61774,-9.6295,3.9947,4.1025,1547
61779,6.365,8.0792,10.7512,1554
61784,14.5017,-2.4301,12.9215,1541
61789,-8.8885,-1.9908,17.4011,1571
61794,-12.7922,1.4198,5.9352,1515
61799,0.316,6.0382,5.3271,1563
61804,14.4921,3.6152,13.4375,1531
61809,-3.1807,-3.9121,18.6377,1573
61814,-15.0571,-1.2151,7.7345,1545
61819,-5.9245,5.1475,3.9863,1557
61824,10.3717,8.4695,13.0556,1542
61829,10.2185,-5.1667,14.8249,1565
61834,-9.7875,-1.1636,13.4399,1547
61839,-12.3744,3.1125,5.0506,1566
61844,5.2194,7.428,7.9188,1533
61849,13.6841,-0.923,13.4099,1530
61854,-8.1726,-1.9932,17.8643,1548
61859,-15.5037,0.1927,6.3159,1555
61864,-1.8352,5.6719,5.0111,1533
61869,13.5512,6.1411,13.3656,1555
61874,3.3148,-5.624,17.1449,1545
61879,-10.0173,-0.7925,9.572,1557
61884,-9.3996,4.3383,4.385,1554
61889,9.5409,8.4719,11.06,1541
61894,10.4926,-4.221,14.5268,1544
61899,-10.1993,-1.1935,14.528,1555
61904,-13.3166,2.1452,5.1332,1545
61909,2.1871,6.5386,7.2018,1584
61914,15.1553,2.0446,12.7252,1545
61919,-4.1096,-3.8571,18.6879,1557
61924,-11.2168,-0.0934,7.264,1563
61929,-4.8339,5.1212,4.2006,1543
61934,12.7886,7.531,13.1585,1555
61939,4.4796,-5.2289,16.6529,1549
61944,-12.5157,-1.5538,10.5632,1560
61949,-10.0592,3.9804,4.1911,1553
61954,6.4212,7.9859,10.4567,1563
61959,14.5077,-2.3391,12.8772,1527
61964,-8.6778,-2.0135,17.5447,1566
61969,-12.7096,1.3599,6.019,1549
61974,-0.0024,5.9101,5.2601,1559
61979,14.4203,3.8702,13.4219,1545
61984,-2.8048,-4.0306,18.409,1565
61989,-15.105,-1.3479,8.0433,1557
61994,-6.1124,4.9476,4.0606,1549
61999,10.483,8.5258,12.8652,1544
62004,10.5082,-5.1092,14.5256,1555
62009,-9.7288,-1.1325,13.8229,1555
62014,-12.5061,2.9712,5.1296,1559
62019,4.9775,7.2209,7.6028,1555
62024,13.5009,-0.5686,13.3453,1543
62029,-7.9667,-2.0722,17.9362,1553
62034,-15.1457,0.018,6.6128,1549
62039,-1.9776,5.6096,4.8686,1544
62044,13.6625,6.3506,13.2723,1563
62049,3.7541,-5.6252,16.8145,1547
62054,-10.0137,-0.8009,10.076,1561
62059,-9.8294,4.3562,4.3826,1548
62064,9.3721,8.3318,10.8409,1549
62069,10.41,-4.0175,14.3245,1531
62074,-10.0042,-1.2857,14.8572,1555
62079,-13.6302,2.0746,5.4408,1541
62084,2.2996,6.5793,7.0473,1561
62089,14.71,1.9848,12.706,1527
62094,-3.6416,-3.8858,18.2761,1549
62099,-11.1893,-0.243,7.5429,1559
62104,-5.278,5.2301,4.3443,1543
62109,12.4726,7.3263,12.9574,1547
62114,4.8614,-5.1739,16.283,1542
62119,-11.5448,-1.4856,10.9547,1557
62124,-10.653,3.9061,4.4604,1546
62129,6.5972,7.9739,10.2376,1555
62134,13.9773,-2.2422,12.8497,1528
62139,-8.4898,-1.9656,17.4884,1561
62144,-12.6462,1.2079,6.1818,1532
62149,-0.1269,5.9795,5.3642,1555
62154,14.0073,3.808,13.1765,1550
62159,-2.2913,-3.9672,18.1205,1526
62164,-13.9055,-1.2378,8.2899,1549
62169,-6.5374,5.0613,4.1384,1560
62174,10.7176,8.4611,12.7467,1530
62179,10.1155,-5.0194,14.4227,1555
62184,-9.7576,-0.996,13.8864,1547
62189,-12.5133,3.0071,5.2182,1563
62194,4.7345,7.0988,7.6447,1551
62199,13.5332,-0.5698,13.2998,1555
62204,-7.8195,-2.1117,17.7901,1553
62209,-14.8859,0.17,6.6774,1559
62214,-1.8591,5.6276,4.9488,1556
62219,13.6912,6.2153,13.2579,1563
62224,3.7134,-5.6012,16.8612,1546
62229,-10.0808,-0.6967,9.9659,1563
62234,-9.669,4.391,4.3,1547
62239,9.1854,8.1666,10.7703,1541
62244,10.5572,-4.0043,14.4406,1547
62249,-10.5979,-1.3479,14.7399,1544
62254,-13.2579,2.2565,5.266,1542
62259,2.3403,6.3889,7.1431,1557
62264,15.372,2.0542,12.8617,1529
62269,-3.4141,-4.148,18.4844,1547
62274,-11.1737,0.0599,7.4448,1553
62279,-5.1846,5.0554,4.136,1546
62284,12.7048,7.4819,12.9622,1542
62289,4.5681,-5.1942,16.5439,1543
62294,-13.7786,-1.816,10.8541,1556
62299,-9.9395,3.9959,4.3036,1541
62304,6.456,7.9619,10.3022,1558
62309,15.0787,-2.2853,12.7132,1525
62314,-8.5437,-2.0351,17.7781,1566
62319,-12.4187,1.5012,6.0897,1541
62324,-0.5243,5.7066,4.9692,1587
62329,14.6681,4.2066,13.6062,1553
62334,-2.5151,-4.1982,18.2714,1555
62339,-16.0998,-1.1648,8.1499,1545
62344,-6.1052,4.9165,3.9696,1547
62349,10.2999,8.6778,12.7587,1541
62354,11.2731,-5.2912,14.2814,1557
62359,-10.07,-0.9266,14.3664,1544
62364,-12.3265,3.1352,5.1715,1565
62369,4.4029,7.0354,7.2006,1559
62374,14.0013,-0.4776,13.6493,1543
62379,-7.7835,-2.2936,17.7961,1549
62384,-15.591,0.3998,6.6128,1553
62389,-2.3798,5.5498,4.6591,1558
62394,13.7655,6.438,13.6027,1561
62399,4.3191,-5.9747,16.6038,1553
62404,-10.2496,-0.4262,10.3968,1568
62409,-9.8306,4.6124,4.4077,1547
62414,8.9842,7.8195,10.3633,1553
62419,10.6757,-3.9002,14.5819,1546
62424,-10.386,-1.4114,14.7363,1561
62429,-13.4686,2.3296,5.3774,1549
62434,2.0973,6.359,6.8031,1555
62439,15.2894,2.1883,13.0185,1529
62444,-3.1951,-4.2006,18.2247,1547
62449,-11.1318,0.0084,7.6602,1556
62454,-5.4959,5.2696,4.1252,1553
62459,12.5145,7.3706,12.9071,1549
62464,4.7118,-5.0817,16.4434,1541
62469,-13.0209,-1.7166,10.9619,1565
62474,-10.4315,3.9935,4.3862,1544
62479,6.6942,7.9224,10.1107,1545
62484,14.6501,-2.3715,12.9814,1532
62489,-8.3306,-2.0662,17.4633,1557
62494,-12.4678,1.3994,6.1627,1533
62499,-0.5974,5.7796,4.9416,1561
62504,14.388,4.1049,13.7571,1543
62509,-2.3475,-4.1013,18.1157,1565
62514,-15.2092,-1.1325,8.3737,1547
62519,-6.2249,4.9775,4.0354,1559
62524,10.7751,8.5892,12.7659,1531
62529,10.8481,-5.3654,14.3892,1559
62534,-10.0952,-0.8344,14.139,1558
62539,-12.3158,3.0442,5.1834,1581
62544,4.3862,6.9468,7.3203,1543
62549,13.9055,-0.4357,13.6206,1553
62554,-7.944,-2.1847,17.8129,1545
62559,-15.5264,0.2705,6.5517,1553
62564,-1.9034,5.4648,4.9392,1547
62569,13.7044,6.4691,13.2579,1560
62574,4.027,-5.9316,16.7546,1545
62579,-10.1813,-0.6033,10.1107,1572
62584,-9.651,4.2725,4.5107,1551
62589,9.2548,8.3246,10.6566,1543
62594,10.6913,-4.0546,14.3425,1543
62599,-10.4196,-1.2055,14.7184,1557
62604,-13.4973,2.1069,5.2289,1531
62609,2.0961,6.4332,7.2113,1560
62614,15.3037,2.2398,12.5456,1529
62619,-3.6966,-4.2294,18.518,1556
62624,-11.1761,-0.158,7.4974,1549
62629,-5.2481,5.0973,4.3287,1543
62634,12.9598,7.5836,12.8221,1529
62639,4.6627,-5.3882,16.4123,1542
62644,-11.3509,-1.2917,10.9212,1561
62649,-10.5261,3.8523,4.3742,1546
62654,6.1806,7.9152,10.2819,1548
62659,14.0611,-2.1991,12.9024,1532
62664,-8.5437,-2.1512,17.2921,1562
62669,-12.5983,1.2677,6.1902,1545
62674,-0.0551,6.1124,5.4145,1556
62679,14.2216,3.6129,13.2339,1553
62684,-2.2266,-4.0797,18.0427,1561
62689,-13.957,-1.0295,8.3486,1547
62694,-6.511,5.1727,4.1815,1553
62699,10.5872,8.1702,12.6689,1543
62704,9.9922,-5.2194,14.5232,1560
62709,-10.0341,-0.9517,13.7978,1545
62714,-12.3517,3.1627,5.2038,1563
62719,4.7669,7.1168,7.8027,1544
62724,13.617,-0.7649,13.3596,1543
62729,-7.7129,-2.0782,17.6153,1549
62734,-14.783,0.4058,6.6978,1545
62739,-1.8747,5.6719,4.9141,1542
62744,13.7224,6.0932,13.3237,1565
62749,3.3519,-5.6048,16.7618,1547
62754,-10.1742,-0.5662,10.0245,1561
62759,-9.5924,4.5933,4.3562,1541
62764,9.3721,8.0361,10.908,1545
62769,10.24,-4.1468,14.4897,1533
62774,-10.6901,-1.3479,14.5196,1554
62779,-13.2615,2.5019,5.3977,1545
62784,2.6205,6.5661,7.173,1557
62789,15.1685,1.494,12.8581,1533
62794,-3.7517,-4.0031,18.0762,1559
62799,-11.309,0.2227,7.4962,1553
62804,-5.1427,5.351,4.3539,1531
62809,12.8724,6.9133,13.0376,1541
62814,4.2964,-5.2445,16.4111,1553
62819,-12.226,-1.2989,10.8206,1563
