timestamp_ms,ax,ay,az,acs_adc
471887,-0.6357,-1.2163,20.0909,1485
471892,-5.0925,-0.8308,10.8038,1477
471897,2.4253,4.4472,4.8076,1479
471902,2.2362,3.1999,8.2456,1494
471907,-0.2418,-0.7697,19.9485,1480
471912,-4.8997,-1.1803,11.1498,1467
471917,2.2362,4.3682,5.1188,1479
471922,2.1093,3.3016,7.7692,1493
471927,0.0814,-0.2382,19.7007,1483
471932,-4.9189,-1.5419,11.5712,1469
471937,1.9561,4.3215,5.4552,1479
471942,1.9369,3.3854,7.3514,1471
471947,0.2813,0.4022,19.2602,1479
471952,-4.9177,-1.7777,12.0069,1479
471957,1.3539,4.1922,5.849,1483
471962,1.5419,3.4943,6.9001,1478
471967,0.5531,0.9254,18.6951,1479
471972,-4.7238,-1.9824,12.5516,1493
471977,0.6045,3.9935,6.1591,1485
471982,0.9361,3.4943,6.3973,1479
471987,0.7362,1.5574,17.9673,1487
471992,-4.4688,-2.2206,13.2519,1483
471997,-0.261,3.6703,6.5613,1478
472002,0.2083,3.4165,5.9125,1482
472007,0.674,2.053,17.115,1490
472012,-4.1707,-2.32,13.8959,1464
472017,-1.1624,3.3507,6.8833,1484
472022,-0.3747,3.292,5.4241,1518
472027,0.7554,2.5438,16.2913,1489
472032,-3.7912,-2.3786,14.7207,1467
472037,-2.1512,2.9461,7.2724,1479
472042,-0.8116,3.2813,4.956,1480
472047,0.7937,2.7653,15.2463,1469
472052,-3.5997,-2.3727,15.5467,1471
472057,-3.0191,2.5606,7.6375,1492
472062,-1.0032,3.371,4.5969,1477
472067,0.7518,2.982,14.2299,1469
472072,-3.3124,-2.2889,16.4254,1483
472077,-3.7757,2.0686,8.0122,1484
472082,-0.8787,3.4105,4.3108,1477
472087,0.7793,3.1161,13.2435,1465
472092,-2.9928,-2.223,17.1832,1483
472097,-4.379,1.6161,8.406,1468
472102,-0.4537,3.5662,4.1396,1471
472107,0.9553,3.2968,12.4367,1483
472112,-2.5558,-2.1452,17.9314,1469
472117,-4.7669,1.1313,8.7173,1479
472122,0.2251,3.7218,4.0282,1479
472127,1.336,3.3722,11.5412,1486
472132,-2.1225,-2.0279,18.5359,1464
472137,-4.9979,0.6704,9.001,1479
472142,1.0056,3.8858,4.0462,1492
472147,1.8591,3.3938,10.8972,1478
472152,-1.6664,-1.9261,19.1033,1466
472157,-4.968,0.1448,9.3817,1487
472162,1.4832,3.9696,4.1515,1484
472167,2.1368,3.4141,10.222,1477
472172,-1.2222,-1.7238,19.6145,1467
472177,-5.1451,-0.3268,9.9084,1493
472182,1.8196,4.0725,4.3634,1469
472187,2.4337,3.4357,9.5277,1480
472192,-0.8775,-1.3348,19.8216,1471
472197,-5.2888,-0.7841,10.2711,1482
472202,2.0063,4.2006,4.5813,1477
472207,2.6193,3.5159,8.9663,1481
472212,-0.4357,-0.8236,19.9186,1482
472217,-5.2397,-1.1384,10.8326,1469
472222,2.0267,4.2282,4.8806,1478
472227,2.5151,3.4477,8.3282,1496
472232,-0.0359,-0.2933,19.7701,1481
472237,-5.0973,-1.4353,11.2288,1469
472242,1.8136,4.3096,5.2241,1485
472247,2.2817,3.4608,7.7177,1481
472252,0.3029,0.2753,19.4421,1471
472257,-4.9811,-1.6735,11.6801,1471
472262,1.2737,4.2485,5.5414,1485
472267,1.804,3.4249,7.1347,1471
472272,0.5938,0.8009,18.9226,1479
472277,-4.8111,-1.9082,12.3613,1493
472282,0.5459,4.142,5.9053,1487
472287,1.1456,3.3698,6.6272,1468
472292,0.808,1.2318,18.3468,1481
472297,-4.6831,-2.0674,12.9167,1481
472302,-0.2322,3.8954,6.201,1481
472307,0.4489,3.377,6.092,1471
472312,0.8727,1.6029,17.6082,1493
472317,-4.5047,-2.2386,13.6625,1480
472322,-1.1253,3.6332,6.6272,1482
472327,-0.2047,3.3698,5.5545,1471
472332,0.8847,1.9992,16.8839,1487
472337,-4.2772,-2.2889,14.2826,1471
472342,-1.9788,3.3184,6.9587,1482
472347,-0.6883,3.3782,5.1296,1487
472352,0.9098,2.3559,15.9526,1471
472357,-3.9983,-2.326,15.1242,1471
472362,-2.8132,2.9616,7.3358,1493
472367,-0.9541,3.4022,4.7549,1471
472372,0.9493,2.6851,14.9482,1469
472377,-3.6524,-2.2936,15.9119,1477
472382,-3.4309,2.4684,7.6471,1489
472387,-0.9098,3.5314,4.3826,1463
472392,0.9924,2.8862,14.0133,1471
472397,-3.2813,-2.296,16.7379,1487
472402,-4.0079,1.9405,7.9906,1485
472407,-0.6141,3.5662,4.1228,1469
472412,1.1492,3.0394,13.1382,1471
472417,-2.9197,-2.3583,17.4537,1485
472422,-4.4819,1.3767,8.4324,1471
472427,-0.1712,3.6559,4.0749,1471
472432,1.3635,3.146,12.3385,1488
472437,-2.4624,-2.3176,18.1014,1467
472442,-4.8698,0.8583,8.843,1471
472447,0.504,3.7278,4.0043,1494
472452,1.5886,3.2968,11.376,1482
472457,-2.0255,-2.144,18.8328,1469
472462,-5.0613,0.4226,9.3218,1469
472467,1.0283,3.8726,4.1156,1486
472472,1.9752,3.3938,10.6267,1477
472477,-1.6328,-1.8124,19.3583,1469
472482,-5.2313,-0.0862,9.645,1495
472487,1.5395,4.0378,4.2162,1483
472492,2.3296,3.468,9.9168,1479
472497,-1.1025,-1.4617,19.7845,1477
472502,-5.2253,-0.4166,10.0987,1487
472507,1.9178,4.1887,4.4257,1471
472512,2.5869,3.4919,9.3075,1477
472517,-0.6081,-1.1205,19.8048,1486
472522,-5.1056,-0.8332,10.4782,1479
472527,2.0255,4.2856,4.6663,1477
472532,2.6121,3.5326,8.7364,1487
472537,-0.1401,-0.7853,19.8372,1483
472542,-4.8949,-1.1444,10.9834,1469
472547,1.9345,4.3299,4.9476,1479
472552,2.4864,3.4776,8.1187,1491
472557,0.2191,-0.3555,19.6791,1469
472562,-4.8554,-1.5048,11.382,1469
472567,1.6173,4.3263,5.3427,1482
472572,2.1213,3.4261,7.6375,1480
472577,0.4944,0.2334,19.4098,1481
472582,-4.7932,-1.6927,11.9459,1480
472587,1.0187,4.2186,5.6096,1485
472592,1.4796,3.3579,7.0413,1471
472597,0.6309,0.7829,18.81,1481
472602,-4.6651,-1.8854,12.5253,1493
472607,0.3376,4.0881,5.9735,1485
472612,0.8248,3.371,6.5745,1497
472617,0.7099,1.227,18.2283,1485
472622,-4.361,-2.0602,13.2052,1483
472627,-0.3771,3.8894,6.3135,1479
472632,0.2406,3.3471,5.9771,1471
472637,0.7242,1.7945,17.3639,1495
472642,-4.1683,-2.2015,13.8756,1471
472647,-1.1791,3.571,6.6631,1479
472652,-0.3771,3.2022,5.4995,1471
472657,0.7398,2.1416,16.508,1484
472662,-3.8846,-2.2769,14.534,1469
472667,-1.8663,3.2453,7.0713,1479
472672,-0.8224,3.2848,5.0194,1484
472677,0.7003,2.4074,15.6665,1470
472682,-3.5674,-2.3511,15.3241,1469
472687,-2.6552,2.8742,7.4508,1494
472692,-1.1277,3.2238,4.6567,1471
472697,0.6153,2.6564,14.6453,1476
472702,-3.2932,-2.3403,16.0627,1479
472707,-3.3591,2.4325,7.8937,1483
472712,-1.1109,3.3399,4.3443,1467
472717,0.6189,2.8156,13.6912,1481
472722,-3.0059,-2.2398,16.9402,1492
472727,-4.0199,1.9453,8.2588,1479
472732,-0.8368,3.565,4.1372,1468
472737,0.8715,2.9712,12.6641,1479
472742,-2.7426,-2.1883,17.7458,1481
472747,-4.5837,1.4198,8.6778,1479
472752,-0.2933,3.705,4.0007,1477
472757,1.1672,3.0742,11.8214,1493
472762,-2.2996,-2.0255,18.4928,1469
472767,-4.9752,0.9577,9.0022,1471
472772,0.401,3.8164,3.9157,1491
472777,1.6113,3.1137,11.0696,1480
472782,-1.9213,-1.8747,18.9896,1467
472787,-5.1811,0.4585,9.3027,1477
472792,1.1025,4.0055,3.96,1485
472797,1.8603,3.1795,10.3334,1479
472802,-1.3779,-1.7873,19.5175,1471
472807,-5.126,0.0503,9.6702,1492
472812,1.5778,4.1144,4.2078,1471
472817,1.9501,3.207,9.7348,1477
472822,-0.9828,-1.6197,19.7378,1477
472827,-5.1356,-0.322,10.1143,1483
472832,1.834,4.2868,4.4472,1469
472837,2.138,3.3004,9.2763,1477
472842,-0.6177,-1.3767,19.8539,1493
472847,-5.12,-0.7147,10.4375,1467
472852,1.9908,4.3993,4.628,1477
472857,2.1811,3.3363,8.7472,1491
472862,-0.231,-0.9373,19.8886,1484
472867,-4.9883,-0.9553,10.9176,1469
472872,2.0279,4.4592,4.9201,1479
472877,2.2936,3.2513,8.1989,1491
472882,0.1413,-0.486,19.7522,1477
472887,-4.8614,-1.1803,11.3677,1480
472892,1.6664,4.5035,5.2086,1482
472897,2.0566,3.2334,7.58,1481
472902,0.4537,-0.0395,19.6085,1478
472907,-4.6017,-1.3384,11.8549,1477
472912,1.1109,4.4652,5.4791,1481
472917,1.4461,3.1544,6.9396,1477
472922,0.5938,0.3651,19.2051,1483
472927,-4.2916,-1.6161,12.3924,1485
472932,0.4561,4.3239,5.8933,1479
472937,0.8523,3.0682,6.4488,1469
472942,0.6452,0.735,18.5395,1487
472947,-4.1372,-1.7957,13.0197,1481
472952,-0.2837,4.063,6.2249,1479
472957,0.1329,3.0849,5.9209,1471
472962,0.5555,1.1851,17.6979,1494
472967,-4.0019,-1.9273,13.7116,1467
472972,-1.0463,3.863,6.62,1483
472977,-0.4812,3.1627,5.5438,1485
472982,0.4334,1.5574,16.9438,1481
472987,-3.8403,-1.9716,14.3353,1471
472992,-1.7645,3.5027,6.9528,1477
472997,-0.8847,3.2693,5.0434,1483
473002,0.334,1.9752,16.0555,1477
473007,-3.5147,-2.0494,15.0511,1477
473012,-2.4026,3.0993,7.4065,1497
473017,-1.0487,3.371,4.6831,1469
473022,0.2753,2.3619,15.0787,1469
473027,-3.2082,-2.1129,15.7395,1481
473032,-3.0083,2.6121,7.7261,1483
473037,-0.9936,3.541,4.4329,1469
473042,0.2502,2.5833,14.1773,1483
473047,-2.8683,-2.2577,16.4613,1491
473052,-3.4596,2.0423,8.0792,1477
473057,-0.6692,3.6368,4.215,1471
473062,0.2586,2.8766,13.2663,1481
473067,-2.5175,-2.3858,17.1185,1479
473072,-4.0151,1.5,8.4647,1469
473077,-0.2789,3.8738,4.1659,1483
473082,0.401,3.0394,12.4786,1487
473087,-2.162,-2.3954,17.7746,1459
473092,-4.5298,1.0056,8.8286,1477
473097,0.2945,4.0139,4.1575,1491
473102,0.7135,3.2358,11.6693,1479
473107,-1.719,-2.3367,18.4401,1467
473112,-4.7884,0.5997,9.1973,1481
473117,0.9361,4.2102,4.2318,1483
473122,1.1696,3.389,10.9678,1479
473127,-1.2127,-2.2051,18.9034,1467
473132,-4.8279,0.146,9.5768,1495
473137,1.5203,4.397,4.2976,1469
473142,1.5323,3.5243,10.2615,1480
473147,-0.7195,-1.9704,19.3296,1477
473152,-4.786,-0.3699,9.9575,1479
473157,1.8711,4.4293,4.5035,1477
473162,1.895,3.65,9.4894,1477
473167,-0.2358,-1.5383,19.5115,1484
473172,-4.713,-0.7889,10.3789,1469
473177,2.0494,4.4113,4.7417,1470
473182,2.1512,3.632,8.8298,1497
473187,0.1472,-0.9912,19.6001,1483
473192,-4.5753,-1.2103,10.9798,1463
473197,1.9441,4.3742,5.0159,1483
473202,2.1153,3.5159,8.2025,1484
473207,0.3938,-0.4417,19.4517,1471
473212,-4.4975,-1.4844,11.546,1479
473217,1.5263,4.3395,5.4109,1485
473222,1.67,3.4081,7.5848,1471
473227,0.559,0.1604,19.1692,1471
473232,-4.3132,-1.6759,12.1446,1493
473237,0.8918,4.2353,5.7389,1492
473242,1.1408,3.3567,6.9073,1471
473247,0.6081,0.7949,18.506,1479
473252,-4.1264,-1.883,12.8868,1485
473257,0.255,4.0737,6.1567,1479
473262,0.5267,3.3243,6.3554,1467
473267,0.6189,1.3431,17.7997,1495
473272,-3.9145,-1.9944,13.4913,1479
473277,-0.6081,3.8427,6.4979,1480
473282,-0.1389,3.2872,5.7245,1477
473287,0.5183,1.7909,16.9282,1487
473292,-3.632,-2.1189,14.2922,1469
473297,-1.3563,3.5362,6.9097,1479
473302,-0.7147,3.2848,5.2577,1486
473307,0.4417,2.132,15.9825,1461
473312,-3.3734,-2.2613,14.9578,1467
473317,-2.0949,3.0885,7.3358,1493
473322,-1.081,3.2717,4.8147,1479
473327,0.3029,2.4576,15.0535,1467
473332,-3.1436,-2.3559,15.7383,1471
473337,-2.8431,2.642,7.7596,1493
473342,-1.2043,3.3579,4.4676,1471
473347,0.1688,2.7258,14.0803,1471
473352,-2.8132,-2.3906,16.4793,1492
473357,-3.4046,2.247,8.1846,1483
473362,-1.1061,3.4931,4.2437,1471
473367,0.0718,2.9461,13.2052,1480
473372,-2.4876,-2.3523,17.2227,1482
473377,-3.8547,1.7214,8.4815,1479
473382,-0.6129,3.6524,4.0941,1479
473387,0.1173,3.0981,12.3254,1489
473392,-2.1416,-2.2901,17.8332,1465
473397,-4.1982,1.2402,8.8873,1471
473402,-0.1077,3.8391,4.045,1491
473407,0.431,3.2453,11.6191,1485
473412,-1.6735,-2.2194,18.4473,1466
473417,-4.4173,0.729,9.2404,1479
473422,0.5339,4.0127,3.9959,1491
473427,0.8176,3.2813,10.8206,1481
473432,-1.1756,-2.0411,18.9453,1464
473437,-4.4915,0.3208,9.7109,1491
473442,1.0798,4.1791,4.0977,1484
473447,1.1444,3.2729,10.0904,1479
473452,-0.7111,-1.9046,19.2841,1471
473457,-4.4843,-0.0168,10.1239,1482
473462,1.4796,4.3515,4.2593,1477
473467,1.3862,3.2166,9.4655,1483
473472,-0.3699,-1.6855,19.6372,1485
473477,-4.4329,-0.3328,10.4926,1470
473482,1.6807,4.4963,4.4796,1471
473487,1.6376,3.2166,8.8969,1493
473492,-0.1425,-1.3204,19.7414,1477
473497,-4.4029,-0.6776,10.9247,1465
473502,1.7382,4.6184,4.7621,1482
473507,1.7178,3.1795,8.357,1491
473512,0.0958,-0.8966,19.7737,1469
473517,-4.3634,-0.8679,11.3928,1467
473522,1.5526,4.7345,5.017,1483
473527,1.6101,3.2142,7.7859,1479
473532,0.3711,-0.6033,19.5534,1471
473537,-4.1264,-1.0546,11.8226,1480
473542,1.1492,4.6998,5.3379,1481
473547,1.1935,3.1747,7.2006,1468
473552,0.5231,-0.2286,19.2183,1481
473557,-3.9289,-1.2917,12.3792,1491
473562,0.5567,4.6029,5.7042,1484
473567,0.6931,3.0957,6.6068,1471
473572,0.5698,0.1724,18.6784,1486
473577,-3.8223,-1.5455,12.9371,1484
473582,-0.1305,4.3993,6.1723,1479
473587,0.0551,3.1591,6.0693,1468
473592,0.5351,0.6213,17.9924,1493
473597,-3.723,-1.7238,13.4949,1468
473602,-0.8583,4.0929,6.5098,1483
473607,-0.5614,3.1532,5.551,1480
473612,0.4142,1.0247,17.1748,1483
473617,-3.5566,-1.8747,14.2503,1471
473622,-1.5754,3.814,6.8103,1470
473627,-1.0295,3.2489,5.1092,1486
473632,0.3136,1.3024,16.3129,1471
473637,-3.3746,-1.8914,14.9338,1467
473642,-2.3008,3.3938,7.2652,1492
473647,-1.2773,3.3998,4.6483,1469
473652,0.1796,1.6891,15.433,1467
473657,-3.0777,-1.9465,15.7096,1483
473662,-2.8946,2.9676,7.6734,1485
473667,-1.2498,3.5267,4.2617,1479
473672,0.1676,1.9597,14.4526,1468
473677,-2.6935,-1.9848,16.3644,1485
473682,-3.4189,2.4864,8.0625,1477
473687,-1.0463,3.7038,4.1025,1471
473692,0.1987,2.235,13.4315,1485
473697,-2.3044,-2.1332,17.1976,1479
473702,-3.8571,1.9716,8.5281,1471
473707,-0.5746,3.8523,3.9181,1480
473712,0.3723,2.4529,12.3972,1490
473717,-1.9381,-2.1679,17.935,1464
473722,-4.2844,1.4377,8.9208,1479
473727,0.0036,4.0426,3.9097,1493
473732,0.7554,2.6336,11.5484,1479
473737,-1.579,-2.1261,18.6939,1467
473742,-4.4712,0.984,9.3218,1484
473747,0.7003,4.2294,3.9193,1483
473752,1.2067,2.7761,10.6865,1481
473757,-1.2031,-2.0291,19.2434,1465
473762,-4.6017,0.5674,9.7444,1491
473767,1.251,4.3934,4.0402,1469
473772,1.6616,2.9365,10.0126,1471
473777,-0.7961,-1.8052,19.6348,1478
473782,-4.6424,0.1377,10.1993,1487
473787,1.6568,4.5753,4.2425,1471
473792,1.9836,3.0095,9.3362,1478
473797,-0.3795,-1.5933,19.8874,1481
473802,-4.6029,-0.2011,10.5668,1471
473807,1.8447,4.774,4.5598,1494
473812,2.132,3.0311,8.6275,1491
473817,-0.0419,-1.2761,19.9437,1481
473822,-4.5334,-0.5459,10.9978,1469
473827,1.7358,4.7944,4.8076,1480
473832,2.1033,3.0191,8.0062,1486
473837,0.2358,-0.9565,19.9066,1483
473842,-4.4412,-0.8763,11.5005,1479
473847,1.4844,4.8387,5.1894,1482
473852,1.8016,3.0682,7.4567,1471
473857,0.4549,-0.6045,19.6001,1471
473862,-4.3754,-1.1384,11.9279,1481
473867,0.9433,4.7166,5.4767,1485
473872,1.2905,3.0993,6.9587,1469
473877,0.5842,-0.3112,19.2159,1483
473882,-4.2306,-1.3108,12.5145,1487
473887,0.2418,4.5981,5.8538,1479
473892,0.6464,3.1915,6.3722,1469
473897,0.6404,0.1353,18.6544,1492
473902,-4.0187,-1.4353,13.1011,1480
473907,-0.4393,4.3981,6.274,1480
473912,0.0215,3.1987,5.8718,1477
473917,0.5878,0.5483,17.9733,1483
473922,-3.7876,-1.6305,13.6661,1469
473927,-1.1432,4.0677,6.6188,1482
473932,-0.5291,3.286,5.3606,1482
473937,0.5088,1.0116,16.9988,1481
473942,-3.5494,-1.8555,14.4191,1479
473947,-1.8591,3.7014,7.0545,1483
473952,-0.9625,3.3651,4.9021,1479
473957,0.4214,1.4174,15.9645,1469
473962,-3.3112,-1.9417,15.178,1471
473967,-2.557,3.2166,7.3909,1487
473972,-1.2043,3.4919,4.4891,1469
473977,0.243,1.8028,14.9231,1465
473982,-3.0023,-2.132,16.0148,1489
473987,-3.1364,2.7869,7.7991,1485
473992,-1.1779,3.6344,4.2258,1477
473997,0.2035,2.0458,14.0348,1481
474002,-2.7737,-2.2266,16.7307,1482
474007,-3.6955,2.2805,8.2624,1479
474012,-0.8894,3.8116,3.9887,1470
474017,0.2263,2.3954,13.0927,1491
474022,-2.3523,-2.2889,17.5088,1471
474027,-4.1372,1.7657,8.661,1471
474032,-0.413,3.984,3.9037,1480
474037,0.4693,2.6013,12.1302,1487
474042,-1.9812,-2.2146,18.1648,1467
474047,-4.4484,1.3012,9.0585,1477
474052,0.2155,4.2341,3.9169,1487
474057,0.7482,2.7773,11.3006,1479
474062,-1.4712,-2.15,18.7646,1467
474067,-4.5454,0.9062,9.3637,1483
474072,0.8344,4.4388,3.9121,1484
474077,1.1851,2.8934,10.5357,1481
474082,-0.9984,-2.1009,19.2039,1478
474087,-4.5909,0.5076,9.7875,1491
474092,1.2653,4.5741,4.0618,1471
474097,1.5167,2.976,9.9778,1479
474102,-0.5818,-2.0159,19.5307,1485
474107,-4.5681,0.0922,10.1897,1480
474112,1.5802,4.6783,4.2018,1469
474117,1.652,3.0406,9.3649,1481
474122,-0.2227,-1.8399,19.745,1485
474127,-4.4999,-0.2071,10.6003,1472
474132,1.7454,4.8291,4.4927,1469
474137,1.8364,3.0837,8.7436,1491
474142,0.0407,-1.5945,19.8862,1479
474147,-4.4784,-0.5399,10.9511,1479
474152,1.5957,4.9105,4.7896,1482
474157,1.658,3.1556,8.1654,1484
474162,0.3292,-1.2605,19.8815,1479
474167,-4.3096,-0.7925,11.4431,1479
474172,1.306,4.877,5.1499,1500
474177,1.3898,3.2106,7.6195,1468
474182,0.4322,-0.8715,19.5427,1481
474187,-4.136,-1.0451,11.8848,1493
474192,0.9541,4.8088,5.4791,1489
474197,1.0068,3.2106,7.0976,1477
474202,0.5543,-0.4812,19.1321,1479
474207,-3.9792,-1.2282,12.4403,1490
474212,0.3855,4.622,5.8095,1477
474217,0.4609,3.2693,6.4703,1469
474222,0.5662,-0.0347,18.518,1497
474227,-3.8188,-1.4724,12.9706,1471
474232,-0.334,4.3275,6.2991,1480
474237,-0.1365,3.2298,5.9855,1478
474242,0.5028,0.498,17.8428,1491
474247,-3.6524,-1.6676,13.6422,1469
474252,-1.0965,3.9301,6.7145,1477
474257,-0.6393,3.2477,5.4277,1483
474262,0.3316,1.0127,16.9414,1465
474267,-3.4357,-1.8316,14.3437,1470
474272,-1.8735,3.5698,7.0234,1491
474277,-1.0774,3.383,4.9572,1471
474282,0.2406,1.4102,15.9741,1477
474287,-3.219,-1.9297,15.1709,1479
474292,-2.5223,3.2034,7.4196,1489
474297,-1.3204,3.5458,4.5179,1471
474302,0.0622,1.6939,15.02,1469
474307,-2.8958,-1.9549,15.9945,1489
474312,-3.0909,2.7892,7.8338,1482
474317,-1.2354,3.6978,4.2162,1471
474322,0.0251,1.9441,14.0695,1485
474327,-2.5642,-2.0794,16.6912,1480
474332,-3.6164,2.2913,8.2049,1481
474337,-0.8823,3.8774,3.978,1479
474342,0.0515,2.223,13.1118,1493
474347,-2.1045,-2.1656,17.358,1467
474352,-3.972,1.8364,8.661,1477
474357,-0.3867,4.0378,3.9229,1493
474362,0.2837,2.4361,12.2511,1483
474367,-1.7717,-2.2254,18.0547,1465
474372,-4.2509,1.3443,8.9902,1479
474377,0.2777,4.2413,3.9349,1487
474382,0.595,2.6073,11.4527,1481
474387,-1.3443,-2.2374,18.6532,1465
474392,-4.4017,0.9337,9.3697,1494
474397,0.7841,4.4448,3.9732,1479
474402,0.9996,2.7545,10.6734,1483
474407,-0.9361,-2.1835,19.1704,1471
474412,-4.5837,0.5507,9.7552,1487
474417,1.2462,4.5945,4.1252,1469
474422,1.4114,2.9137,9.9754,1483
474427,-0.583,-2.0159,19.5355,1484
474432,-4.5657,0.2071,10.1454,1477
474437,1.6269,4.7345,4.2737,1467
474442,1.7322,3.0119,9.3302,1486
474447,-0.1161,-1.7214,19.7905,1481
474452,-4.4317,-0.1269,10.6291,1469
474457,1.7801,4.8686,4.5442,1477
474462,1.9321,3.0849,8.6826,1492
474467,0.158,-1.4305,19.8611,1459
474472,-4.379,-0.48,10.9714,1471
474477,1.7202,4.8638,4.8363,1479
474482,1.8651,3.1029,8.0469,1480
474487,0.3412,-1.166,19.8886,1480
474492,-4.2701,-0.7554,11.3653,1481
474497,1.4341,4.9237,5.1811,1487
474502,1.5993,3.0945,7.4508,1471
474507,0.577,-0.832,19.5439,1480
474512,-4.2222,-1.0882,11.8872,1491
474517,0.9505,4.7429,5.5593,1478
474522,1.1959,3.1651,7.0378,1479
474527,0.7302,-0.4214,19.1524,1491
474532,-4.1324,-1.3048,12.5133,1491
474537,0.2502,4.5933,5.9089,1481
474542,0.5686,3.2334,6.4631,1477
474547,0.7123,0.0491,18.5407,1493
474552,-3.9995,-1.4724,13.1537,1477
474557,-0.4453,4.4077,6.3315,1481
474562,-0.0551,3.2741,5.8754,1479
474567,0.6919,0.5112,17.8979,1491
474572,-3.7086,-1.5131,13.793,1471
474577,-1.2031,4.0689,6.6391,1479
474582,-0.5495,3.3399,5.3139,1485
474587,0.5471,0.8882,17.0192,1465
474592,-3.4608,-1.7322,14.4502,1470
474597,-1.8998,3.6655,7.0425,1495
474602,-0.9649,3.4201,4.8782,1477
474607,0.4298,1.2546,16.0292,1471
474612,-3.1663,-1.9237,15.1685,1479
474617,-2.6384,3.2166,7.4268,1493
474622,-1.2043,3.5039,4.44,1478
474627,0.3077,1.6448,14.9973,1477
474632,-2.8551,-2.0243,16.0591,1491
474637,-3.2214,2.7581,7.8781,1481
474642,-1.2103,3.6559,4.1563,1479
474647,0.2346,1.962,13.9977,1479
474652,-2.5379,-2.1476,16.8037,1471
474657,-3.7314,2.3092,8.2923,1477
474662,-0.9792,3.8283,3.9229,1481
474667,0.2801,2.2338,13.0867,1485
474672,-2.0997,-2.2494,17.4609,1465
474677,-4.0917,1.8866,8.7221,1472
474682,-0.5842,4.0211,3.8259,1495
474687,0.3579,2.5043,12.2296,1481
474692,-1.6628,-2.2362,18.0906,1465
474697,-4.3012,1.4533,9.0956,1483
474702,-0.012,4.209,3.7792,1493
474707,0.325,1.3755,5.7036,1471
474712,-1.2426,-2.2254,18.6963,1467
474717,-4.4245,0.9697,9.4643,1489
474722,0.6009,4.4017,3.9085,1481
474727,1.0511,2.8826,10.5405,1478
474732,-0.7937,-2.1296,19.2183,1467
474737,-4.4903,0.504,9.8426,1490
474742,1.1432,4.5705,4.0103,1471
474747,1.4676,2.976,9.8617,1479
474752,-0.4441,-1.9836,19.5115,1481
474757,-4.4891,0.1125,10.173,1479
474762,1.5107,4.7166,4.2389,1477
474767,1.7442,3.1101,9.2727,1483
474772,-0.0455,-1.8483,19.7246,1479
474777,-4.5226,-0.255,10.5979,1477
474782,1.6005,4.8004,4.4784,1471
474787,1.8854,3.1867,8.7077,1491
474792,0.2095,-1.5874,19.8431,1470
474797,-4.4161,-0.5986,11.066,1463
474802,1.549,4.8363,4.8363,1483
474807,1.7418,3.225,8.1044,1484
474812,0.4214,-1.2031,19.7761,1483
474817,-4.2868,-0.8404,11.5005,1469
474822,1.2318,4.8961,5.1882,1485
474827,1.4796,3.3196,7.5537,1471
474832,0.5794,-0.8068,19.5451,1481
474837,-4.1096,-1.1504,11.8872,1492
474842,0.8703,4.7609,5.5067,1493
474847,1.0163,3.2729,7.0797,1478
474852,0.6572,-0.3795,19.1548,1471
474857,-3.9205,-1.3707,12.4475,1485
474862,0.2729,4.5753,5.8359,1482
474867,0.5794,3.2406,6.4584,1465
474872,0.7183,0.1089,18.5239,1493
474877,-3.7625,-1.5706,13.0699,1485
474882,-0.3843,4.306,6.2537,1481
474887,-0.0742,3.2609,5.9209,1477
474892,0.6764,0.5962,17.8117,1480
474897,-3.5721,-1.7526,13.708,1471
474902,-1.1349,4.0282,6.6236,1485
474907,-0.7147,3.2992,5.4097,1481
474912,0.4429,1.0439,16.939,1470
474917,-3.3555,-1.8771,14.4586,1471
474922,-1.8328,3.6739,7.027,1493
474927,-1.2234,3.3674,4.9117,1471
474932,0.2203,1.409,16.034,1468
474937,-3.1855,-1.9788,15.1828,1479
474942,-2.4756,3.2801,7.4472,1485
474947,-1.3767,3.5111,4.5514,1469
474952,0.085,1.7131,15.1158,1471
474957,-2.8311,-2.0518,16.034,1487
474962,-3.067,2.8539,7.841,1485
474967,-1.3647,3.6931,4.1707,1467
474972,0.0479,2.0171,14.0803,1481
474977,-2.4972,-2.1081,16.7355,1483
474982,-3.5578,2.381,8.1906,1477
474987,-1.0558,3.8463,4.0055,1469
474992,0.1197,2.2458,13.1358,1491
474997,-2.1416,-2.2039,17.4082,1469
475002,-3.9289,1.9106,8.6503,1470
475007,-0.565,4.0187,3.79,1487
475012,0.3172,2.4277,12.3086,1485
475017,-1.8064,-2.247,17.9852,1466
475022,-4.2186,1.4509,8.9435,1471
475027,-0.0048,4.1767,3.869,1491
475032,0.668,2.6157,11.5389,1471
475037,-1.3635,-2.2936,18.6089,1469
475042,-4.3981,1.0068,9.3027,1487
475047,0.571,4.4125,3.9049,1481
475052,1.0235,2.8216,10.6973,1479
475057,-0.978,-2.2314,19.1572,1469
475062,-4.4987,0.6021,9.7432,1493
475067,1.057,4.6196,4.0606,1478
475072,1.3455,2.9748,10.0772,1479
475077,-0.6009,-2.1009,19.5475,1491
475082,-4.5262,0.2035,10.0987,1478
475087,1.506,4.7704,4.2126,1471
475092,1.6077,3.0993,9.4655,1479
475097,-0.2454,-1.913,19.7785,1485
475102,-4.4867,-0.1221,10.5213,1467
475107,1.7502,4.8423,4.4819,1479
475112,1.9453,3.1125,8.8801,1495
475117,0.0419,-1.6891,19.8156,1480
475122,-4.3993,-0.3819,10.835,1467
475127,1.6556,4.938,4.774,1479
475132,1.9788,3.1723,8.26,1525
475137,0.4034,-1.324,19.8479,1479
475142,-4.2868,-0.7422,11.3617,1479
475147,1.3922,4.8255,5.1104,1481
475152,1.6436,3.1675,7.6674,1471
475157,0.5399,-0.8775,19.5989,1482
475162,-4.1922,-1.0702,11.7902,1492
475167,0.9565,4.719,5.5198,1489
475172,1.1875,3.2094,7.0713,1471
475177,0.5842,-0.4369,19.2278,1481
475182,-4.1061,-1.3312,12.4271,1483
475187,0.3627,4.5873,5.879,1479
475192,0.6847,3.2477,6.5242,1463
475197,0.6452,0.0455,18.5886,1493
475202,-4.0701,-1.5407,13.0209,1470
475207,-0.3112,4.3622,6.1878,1477
475212,0.0754,3.3076,5.9927,1468
475217,0.6117,0.5531,17.8859,1487
475222,-3.9002,-1.6412,13.7559,1467
475227,-1.0678,4.051,6.6319,1481
475232,-0.4477,3.3363,5.381,1483
475237,0.492,0.9756,17.0515,1471
475242,-3.6966,-1.8028,14.4203,1470
475247,-1.8256,3.6787,6.9707,1487
475252,-0.8655,3.3914,4.8997,1478
475257,0.4405,1.3312,16.2028,1471
475262,-3.4357,-1.9345,15.0511,1479
475267,-2.5103,3.2753,7.3562,1489
475272,-1.0379,3.4572,4.5203,1471
475277,0.3735,1.6795,15.2235,1467
475282,-3.1508,-2.059,15.8616,1491
475287,-3.1711,2.8431,7.8159,1481
475292,-1.0774,3.6595,4.2162,1471
475297,0.4717,1.962,14.2144,1480
475302,-2.7713,-2.1488,16.6301,1484
475307,-3.7397,2.3691,8.1199,1471
475312,-0.8691,3.8343,4.0139,1469
475317,0.4944,2.2098,13.3046,1494
475322,-2.3655,-2.1979,17.3879,1468
475327,-4.148,1.9201,8.5305,1477
475332,-0.4274,4.0223,3.7852,1487
475337,0.674,2.4217,12.5061,1484
475342,-1.9585,-2.2314,18.0152,1465
475347,-4.3802,1.4928,8.9292,1470
475352,0.1592,4.2497,3.7685,1484
475357,0.9529,2.6731,11.7136,1479
475362,-1.4449,-2.2398,18.5443,1463
475367,-4.4951,1.1037,9.2572,1486
475372,0.662,4.4197,3.7852,1480
475377,1.3132,2.8036,10.9415,1480
475382,-0.9972,-2.2517,19.071,1469
475387,-4.5657,0.6488,9.6582,1487
475392,1.1001,4.5765,4.0259,1466
475397,1.6688,2.9509,10.2304,1479
475402,-0.4561,-2.1201,19.4649,1487
475407,-4.6064,0.1712,10.0078,1480
475412,1.4724,4.6783,4.2605,1471
475417,1.9585,3.0777,9.4691,1487
475422,-0.1652,-1.8531,19.7989,1483
475427,-4.6184,-0.1975,10.5022,1470
475432,1.5802,4.7477,4.5167,1480
475437,2.0614,3.2382,8.8298,1491
475442,0.1245,-1.506,19.8527,1472
475447,-4.5334,-0.5746,10.9654,1470
475452,1.4808,4.7585,4.7872,1478
475457,1.9728,3.3435,8.193,1484
475462,0.3627,-1.1636,19.836,1481
475467,-4.4221,-0.893,11.4419,1471
475472,1.1564,4.7609,5.1559,1485
475477,1.7011,3.3423,7.507,1471
475482,0.5459,-0.6943,19.6073,1481
475487,-4.294,-1.1899,11.9112,1485
475492,0.6979,4.6364,5.5019,1486
475497,1.1169,3.2884,6.9372,1469
475502,0.6201,-0.2215,19.1788,1482
475507,-4.0462,-1.3827,12.5205,1483
475512,0.0646,4.5191,5.8562,1479
475517,0.5148,3.2561,6.3327,1469
475522,0.6572,0.2777,18.4928,1497
475527,-3.8523,-1.6352,13.1585,1479
475532,-0.6249,4.2545,6.2465,1481
475537,-0.2143,3.2705,5.8023,1478
475542,0.6033,0.7518,17.7494,1491
475547,-3.6691,-1.7717,13.8265,1463
475552,-1.4174,3.9576,6.6702,1479
475557,-0.7506,3.3291,5.2313,1483
475562,0.504,1.1863,16.8097,1471
475567,-3.4357,-1.9261,14.5998,1469
475572,-2.0925,3.5805,7.1275,1491
475577,-1.1779,3.3495,4.7597,1469
475582,0.4274,1.5299,15.8592,1470
475587,-3.1711,-1.9872,15.2858,1477
475592,-2.794,3.1951,7.4867,1487
475597,-1.3946,3.4943,4.3898,1469
475602,0.2263,1.816,14.856,1481
475607,-2.9042,-2.0889,16.1441,1485
475612,-3.2406,2.7497,7.8949,1480
475617,-1.3336,3.6392,4.124,1471
475622,0.1604,2.0674,13.8756,1481
475627,-2.5845,-2.1584,16.8336,1483
475632,-3.7481,2.2206,8.2624,1471
475637,-0.9122,3.8607,3.9636,1482
475642,0.2586,2.4385,12.8964,1493
475647,-2.1691,-2.2122,17.6094,1465
475652,-4.1264,1.7202,8.6706,1479
475657,-0.3316,3.9911,3.8894,1491
475662,0.6117,2.6193,11.9698,1484
475667,-1.7789,-2.2314,18.2055,1465
475672,-4.385,1.2749,9.0285,1479
475677,0.2849,4.142,3.8439,1490
475682,0.9373,2.7414,11.2635,1471
475687,-1.421,-2.247,18.8507,1469
475692,-4.5286,0.8775,9.3745,1491
475697,0.8882,4.3754,3.9516,1483
475702,1.2294,2.8718,10.5656,1482
475707,-1.0259,-2.2374,19.2733,1471
475712,-4.5897,0.5112,9.815,1487
475717,1.2917,4.5406,4.1336,1470
475722,1.5215,3.0418,9.9958,1482
475727,-0.6788,-2.1189,19.5798,1440
475732,-4.6459,0.1389,10.058,1471
475737,1.6424,4.7118,4.2856,1481
475742,1.8471,3.2346,9.3494,1491
475747,-0.2993,-1.8938,19.8156,1480
475752,-4.634,-0.255,10.4423,1465
475757,1.7538,4.8518,4.5442,1483
475762,2.0267,3.2896,8.7879,1492
475767,0.0646,-1.5981,19.897,1471
475772,-4.5346,-0.51,10.8026,1469
475777,1.6664,4.8518,4.8195,1483
475782,1.992,3.3004,8.2337,1483
475787,0.4609,-1.2881,19.9006,1477
475792,-4.4101,-0.8344,11.3377,1481
475797,1.3791,4.8399,5.12,1484
475802,1.7035,3.3052,7.5322,1479
475807,0.6788,-0.8595,19.6181,1471
475812,-4.2796,-1.154,11.807,1487
475817,0.8248,4.7046,5.5545,1484
475822,1.1372,3.2801,6.9827,1479
475827,0.8104,-0.3747,19.2697,1485
475832,-4.1288,-1.3743,12.4834,1480
475837,0.0407,4.5657,5.9137,1479
475842,0.5004,3.2741,6.3219,1477
475847,0.7925,0.0946,18.5371,1491
475852,-3.9732,-1.5167,13.1561,1467
475857,-0.6871,4.306,6.2644,1484
475862,-0.2454,3.2896,5.7533,1477
475867,0.7697,0.5243,17.7398,1485
475872,-3.7314,-1.5909,13.9438,1467
475877,-1.5467,4.0666,6.6008,1483
475882,-0.8739,3.3447,5.126,1483
475887,0.5878,0.8392,16.8636,1461
475892,-3.5219,-1.6472,14.6717,1477
475897,-2.2338,3.7697,7.0006,1495
475902,-1.2186,3.4273,4.7465,1477
475907,0.407,1.1851,16.0555,1472
475912,-3.1903,-1.7837,15.2559,1485
475917,-2.7641,3.3172,7.3777,1487
475922,-1.2366,3.5338,4.3527,1471
475927,0.255,1.4928,15.1601,1479
475932,-2.7869,-2.0566,15.9514,1483
475937,-3.1711,2.7533,7.8278,1469
475942,-1.0714,3.7266,4.1551,1479
475947,0.2622,1.7921,14.0791,1483
475952,-2.4744,-2.2877,16.6996,1477
475957,-3.5829,2.2015,8.266,1469
475962,-0.6608,3.9385,3.972,1481
475967,0.2777,2.1153,12.9933,1484
475972,-2.059,-2.296,17.6177,1465
475977,-4.0438,1.7059,8.7041,1479
475982,-0.0419,4.1539,3.8726,1482
475987,0.6919,2.2733,11.965,1485
475992,-1.7071,-2.2098,18.3767,1460
475997,-4.4149,1.3132,9.1913,1481
476002,0.6141,4.4005,3.8738,1490
476007,1.1444,2.4313,11.0337,1479
476012,-1.2605,-2.0686,19.071,1466
476017,-4.5286,1.0594,9.6175,1489
476022,1.1325,4.6639,3.8834,1469
476027,1.4712,2.4493,10.2328,1479
476032,-0.7733,-2.0219,19.4864,1479
476037,-4.385,0.8847,9.9742,1481
476042,1.4126,4.7812,3.9971,1479
476047,1.5706,2.6312,9.7241,1481
476052,-0.3041,-2.0458,19.642,1471
476057,-4.2988,0.4752,10.2999,1477
476062,1.6197,4.8973,4.3239,1477
476067,1.658,2.7222,9.0848,1493
476072,0.0802,-1.9309,19.7582,1479
476077,-4.2988,-0.006,10.7356,1469
476082,1.6807,5.1092,4.6735,1483
476087,1.8316,2.6959,8.5317,1485
476092,0.3484,-1.6795,19.8108,1503
476097,-4.373,-0.1903,11.0971,1471
476102,1.4341,5.1344,4.9955,1481
476107,1.6077,2.812,7.8973,1468
476112,0.6644,-1.4629,19.7857,1480
476117,-4.2413,-0.2622,11.5879,1499
476122,0.759,4.9967,5.284,1491
476127,1.0594,3.0107,7.2042,1477
476132,0.753,-1.1181,19.4625,1477
476137,-4.1061,-0.5387,12.0835,1485
476142,0.1472,4.786,5.6731,1481
476147,0.5435,3.1556,6.7493,1470
476152,0.7949,-0.6943,19.0638,1493
476157,-3.9636,-0.7841,12.5516,1479
476162,-0.4537,4.6519,5.9652,1481
476167,-0.0431,3.2741,6.1806,1477
476172,0.7614,-0.2753,18.4449,1487
476177,-3.814,-1.0894,13.119,1469
476182,-1.0702,4.3586,6.3398,1481
476187,-0.5662,3.3471,5.7664,1483
476192,0.7661,0.1305,17.7231,1471
476197,-3.5566,-1.3838,13.8373,1469
476202,-1.7933,3.8906,6.6679,1495
476207,-0.9852,3.4393,5.2086,1467
476212,0.5974,0.6069,16.8025,1471
476217,-3.3184,-1.5862,14.5747,1479
476222,-2.4541,3.462,7.0797,1493
476227,-1.2773,3.5769,4.8231,1471
476232,0.3567,1.0499,15.9801,1476
476237,-3.0083,-1.7837,15.2966,1487
476242,-2.9796,2.9532,7.5058,1485
476247,-1.3144,3.7266,4.3646,1476
476252,0.1377,1.5694,15.1373,1480
476257,-2.6336,-2.0734,16.0675,1479
476262,-3.389,2.4744,7.9236,1469
476267,-1.1085,3.8798,4.1001,1467
476272,0.0239,2.1356,13.969,1487
476277,-2.1835,-2.3308,16.8145,1467
476282,-3.6835,1.9249,8.3869,1469
476287,-0.7254,3.9193,3.9648,1483
476292,0.0479,2.7797,12.7647,1485
476297,-1.6795,-2.4457,17.6824,1469
476302,-4.0103,1.2881,8.8214,1479
476307,-0.0204,4.0247,3.9241,1484
476312,0.5578,2.9999,11.6873,1477
476317,-1.3156,-2.2829,18.4318,1469
476322,-4.2593,0.7733,9.2285,1490
476327,0.6871,4.1432,3.972,1477
476332,1.1241,3.0406,10.8362,1479
476337,-0.8751,-2.0949,19.0638,1477
476342,-4.3359,0.3938,9.7695,1492
476347,1.2198,4.2485,4.039,1471
476352,1.4928,3.037,10.0114,1481
476357,-0.5447,-1.8124,19.5522,1491
476362,-4.3179,0.1281,10.3298,1479
476367,1.4581,4.4005,4.2282,1470
476372,1.7226,2.9664,9.2356,1485
476377,-0.2586,-1.5299,19.8958,1480
476382,-4.2557,-0.182,10.8469,1471
476387,1.6281,4.5526,4.4173,1477
476392,1.7466,3.0933,8.5078,1491
476397,-0.0622,-1.1277,19.9832,1471
476402,-4.118,-0.5423,11.2958,1468
476407,1.5933,4.6388,4.8028,1481
476412,1.6053,3.1472,7.8709,1483
476417,0.0766,-0.7219,19.7438,1480
476422,-4.033,-0.9744,11.7543,1483
476427,1.3874,4.61,5.1128,1485
476432,1.3048,3.1939,7.3346,1470
476437,0.2717,-0.2897,19.3643,1479
476442,-3.9983,-1.3264,12.3014,1492
476447,0.9649,4.6232,5.5354,1485
476452,0.9038,3.1735,6.8857,1471
476457,0.4477,0.0826,18.8304,1481
476462,-3.9624,-1.6029,12.7,1485
476467,0.316,4.4616,5.9017,1481
476472,0.2251,3.1448,6.3375,1477
476477,0.4417,0.492,18.3097,1494
476482,-3.814,-1.7897,13.3118,1470
476487,-0.4226,4.3048,6.3243,1479
476492,-0.4202,3.1723,5.7868,1480
476497,0.3591,0.8392,17.6465,1487
476502,-3.6464,-1.8747,13.9151,1468
476507,-1.1863,4.0618,6.6679,1477
476512,-0.978,3.2489,5.3211,1485
476517,0.2418,1.2067,16.9186,1467
476522,-3.4668,-1.9178,14.601,1471
476527,-1.9082,3.632,7.0629,1491
476532,-1.2402,3.3064,4.8076,1468
476537,0.1209,1.5598,15.9119,1469
476542,-3.1244,-2.0327,15.3193,1479
476547,-2.5367,3.2513,7.4939,1487
476552,-1.2653,3.3842,4.3299,1471
476557,0.2011,1.7609,14.965,1477
476562,-2.7701,-2.059,16.0603,1485
476567,-3.0801,2.806,7.8757,1472
476572,-1.0738,3.4907,4.0211,1467
476577,0.4034,1.9776,13.9486,1479
476582,-2.4624,-2.1117,16.854,1465
476587,-3.6069,2.4277,8.3414,1471
476592,-0.7506,3.7038,3.7912,1471
476597,0.5698,2.0638,12.9646,1485
476602,-2.1069,-2.1919,17.6022,1467
476607,-3.9911,2.0602,8.7484,1479
476612,-0.2765,3.984,3.7433,1487
476617,0.7841,2.083,12.0081,1483
476622,-1.7394,-2.1751,18.4078,1467
476627,-4.2713,1.6233,9.1482,1481
476632,0.2454,4.2725,3.7852,1485
476637,1.1815,2.2386,11.139,1481
476642,-1.391,-2.0925,18.974,1471
476647,-4.5562,1.2713,9.5541,1493
476652,0.9134,4.6316,3.9325,1472
476657,1.6712,2.3415,10.4196,1477
476662,-0.9673,-2.0231,19.5331,1477
476667,-4.6471,0.8918,9.9,1481
476672,1.4509,4.9069,3.9648,1471
476677,1.9513,2.4517,9.7827,1483
476682,-0.5363,-2.077,19.7617,1485
476687,-4.549,0.5315,10.246,1499
476692,1.7609,5.0446,4.2725,1471
476697,2.2063,2.4505,9.2512,1495
476702,-0.0587,-2.0494,19.8815,1484
476707,-4.549,0.1341,10.6626,1467
476712,1.8076,5.0482,4.5777,1483
476717,2.3475,2.5307,8.5114,1483
476722,0.3112,-1.6939,20.0263,1471
476727,-4.5741,-0.3148,11.23,1469
476732,1.5778,5.1044,5.0027,1483
476737,2.2685,2.6037,7.7129,1480
476742,0.5758,-1.2186,19.8958,1479
476747,-4.6579,-0.6225,11.807,1479
476752,1.0786,5.205,5.4025,1485
476757,1.7226,2.8012,6.8654,1477
476762,0.6728,-0.844,19.4696,1480
476767,-4.4748,-0.8475,12.5061,1485
476772,0.4537,5.1176,5.6922,1477
476777,0.9182,2.8754,6.3303,1469
476782,0.7254,-0.4944,18.7729,1494
476787,-4.3191,-1.0654,13.1454,1477
476792,-0.2466,4.9871,6.0777,1470
476797,0.2634,3.0155,5.7593,1477
476802,0.8679,-0.255,18.1792,1491
476807,-4.0354,-1.1349,13.6721,1471
476812,-1.0008,4.8375,6.353,1481
476817,-0.3831,3.1807,5.2756,1485
476822,0.7937,-0.1939,17.6117,1483
476827,-3.7314,-1.2498,14.2036,1471
476832,-1.7059,4.525,6.6355,1477
476837,-1.1672,3.3124,4.9141,1480
476842,0.4286,-0.0204,16.9354,1470
476847,-3.4165,-1.4581,14.6453,1469
476852,-2.1093,4.0043,7.0318,1491
476857,-1.4557,3.3902,4.6567,1497
476862,0.0227,0.419,16.0459,1471
476867,-3.219,-1.8052,15.2499,1479
476872,-2.569,3.4488,7.519,1481
476877,-1.4736,3.5829,4.5562,1471
476882,-0.1329,1.063,14.9434,1468
476887,-3.0394,-2.0004,15.9921,1480
476892,-3.304,2.8,7.8542,1476
476897,-1.0953,3.8283,4.2796,1479
476902,-0.1209,1.7741,13.7894,1487
476907,-2.7557,-2.0949,16.8288,1469
476912,-3.8798,2.2494,8.3067,1471
476917,-0.492,4.0666,4.0833,1480
476922,0.1568,2.1572,12.8664,1493
476927,-2.3104,-2.2254,17.4968,1463
476932,-4.209,1.6951,8.6694,1472
476937,0.1951,4.276,3.9205,1495
476942,0.504,2.4493,12.0105,1479
476947,-1.8471,-2.2865,18.2163,1465
476952,-4.3586,1.2713,9.0992,1471
476957,0.759,4.4365,3.8499,1482
476962,0.8236,2.6228,11.1534,1479
476967,-1.3611,-2.3343,18.755,1471
476972,-4.4341,0.8487,9.499,1493
476977,1.2091,4.6567,4.0187,1469
476982,1.1313,2.7102,10.5058,1483
476987,-0.9397,-2.2517,19.2566,1481
476992,-4.4688,0.4944,9.8366,1484
476997,1.5682,4.8064,4.1108,1469
477002,1.5359,2.8168,9.8605,1481
477007,-0.5339,-2.1656,19.6073,1483
477012,-4.4736,0.1772,10.3142,1469
477017,1.7549,4.9321,4.3359,1479
477022,1.8639,2.8383,9.1734,1498
477027,-0.1736,-1.883,19.885,1481
477032,-4.4951,-0.0467,10.7452,1467
477037,1.7789,5.0781,4.5873,1483
477042,1.9429,2.8527,8.4156,1487
477047,0.1113,-1.5862,20.0048,1477
477052,-4.3898,-0.2957,11.1965,1515
477057,1.5383,5.132,4.8973,1489
477062,1.7693,2.9102,7.7692,1471
477067,0.4429,-1.3216,19.9198,1478
477072,-4.2689,-0.5207,11.5532,1493
477077,1.0259,5.205,5.2026,1487
477082,1.3276,2.9185,7.2712,1469
477087,0.7087,-1.0882,19.654,1483
477092,-4.1743,-0.6823,12.0512,1483
477097,0.3938,5.0554,5.5438,1479
477102,0.7649,3.0107,6.6774,1470
477107,0.8763,-0.9361,19.2326,1495
477112,-4.0151,-0.8703,12.6198,1479
477117,-0.2634,4.853,5.9005,1481
477122,0.0958,3.0358,6.2201,1477
477127,0.9026,-0.6548,18.567,1491
477132,-3.9361,-0.9673,13.2495,1469
477137,-1.0822,4.6136,6.2728,1481
477142,-0.6321,3.1807,5.5737,1491
477147,0.7925,-0.3484,17.8871,1477
477152,-3.796,-1.1133,13.9905,1463
477157,-1.8268,4.2629,6.62,1487
477162,-1.1109,3.2741,5.023,1470
477167,0.5758,-0.012,17.0563,1471
477172,-3.5362,-1.2761,14.6298,1478
477177,-2.393,3.8762,7.0282,1489
477182,-1.2833,3.4129,4.6412,1471
477187,0.4788,0.4166,15.9813,1468
477192,-3.219,-1.4736,15.3947,1487
477197,-2.982,3.4141,7.4735,1483
477202,-1.2426,3.7122,4.2976,1478
477207,0.4334,0.8308,14.9446,1469
477212,-2.8946,-1.6652,16.1908,1480
477217,-3.4704,2.8994,7.8458,1471
477222,-0.9589,3.9193,3.9947,1477
477227,0.3388,1.1983,13.9773,1493
477232,-2.5343,-1.8483,16.9222,1464
477237,-3.8798,2.4409,8.2217,1477
477242,-0.504,4.13,3.8858,1491
477247,0.4022,1.5514,13.0987,1477
477252,-2.1201,-2.1105,17.5232,1464
477257,-4.1372,1.9465,8.594,1479
477262,0.0503,4.3024,3.79,1491
477267,0.7123,1.974,12.214,1479
477272,-1.6604,-2.2362,18.2534,1467
477277,-4.3598,1.4449,9.1435,1491
477282,0.7685,4.5705,3.869,1481
477287,1.1899,2.3032,11.2863,1479
477292,-1.257,-2.2482,18.8855,1477
477297,-4.5586,0.9601,9.5217,1485
477302,1.2893,4.7453,4.0103,1471
477307,1.6221,2.6205,10.4148,1479
477312,-0.7697,-2.1751,19.5008,1487
477317,-4.5813,0.5734,9.8869,1471
477322,1.7214,4.9057,4.148,1477
477327,2.0279,2.7629,9.6989,1481
477332,-0.3555,-2.0135,19.7665,1484
477337,-4.6208,0.0958,10.3322,1469
477342,1.8878,5.0123,4.4065,1479
477347,2.2733,2.8958,9.0034,1490
477352,0.0395,-1.7681,19.8982,1469
477357,-4.5777,-0.2981,10.7619,1470
477362,1.8866,5.029,4.6579,1480
477367,2.2721,3.0191,8.3246,1481
477372,0.3328,-1.4593,19.8683,1470
477377,-4.5813,-0.6404,11.2767,1481
477382,1.5574,5.0039,5.1104,1482
477387,1.9369,3.1352,7.7572,1469
477392,0.5279,-1.0762,19.7079,1478
477397,-4.5442,-0.9493,11.7651,1491
477402,1.0534,4.9189,5.4384,1484
477407,1.4317,3.1927,7.112,1467
477412,0.662,-0.6129,19.2685,1485
477417,-4.4125,-1.2246,12.3972,1481
477422,0.4118,4.7788,5.8371,1483
477427,0.7817,3.2896,6.5565,1471
477432,0.6716,-0.1365,18.6532,1491
477437,-4.2114,-1.4054,12.985,1469
477442,-0.3053,4.4951,6.2321,1479
477447,0.0491,3.4117,6.0059,1481
477452,0.5459,0.249,17.8548,1483
477457,-3.9516,-1.6029,13.6577,1470
477462,-1.0415,4.1049,6.5661,1481
477467,-0.4621,3.4117,5.4719,1481
477472,0.4274,0.7458,16.9533,1471
477477,-3.705,-1.81,14.3305,1470
477482,-1.8423,3.6607,7.0749,1493
477487,-0.8619,3.4249,5.0003,1480
477492,0.4046,1.2294,15.9454,1466
477497,-3.4345,-1.9632,15.1421,1480
477502,-2.7306,3.2094,7.4531,1491
477507,-1.1827,3.5434,4.4831,1467
477512,0.2526,1.6173,14.868,1469
477517,-3.0526,-2.0099,16.0136,1487
477522,-3.322,2.7964,7.9021,1477
477527,-1.1779,3.6703,4.2006,1471
477532,0.0132,1.8507,14.0252,1479
477537,-2.7126,-2.0937,16.7486,1470
477542,-3.7062,2.3559,8.2947,1471
477547,-0.8404,3.8918,3.9552,1479
477552,0.0539,2.132,13.0484,1493
477557,-2.3092,-2.2027,17.4394,1463
477562,-4.1204,1.9058,8.6802,1479
477567,-0.3843,4.1312,3.8367,1492
477572,0.3436,2.326,12.1278,1480
477577,-1.834,-2.211,18.0774,1469
477582,-4.4436,1.4126,9.0716,1481
477587,0.3041,4.3622,3.8547,1484
477592,0.6955,2.5402,11.2563,1480
477597,-1.3527,-2.1668,18.7227,1471
477602,-4.6052,0.9553,9.5349,1497
477607,0.9649,4.5358,3.9037,1477
477612,1.1624,2.6252,10.4088,1479
477617,-0.8535,-2.1225,19.156,1480
477622,-4.6711,0.5519,9.8569,1482
477627,1.3886,4.7262,4.1228,1471
477632,1.4772,2.7916,9.7983,1481
477637,-0.4262,-1.9992,19.5894,1482
477642,-4.5801,0.2729,10.2436,1471
477647,1.6556,4.8447,4.3263,1462
477652,1.7789,2.8168,9.1267,1496
477657,-0.1101,-1.8938,19.7893,1482
477662,-4.5418,-0.067,10.6374,1477
477667,1.7238,5.0578,4.6687,1481
477672,1.8735,2.8347,8.6131,1482
477677,0.2179,-1.6113,19.8443,1477
477682,-4.4496,-0.3603,11.0995,1471
477687,1.5287,5.0506,4.9823,1485
477692,1.8483,2.8683,7.9799,1469
477697,0.5028,-1.2438,19.7821,1477
477702,-4.2689,-0.571,11.5796,1491
477707,1.1444,5.0206,5.3834,1490
477712,1.5155,2.9365,7.337,1471
477717,0.7877,-0.8918,19.4206,1481
477722,-4.0462,-0.7614,12.1003,1485
477727,0.4944,4.8973,5.6719,1479
477732,0.9014,2.9257,6.6391,1463
477737,0.8332,-0.5567,18.9609,1501
477742,-3.8535,-0.9385,12.7048,1479
477747,-0.1939,4.7405,6.0837,1480
477752,0.1305,3.0131,5.9771,1471
477757,0.7853,-0.3029,18.3743,1483
477762,-3.723,-1.1169,13.2806,1469
477767,-0.972,4.4017,6.5027,1480
477772,-0.583,3.1137,5.5773,1485
477777,0.4836,0.0491,17.6237,1471
477782,-3.5279,-1.2629,14.0181,1471
477787,-1.6544,4.0438,6.8498,1496
477792,-1.0702,3.2262,5.0841,1462
477797,0.2861,0.3531,16.7079,1469
477802,-3.237,-1.3862,14.7136,1481
477807,-2.3762,3.6248,7.2449,1489
477812,-1.3623,3.4285,4.6914,1469
477817,0.0431,0.7458,15.846,1477
477822,-2.9197,-1.5371,15.4486,1491
477827,-3.0179,3.1891,7.6447,1477
477832,-1.3216,3.6464,4.2976,1469
477837,-0.0539,1.0906,14.8249,1482
477842,-2.5678,-1.6759,16.1549,1471
477847,-3.4848,2.7043,8.0816,1477
477852,-1.0642,3.8391,4.0677,1481
477857,-0.091,1.4162,13.7355,1491
477862,-2.1344,-1.8603,16.8995,1464
477867,-3.8295,2.1811,8.4851,1481
477872,-0.4956,4.0737,3.9073,1493
477877,0.1317,1.7035,12.5911,1479
477882,-1.6819,-2.0219,17.7099,1465
477887,-4.1851,1.7023,8.9376,1479
477892,0.1209,4.3539,3.9265,1483
477897,0.4764,2.0327,11.5975,1481
477902,-1.3372,-2.1177,18.4138,1467
477907,-4.4544,1.3192,9.3422,1491
477912,0.6931,4.6088,3.972,1467
477917,0.8392,2.1476,10.8433,1471
477922,-0.8871,-2.1153,18.9525,1481
477927,-4.5298,0.9601,9.8019,1481
477932,1.2234,4.8985,4.0689,1472
477937,1.2833,2.2936,10.143,1481
477942,-0.4202,-2.0997,19.2422,1483
477947,-4.4664,0.7063,10.1742,1469
477952,1.5706,5.1487,4.3251,1477
477957,1.4629,2.4912,9.5433,1493
477962,-0.0575,-1.9884,19.5582,1479
477967,-4.2497,0.4609,10.4818,1469
477972,1.7178,5.2074,4.6076,1479
477977,1.4892,2.6384,8.934,1484
477982,0.3376,-1.8507,19.5642,1479
477987,-4.112,0.018,10.8601,1478
477992,1.7238,5.193,4.9476,1485
477997,1.4377,2.9066,8.3917,1469
478002,0.5734,-1.6089,19.399,1479
478007,-4.0318,-0.328,11.2504,1491
478012,1.4736,5.029,5.2493,1529
478017,1.1815,3.0478,7.8733,1478
478022,0.6943,-1.3288,19.174,1483
478027,-3.9828,-0.6237,11.8309,1483
478032,1.0511,4.8949,5.697,1479
478037,0.8344,3.128,7.3191,1469
478042,0.7135,-0.9074,18.8208,1495
478047,-3.8834,-0.9134,12.4235,1467
478052,0.3244,4.5897,6.0549,1479
478057,0.3112,3.2657,6.6224,1478
478062,0.6069,-0.2957,18.3516,1485
478067,-3.717,-1.1205,13.1202,1470
478072,-0.5207,4.2365,6.456,1480
478077,-0.2682,3.401,5.9568,1479
478082,0.3208,0.3029,17.5423,1467
478087,-3.5111,-1.4234,13.86,1471
478092,-1.3024,3.784,6.8642,1490
478097,-0.7949,3.5255,5.436,1467
478102,0.0144,0.82,16.6864,1477
478107,-3.1975,-1.6963,14.5986,1479
478112,-1.9632,3.2645,7.264,1485
478117,-0.9122,3.5662,4.9368,1471
478122,-0.1664,1.4617,15.4953,1479
478127,-2.9425,-2.0099,15.4833,1485
478132,-2.8084,2.6911,7.7428,1469
478137,-0.929,3.7433,4.5274,1477
478142,-0.1844,2.0159,14.3508,1486
478147,-2.6612,-2.2027,16.3536,1467
478152,-3.5326,2.1943,8.1439,1476
478157,-0.6812,3.8571,4.203,1483
478162,-0.0694,2.3056,13.3525,1489
478167,-2.2541,-2.2733,17.2059,1465
478172,-4.0354,1.7825,8.6419,1471
478177,-0.255,4.0689,3.9828,1491
478182,0.3855,2.4565,12.3912,1469
478187,-1.6508,-2.2541,17.8847,1463
478192,-4.2377,1.421,8.9795,1485
478197,0.3352,4.3802,3.899,1485
478202,0.8859,2.6085,11.5245,1478
478207,-1.1372,-2.2218,18.5958,1471
478212,-4.2665,1.069,9.3913,1492
478217,0.741,4.5777,3.9193,1472
478222,1.2558,2.6935,10.6147,1480
478227,0.3519,-1.6436,19.751,1484
478232,-4.2485,0.5459,9.8677,1471
478237,1.1779,4.9129,5.0518,1478
478242,1.6197,2.8766,9.8282,1482
478247,0.565,-1.2151,19.6456,1482
478252,-4.4616,0.0694,10.3705,1469
478257,0.8116,4.8123,5.4743,1496
478262,1.9668,3.0358,9.0381,1495
478267,0.6345,-0.6189,19.2063,1477
478272,-4.1037,-1.1193,12.3038,1465
478277,0.237,4.7034,5.8826,1485
478282,0.7518,3.2346,6.59,1485
478287,0.7039,-0.164,18.7729,1481
478292,-3.9756,-1.3036,12.9407,1468
478297,-0.4345,4.4436,6.3255,1503
478302,0.2562,3.2358,6.0418,1469
478307,0.6979,0.3124,18.0032,1481
478312,-3.7517,-1.5323,13.5895,1492
478317,-1.148,4.0929,6.7445,1484
478322,-0.2909,3.3303,5.4743,1469
478327,0.6823,0.9026,17.0312,1485
478332,-3.5111,-1.6843,14.3329,1483
478337,-2.0147,3.6404,7.0629,1480
478342,-0.7757,3.3184,4.9428,1476
478347,0.6321,1.2941,15.8915,1485
478352,-3.207,-1.8471,15.3337,1469
478357,-2.8527,3.1903,7.6028,1481
478362,-1.136,3.4584,4.4472,1484
478367,0.5495,1.5838,14.7746,1485
478372,-2.8623,-1.9537,16.1668,1465
478377,-3.5674,2.8264,8.0038,1481
478382,-1.1732,3.6284,4.027,1481
478387,0.4525,1.7561,13.8086,1470
478392,-2.4792,-2.0219,17.0252,1471
478397,-4.0223,2.4397,8.4623,1493
478402,-0.8918,3.8726,3.7948,1471
478407,0.5124,1.9453,12.7336,1469
478412,-2.0099,-2.071,17.7339,1484
478417,-4.3419,1.9776,8.8992,1486
478422,-0.5243,4.1108,3.7074,1471
478427,0.7087,2.1284,11.7376,1472
478432,-1.5431,-2.15,18.4677,1483
478437,-4.5334,1.5048,9.3529,1477
478442,0.0682,4.3946,3.7385,1477
478447,1.172,2.3044,10.7129,1486
478452,-1.0211,-2.1021,19.1033,1467
478457,-4.5957,1.1013,9.7707,1479
478462,0.723,4.6687,3.881,1485
478467,1.5479,2.4313,10.003,1481
478472,-0.5638,-2.0842,19.557,1459
478477,-4.5562,0.6871,10.1454,1472
478482,1.1504,4.8483,3.9995,1491
478487,1.8244,2.5426,9.3769,1471
478492,-0.1425,-2.0506,19.7905,1465
478497,-4.4987,0.3472,10.5848,1481
478502,1.3803,5.0362,4.3562,1483
478507,2.0207,2.7258,8.8095,1481
478512,0.2885,-1.9992,19.891,1471
478517,-4.3862,0.0132,10.9128,1484
478522,1.2905,5.1607,4.6412,1479
478527,1.8974,2.8551,8.1858,1481
478532,0.5339,-1.8184,20.0323,1485
478537,-4.1922,-0.231,11.4431,1479
478542,0.9313,5.2672,5.0482,1479
478547,1.5874,2.9856,7.5286,1491
478552,0.7278,-1.5383,19.8539,1480
478557,-3.972,-0.48,11.8453,1471
478562,0.4717,5.1691,5.4205,1463
478567,0.978,3.1149,6.9312,1493
478572,0.82,-1.2186,19.4529,1471
478577,-3.814,-0.7446,12.4259,1502
478582,-0.1149,5.0302,5.7952,1485
478587,0.3555,3.1663,6.2441,1478
478592,0.8104,-0.814,18.7945,1477
478597,-3.6152,-1.0642,13.0999,1481
478602,-0.7781,4.7022,6.2261,1487
478607,-0.2274,3.1915,5.7078,1447
478612,0.7422,-0.2981,17.9876,1479
478617,-3.4884,-1.2402,13.7595,1486
478622,-1.5778,4.3155,6.6355,1481
478627,-0.9505,3.3052,5.1392,1470
478632,0.4884,0.1772,17.164,1493
478637,-3.2717,-1.4736,14.4849,1479
478642,-2.2769,3.9217,7.088,1481
478647,-1.403,3.4572,4.6914,1481
478652,0.2119,0.5327,16.2554,1493
478657,-2.9796,-1.6376,15.1744,1469
478662,-2.7952,3.4465,7.4352,1483
478667,-1.4748,3.6559,4.3287,1495
478672,0.0215,0.9278,15.2463,1482
478677,-2.6157,-1.8423,15.8951,1469
478682,-3.2741,2.9425,7.8961,1483
478687,-1.2869,3.8726,4.0282,1466
478692,0.0874,1.397,14.1366,1469
478697,-2.247,-1.9369,16.7103,1469
478702,-3.717,2.3942,8.3342,1493
478707,-0.9397,4.045,3.8463,1467
478712,0.2957,1.8148,12.9838,1471
478717,-1.8088,-2.1368,17.5483,1491
478722,-4.1013,1.8842,8.7927,1483
478727,-0.328,4.2329,3.7397,1478
478732,0.5902,2.144,11.9339,1471
478737,-1.391,-2.2625,18.263,1485
478742,-4.3694,1.4281,9.238,1481
478747,0.34,4.4963,3.8535,1479
478752,1.002,2.4337,11.0026,1491
478757,-0.9421,-2.2901,18.9226,1463
478762,-4.476,0.9146,9.6666,1475
478767,0.8475,4.713,3.9899,1495
478772,1.3479,2.6312,10.1706,1485
478777,-0.5411,-2.2158,19.4194,1464
478782,-4.5071,0.5183,10.1107,1481
478787,1.2857,4.883,4.2521,1485
478792,1.6987,2.8455,9.4272,1479
478797,-0.1269,-2.0722,19.7821,1469
478802,-4.4173,0.1293,10.507,1487
478807,1.4976,5.0003,4.4915,1469
478812,1.8399,3.0191,8.7712,1469
478817,0.2167,-1.8423,19.818,1472
478822,-4.2162,-0.2251,11.0145,1482
478827,1.482,5.0673,4.8375,1469
478832,1.7968,3.1065,8.1247,1480
478837,0.5124,-1.5371,19.727,1483
478842,-4.1096,-0.5375,11.4323,1467
478847,1.154,5.0051,5.1739,1479
478852,1.5335,3.0993,7.446,1494
478857,0.723,-1.1301,19.5487,1479
478862,-3.9672,-0.8727,12.0297,1469
478867,0.6141,4.8854,5.6395,1482
478872,0.9732,3.1065,6.7912,1485
478877,0.7386,-0.7015,19.1045,1478
478882,-3.8451,-1.1145,12.5851,1479
478887,-0.1293,4.695,6.037,1481
478892,0.2047,3.1639,6.1974,1468
478897,0.6165,-0.2346,18.5024,1483
478902,-3.6595,-1.2773,13.3441,1485
478907,-0.8823,4.4724,6.4284,1485
478912,-0.3926,3.1999,5.5486,1471
478917,0.4681,0.2179,17.6668,1479
478922,-3.4309,-1.4736,14.0947,1485
478927,-1.5886,4.0666,6.8546,1481
478932,-0.8871,3.3627,5.0745,1470
478937,0.2753,0.6572,16.7211,1491
478942,-3.1963,-1.6197,14.8141,1471
478947,-2.2924,3.6009,7.3107,1478
478952,-1.1528,3.4788,4.5191,1477
478957,0.079,1.069,15.6066,1491
478962,-2.8862,-1.8256,15.6042,1501
478967,-2.9018,3.1903,7.7967,1479
478972,-1.2163,3.7002,4.1551,1471
478977,0.0646,1.3719,14.5316,1468
478982,-2.5139,-1.9932,16.3344,1477
478987,-3.4812,2.6887,8.1774,1491
478992,-1.0403,3.9456,3.8882,1467
478997,0.0646,1.7466,13.3968,1469
479002,-2.1165,-2.1691,17.194,1478
479007,-3.8199,2.2458,8.6778,1490
479012,-0.6057,4.1551,3.7984,1461
479017,0.2251,2.077,12.4606,1477
479022,-1.6867,-2.3511,17.8763,1491
479027,-4.0989,1.7214,9.0525,1476
479032,-0.0778,4.3742,3.8068,1479
479037,0.5471,2.3679,11.6286,1482
479042,-1.2474,-2.3284,18.5036,1477
479047,-4.3167,1.2629,9.4918,1472
479052,0.5267,4.6112,3.9097,1471
479057,1.0546,2.6516,10.744,1485
479062,-0.7721,-2.3643,19.1129,1464
479067,-4.3958,0.8583,9.8785,1479
479072,1.0918,4.8447,4.0354,1484
479077,1.6077,2.8216,9.9216,1483
479082,-0.2693,-2.2685,19.563,1464
479087,-4.2976,0.4142,10.2639,1481
479092,1.3791,4.9775,4.1707,1484
479097,1.822,2.9269,9.2057,1480
479102,0.1053,-2.1332,19.806,1481
479107,-4.1982,0.0311,10.7117,1491
479112,1.409,5.1128,4.5693,1469
479117,1.9082,3.0394,8.5533,1481
479122,0.425,-1.8842,19.9114,1485
479127,-4.118,-0.3292,11.1342,1479
479132,1.2354,5.0709,4.9045,1481
479137,1.7645,3.0777,7.8446,1479
479142,0.5375,-1.5287,19.812,1483
479147,-4.0845,-0.6752,11.7088,1467
479152,0.8871,5.0398,5.3522,1480
479157,1.3946,3.2298,7.2891,1496
479162,0.6716,-1.0487,19.4373,1479
479167,-3.9409,-0.9517,12.2416,1465
479172,0.4034,4.889,5.6635,1469
479177,0.8655,3.2836,6.7133,1482
479182,0.674,-0.583,18.9022,1479
479187,-3.8152,-1.2366,12.8844,1480
479192,-0.2957,4.6005,6.1232,1483
479197,0.2119,3.3076,6.0849,1470
479202,0.595,-0.0886,18.2151,1491
479207,-3.6045,-1.3958,13.4817,1491
479212,-1.0558,4.2557,6.5434,1483
479217,-0.4058,3.3806,5.442,1455
479222,0.3735,0.3831,17.3244,1487
479227,-3.3519,-1.6508,14.2168,1477
479232,-1.8471,3.8666,6.9887,1477
479237,-0.9613,3.4141,4.8973,1471
479242,0.2334,0.8631,16.2423,1493
479247,-3.1436,-1.9142,15.0212,1467
479252,-2.5414,3.4165,7.4148,1481
479257,-1.2007,3.5662,4.5226,1483
479262,0.0898,1.2893,15.1673,1487
479267,-2.812,-2.0195,15.9178,1471
479272,-3.1711,2.9652,7.9057,1483
479277,-1.2354,3.8152,4.0713,1481
479282,0.0611,1.664,14.1366,1471
479287,-2.4253,-2.0853,16.7127,1471
479292,-3.6464,2.5259,8.3606,1491
479297,-0.9768,4.0007,3.79,1467
479302,0.0575,1.895,13.2208,1469
479307,-1.992,-2.2517,17.3795,1486
479312,-3.8942,2.0746,8.7712,1493
479317,-0.5435,4.1851,3.7362,1479
479322,0.267,2.211,12.2284,1479
479327,-1.5323,-2.3487,18.1073,1481
479332,-4.0881,1.6508,9.1698,1469
479337,0.0227,4.4652,3.7146,1478
479342,0.7111,2.4146,11.2887,1491
479347,-1.0726,-2.4062,18.6329,1467
479352,-4.2665,1.1181,9.5409,1477
479357,0.6033,4.7585,3.8607,1483
479362,1.1301,2.7402,10.5117,1487
479367,-0.6357,-2.3379,19.2398,1467
479372,-4.3155,0.6512,9.9587,1477
479377,1.0403,4.9009,4.0103,1486
479382,1.573,2.8563,9.7779,1481
479387,-0.2083,-2.2721,19.5882,1465
479392,-4.306,0.2693,10.3334,1485
479397,1.403,5.0003,4.2928,1483
479402,1.7442,3.0682,9.1363,1483
479407,0.2071,-2.1332,19.806,1471
479412,-4.1994,-0.0838,10.8038,1487
479417,1.3312,5.0063,4.5717,1469
479422,1.8591,3.1831,8.4432,1479
479427,0.419,-1.8364,19.8599,1483
479432,-4.0857,-0.407,11.2551,1477
479437,1.172,5.0494,5.029,1479
479442,1.5826,3.2429,7.7644,1489
479447,0.6321,-1.421,19.739,1479
479452,-3.9097,-0.6991,11.6622,1469
479457,0.7207,4.9572,5.3199,1479
479462,1.1612,3.3004,7.1395,1494
479467,0.6381,-1.0116,19.4301,1467
479472,-3.7074,-1.0223,12.2619,1477
479477,0.2155,4.8183,5.7329,1479
479482,0.5483,3.3208,6.5398,1479
479487,0.5974,-0.5207,18.8208,1481
479492,-3.5781,-1.2665,12.8521,1485
479497,-0.4405,4.4652,6.1734,1484
479502,-0.1209,3.3196,5.9484,1477
479507,0.4585,-0.0311,18.0511,1479
479512,-3.4381,-1.5407,13.6302,1489
479517,-1.1863,4.1527,6.6176,1481
479522,-0.6919,3.3124,5.3403,1470
479527,0.3065,0.5638,17.2011,1489
479532,-3.2789,-1.7142,14.3437,1479
479537,-1.8531,3.784,7.0569,1479
479542,-1.1277,3.4836,4.865,1477
479547,0.0766,1.0056,16.2195,1493
479552,-2.9724,-1.8699,15.1206,1467
479557,-2.5642,3.3543,7.4974,1483
479562,-1.4257,3.5889,4.3814,1483
479567,-0.1532,1.3695,15.1182,1480
479572,-2.6408,-2.0267,15.9155,1468
479577,-3.0622,2.8671,7.9835,1485
479582,-1.3551,3.8211,4.0606,1479
479587,-0.2227,1.7861,14.0025,1471
479592,-2.2948,-2.2027,16.69,1471
479597,-3.5398,2.3643,8.3318,1493
479602,-0.9493,4.0175,3.8654,1469
479607,-0.085,2.1632,12.9395,1479
479612,-1.9082,-2.3355,17.5435,1487
479617,-3.9002,1.8244,8.7891,1484
479622,-0.4561,4.2222,3.7457,1485
479627,0.2622,2.4397,12.0632,1479
479632,-1.4928,-2.4181,18.1864,1481
479637,-4.1815,1.3683,9.256,1477
479642,0.2466,4.3993,3.7733,1443
479647,0.7434,2.6695,11.0875,1491
479652,-1.0391,-2.4517,18.7406,1468
479657,-4.3072,0.9481,9.6558,1477
479662,0.7123,4.6136,3.8571,1479
479667,1.2151,2.8311,10.3992,1485
479672,-0.6835,-2.4337,19.3033,1463
479677,-4.3622,0.5902,10.0257,1480
479682,1.1468,4.804,4.1144,1489
479687,1.506,3.0466,9.6474,1479
479692,-0.2478,-2.2458,19.739,1461
479697,-4.2282,0.2035,10.477,1490
479702,1.3803,4.9823,4.3191,1477
479707,1.7633,3.1328,8.9735,1479
479712,0.0802,-1.9764,19.9018,1469
479717,-4.1671,-0.1628,10.8589,1485
479722,1.4653,5.0973,4.64,1471
479727,1.8411,3.3136,8.357,1479
479732,0.3735,-1.6963,19.909,1484
479737,-4.039,-0.4537,11.2803,1477
479742,1.2127,5.0278,4.962,1479
479747,1.6077,3.2705,7.7357,1495
479752,0.5746,-1.4222,19.7342,1483
479757,-3.9109,-0.8116,11.7759,1477
479762,0.8068,4.9596,5.3522,1479
479767,1.1157,3.3447,7.1287,1489
479772,0.6907,-1.0307,19.4002,1477
479777,-3.7792,-1.0774,12.2775,1467
479782,0.2334,4.7441,5.7952,1484
479787,0.5722,3.3255,6.5338,1470
479792,0.6153,-0.5483,18.7909,1471
479797,-3.7397,-1.3443,12.9347,1520
479802,-0.4549,4.4736,6.2142,1487
479807,-0.1496,3.4105,5.9963,1469
479812,0.4992,0.0299,18.0487,1477
479817,-3.6164,-1.5048,13.6062,1486
479822,-1.1528,4.1539,6.5841,1479
479827,-0.6488,3.5255,5.4181,1469
479832,0.2729,0.4956,17.1102,1493
479837,-3.389,-1.6915,14.4143,1483
479842,-1.9118,3.7266,6.9899,1480
479847,-1.0714,3.6021,4.9404,1479
479852,0.0084,1.0104,16.168,1492
479857,-3.1113,-1.8878,15.0871,1461
479862,-2.5043,3.201,7.422,1481
479867,-1.1636,3.6931,4.4568,1480
479872,-0.0874,1.4617,15.1709,1481
479877,-2.7689,-2.1727,15.943,1471
479882,-3.0801,2.7545,7.9164,1492
479887,-1.0331,3.7984,4.1049,1471
479892,-0.0335,1.8447,13.9929,1467
479897,-2.4134,-2.3104,16.757,1480
479902,-3.6033,2.2697,8.3965,1491
479907,-0.7159,4.0426,3.9193,1469
479912,0.1712,2.2278,12.8892,1471
479917,-2.0243,-2.4708,17.662,1490
479922,-4.0498,1.7681,8.8047,1481
479927,-0.2705,4.2222,3.7912,1469
479932,0.5578,2.5582,11.8477,1479
479937,-1.6029,-2.4445,18.427,1483
479942,-4.3048,1.3144,9.2715,1465
479947,0.3352,4.4173,3.802,1471
479952,0.9673,2.7964,10.9535,1491
479957,-1.1133,-2.4205,19.0171,1462
479962,-4.4161,0.8487,9.7252,1479
479967,0.9577,4.5981,3.8666,1490
479972,1.4748,3.037,10.1682,1483
479977,-0.7063,-2.2601,19.5475,1465
479982,-4.3742,0.4238,10.155,1480
479987,1.3659,4.7669,4.0857,1486
479992,1.9297,3.14,9.4679,1477
479997,-0.2298,-2.1117,19.7785,1470
480002,-4.2832,0.0311,10.556,1493
480007,1.4928,4.8483,4.3539,1483
480012,2.1524,3.2118,8.7484,1479
480017,0.1329,-1.901,20.0586,1477
480022,-4.1863,-0.3292,11.0492,1487
480027,1.3827,4.974,4.6687,1471
480032,2.1069,3.1723,8.0721,1479
480037,0.4082,-1.5993,20.0227,1487
480042,-4.1839,-0.668,11.5077,1470
480047,1.0523,4.9799,5.0111,1461
480052,1.7107,3.1951,7.4567,1491
480057,0.5315,-1.1923,19.8599,1481
480062,-4.0426,-0.9134,12.0524,1469
480067,0.5507,4.9392,5.3247,1487
480072,1.1049,3.2453,6.7995,1487
480077,0.5638,-0.7961,19.3894,1471
480082,-3.8822,-1.2139,12.6139,1471
480087,0.0826,4.7573,5.8059,1471
480092,0.5171,3.286,6.2453,1481
480097,0.6081,-0.2119,18.7406,1483
480102,-3.7529,-1.4808,13.1909,1477
480107,-0.5794,4.4975,6.1998,1451
480112,-0.1113,3.2382,5.6192,1467
480117,0.5471,0.3424,17.8129,1480
480122,-3.6679,-1.6819,13.8505,1487
480127,-1.2438,4.1515,6.6595,1481
480132,-0.7015,3.3411,5.1571,1469
480137,0.4992,0.8475,16.8779,1492
480142,-3.4333,-1.9309,14.6046,1471
480147,-1.9704,3.7146,7.0976,1481
480152,-1.1205,3.383,4.7561,1468
480157,0.2789,1.3168,15.8329,1493
480162,-3.1987,-2.1009,15.4306,1495
480167,-2.5857,3.2813,7.5609,1479
480172,-1.3635,3.5698,4.3251,1489
480177,0.085,1.7418,14.8057,1481
480182,-2.9066,-2.2817,16.2171,1483
480187,-3.1544,2.7677,7.999,1484
480192,-1.3216,3.7709,4.0773,1479
480197,0.0359,2.0506,13.8768,1467
480202,-2.5307,-2.3475,16.945,1479
480207,-3.6488,2.3188,8.3737,1491
480212,-0.9122,3.9349,3.7338,1469
480217,0.1808,2.4265,12.7599,1469
480222,-2.0961,-2.3679,17.7207,1489
480227,-3.9109,1.8747,8.8969,1484
480232,-0.31,4.2282,3.6931,1471
480237,0.4896,2.6181,11.8537,1481
480242,-1.6221,-2.4301,18.3587,1484
480247,-4.0845,1.4102,9.165,1467
480252,0.3005,4.3539,3.6811,1477
480257,0.8308,2.7749,11.0804,1496
480262,-1.2677,-2.4433,18.9166,1471
480267,-4.2006,1.0163,9.6091,1467
480272,0.8033,4.6029,3.8295,1479
480277,1.2629,2.8252,10.4758,1485
480282,-0.8068,-2.5211,19.3236,1465
480287,-4.288,0.6045,9.9563,1469
480292,1.1791,4.7657,4.0067,1493
480297,1.549,2.8922,9.7995,1480
480302,-0.4357,-2.3367,19.7019,1468
480307,-4.4281,0.1844,10.4591,1480
480312,1.5024,4.8722,4.3012,1481
480317,1.8878,2.9951,9.0214,1483
480322,-0.1496,-1.9944,19.9162,1471
480327,-4.4113,-0.1856,10.8386,1485
480332,1.7083,4.9752,4.6005,1479
480337,1.8196,3.2633,8.4025,1479
480342,0.0359,-1.5909,19.9425,1485
480347,-4.2042,-0.4453,11.2659,1477
480352,1.6089,5.0458,4.8578,1496
480357,1.5167,3.3339,7.8721,1471
480362,0.2646,-1.3874,19.757,1485
480367,-3.9301,-0.6129,11.6526,1467
480372,1.2115,5.0853,5.1356,1490
480377,0.9661,3.3866,7.4328,1495
480382,0.4405,-1.2222,19.4649,1479
480387,-3.7685,-0.8894,12.0871,1469
480392,0.5974,4.8914,5.5414,1483
480397,0.3926,3.4237,6.8642,1487
480402,0.5064,-1.0307,19.0483,1469
480407,-3.7876,-1.1588,12.5947,1479
480412,-0.1041,4.6376,5.9616,1483
480417,-0.1484,3.3651,6.3542,1499
480422,0.431,-0.5219,18.4617,1479
480427,-3.7517,-1.4281,13.2136,1487
480432,-0.6644,4.361,6.3339,1487
480437,-0.5531,3.3112,5.7736,1480
480442,0.346,0.0012,17.7339,1483
480447,-3.7433,-1.6053,13.951,1483
480452,-1.3767,4.0007,6.8115,1481
480457,-0.923,3.401,5.1858,1484
480462,0.2729,0.6093,16.7905,1491
480467,-3.6069,-1.6017,14.6633,1470
480472,-2.1045,3.6859,7.0928,1479
480477,-1.1217,3.6164,4.7357,1480
480482,0.1101,0.9529,15.9298,1485
480487,-3.3052,-1.7214,15.3983,1469
480492,-2.66,3.3196,7.4065,1499
480497,-1.1791,3.7182,4.2605,1483
480502,0.0742,1.2007,15.05,1468
480507,-2.9521,-1.913,16.0914,1469
480512,-3.207,2.8228,7.8374,1486
480517,-0.9529,3.8882,4.063,1466
480522,0.2514,1.4413,14.1629,1477
480527,-2.496,-2.1213,16.8073,1482
480532,-3.6835,2.3391,8.2361,1471
480537,-0.5758,4.0462,3.7828,1477
480542,0.5339,1.8818,13.0173,1471
480547,-2.0638,-2.2613,17.6201,1485
480552,-4.033,1.913,8.7688,1472
480557,-0.1281,4.2617,3.6727,1451
480562,0.8176,2.1871,12.0799,1480
480567,-1.5874,-2.3403,18.3372,1481
480572,-4.2605,1.5155,9.1147,1468
480577,0.4453,4.4448,3.6966,1497
480582,1.1301,2.5343,11.2264,1493
480587,-1.1552,-2.399,18.9501,1464
480592,-4.2246,1.172,9.5852,1463
480597,0.9697,4.5993,3.8331,1491
480602,1.5167,2.8,10.5022,1482
480607,-0.7015,-2.332,19.3787,1463
480612,-4.2246,0.5854,10.0149,1477
480617,1.4042,4.6878,4.0965,1487
480622,1.9573,2.9784,9.7121,1477
480627,-0.3053,-2.0889,19.7582,1466
480632,-4.3694,0.1413,10.4447,1479
480637,1.6185,4.8686,4.3036,1479
480642,2.4098,3.0035,8.8837,1485
480647,0.0156,-1.7538,19.9796,1467
480652,-4.2904,-0.1951,10.9128,1492
480657,1.4413,4.9692,4.6459,1470
480662,2.2494,3.0035,8.1558,1481
480667,0.3376,-1.4928,20.0993,1486
480672,-4.2234,-0.4609,11.4527,1487
480677,1.0451,4.9895,4.9117,1477
480682,1.7657,2.9951,7.5501,1491
480687,0.5614,-1.3384,19.9916,1483
480692,-4.0654,-0.7087,11.9459,1468
480697,0.4992,4.9416,5.3151,1481
480702,1.1983,3.061,7.0054,1493
480707,0.6033,-0.9134,19.5798,1471
480712,-4.033,-1.0487,12.4534,1480
480717,-0.0419,4.8123,5.7353,1484
480722,0.7554,3.0718,6.3817,1479
480727,0.6524,-0.3304,18.9118,1481
480732,-3.9983,-1.342,13.0963,1443
480737,-0.6393,4.634,6.122,1487
480742,0.0706,3.1735,5.7245,1471
480747,0.6955,0.2969,18.0283,1479
480752,-3.8583,-1.5263,13.7703,1501
480757,-1.2821,4.3215,6.5218,1485
480762,-0.6225,3.213,5.2218,1467
480767,0.4884,0.7566,17.1616,1491
480772,-3.5793,-1.7669,14.3736,1483
480777,-1.8375,3.9444,7.0198,1493
480782,-1.1001,3.3351,4.8483,1471
480787,0.3292,1.2486,16.2183,1492
480792,-3.3507,-2.0482,15.0308,1471
480797,-2.478,3.4333,7.4244,1481
480802,-1.324,3.4548,4.5119,1481
480807,0.2251,1.6891,15.1721,1481
480812,-3.1723,-2.2769,15.8352,1467
480817,-3.2262,2.891,7.8506,1479
480822,-1.3168,3.6811,4.2234,1482
480827,0.2394,2.065,13.9965,1469
480832,-2.9125,-2.3475,16.7031,1468
480837,-3.869,2.4409,8.2349,1493
480842,-1.0558,3.8798,4.0259,1469
480847,0.3352,2.3379,13.0999,1469
480852,-2.5367,-2.3475,17.4382,1485
480857,-4.1887,1.9932,8.5545,1490
480862,-0.5255,4.1228,3.7781,1476
480867,0.6261,2.4708,12.378,1480
480872,-2.0482,-2.4325,18.0379,1485
480877,-4.4305,1.5862,8.9699,1478
480882,0.0156,4.2748,3.7014,1477
480887,0.9732,2.648,11.6191,1483
480892,-1.488,-2.4325,18.6101,1479
480897,-4.5203,1.1564,9.3553,1464
480902,0.4633,4.3898,3.7158,1479
480907,1.4712,2.7354,10.6973,1485
480912,-1.0032,-2.3619,19.2063,1463
480917,-4.6304,0.7542,9.8162,1477
480922,0.9062,4.6304,3.9169,1493
480927,1.8878,2.7952,9.9671,1482
480932,-0.5567,-2.2063,19.6624,1465
480937,-4.6543,0.3484,10.0987,1480
480942,1.2857,4.7345,4.0642,1490
480947,2.1632,2.8742,9.25,1481
480952,-0.243,-1.9968,20.0311,1479
480957,-4.6316,0.0658,10.6638,1493
480962,1.4281,4.8746,4.3515,1477
480967,2.3248,2.9437,8.6431,1479
480972,0.0754,-1.7741,20.1053,1471
480977,-4.47,-0.2023,11.0792,1481
480982,1.3348,5.0159,4.6388,1469
480987,2.1811,2.9748,8.0744,1477
480992,0.4214,-1.5143,20.1771,1485
480997,-4.2976,-0.3891,11.4479,1479
481002,0.9325,5.0877,4.9775,1481
481007,1.8723,2.9604,7.4436,1493
481012,0.6584,-1.3288,19.9856,1483
481017,-4.1623,-0.5866,11.874,1469
481022,0.425,5.053,5.3738,1483
481027,1.2713,2.9844,6.8043,1487
481032,0.8404,-1.0163,19.6097,1468
481037,-3.9612,-0.808,12.3397,1477
481042,-0.1185,4.9404,5.7054,1483
481047,0.6021,3.067,6.2979,1483
481052,0.8691,-0.7159,19.0555,1479
481057,-3.8858,-1.0379,12.9155,1485
481062,-0.7602,4.6926,6.116,1485
481067,-0.1281,3.0945,5.7832,1467
481072,0.844,-0.3196,18.3875,1481
481077,-3.7745,-1.1624,13.5236,1486
481082,-1.4353,4.4137,6.4739,1479
481087,-0.7087,3.207,5.2325,1468
481092,0.6835,-0.0156,17.5687,1493
481097,-3.6296,-1.2629,14.2132,1479
481102,-2.0662,4.0749,6.9049,1481
481107,-1.1851,3.3507,4.81,1478
481112,0.5435,0.3436,16.757,1493
481117,-3.45,-1.4365,14.8105,1477
481122,-2.6755,3.7194,7.2125,1471
481127,-1.3767,3.4907,4.3742,1481
481132,0.431,0.7147,15.8688,1483
481137,-3.1256,-1.6424,15.5623,1470
481142,-3.1292,3.2513,7.6579,1481
481147,-1.3467,3.705,4.1025,1482
481152,0.3567,1.0906,14.7878,1471
481157,-2.7677,-1.822,16.2674,1477
481162,-3.5578,2.8072,7.9559,1491
481167,-1.0379,3.9325,3.9181,1469
481172,0.3519,1.5419,13.7667,1471
481177,-2.3367,-2.1308,17.0431,1483
481182,-3.8678,2.2757,8.3354,1487
481187,-0.5734,4.0857,3.7649,1477
481192,0.4932,1.9225,12.803,1477
481197,-1.9884,-2.32,17.7662,1489
481202,-4.2114,1.7394,8.8394,1479
481207,0.0012,4.2988,3.7314,1469
481212,0.8499,2.3355,11.9279,1483
481217,-1.5838,-2.4277,18.318,1477
481222,-4.4736,1.2701,9.1782,1478
481227,0.674,4.4975,3.7852,1481
481232,1.2318,2.7078,11.0385,1484
481237,-1.1815,-2.4157,18.9992,1465
481242,-4.5669,0.917,9.6438,1468
481247,1.2115,4.7214,3.9516,1491
481252,1.6735,2.8683,10.2723,1477
481257,-0.7542,-2.3882,19.4708,1464
481262,-4.4676,0.4681,9.9874,1481
481267,1.6664,4.8542,4.1659,1485
481272,1.9369,3.043,9.6726,1477
481277,-0.3065,-2.1679,19.7761,1469
481282,-4.452,0.1149,10.3382,1487
481287,1.8232,4.9656,4.4005,1477
481292,2.2398,3.14,9.0142,1480
481297,0.0335,-1.9405,19.8599,1479
481302,-4.44,-0.2849,10.7751,1485
481307,1.7717,4.9919,4.6819,1477
481312,2.1237,3.2705,8.4886,1479
481317,0.3041,-1.6053,19.8922,1485
481322,-4.3778,-0.5926,11.2707,1467
481327,1.4533,4.9428,4.9883,1478
481332,1.8962,3.2645,7.8434,1493
481337,0.5243,-1.3096,19.733,1481
481342,-4.2725,-0.9445,11.7352,1469
481347,0.9242,4.8662,5.3738,1483
481352,1.3946,3.2896,7.2173,1490
481357,0.6345,-0.7985,19.4469,1480
481362,-4.227,-1.1995,12.3014,1470
481367,0.1951,4.6591,5.7102,1483
481372,0.8332,3.3124,6.5781,1477
481377,0.5866,-0.2586,18.901,1477
481382,-4.0606,-1.4449,12.9658,1485
481387,-0.4836,4.4113,6.2237,1485
481392,0.1161,3.3124,5.9484,1471
481397,0.5974,0.407,18.0499,1481
481402,-3.869,-1.6149,13.6386,1489
481407,-1.2701,4.1084,6.5493,1479
481412,-0.5076,3.3926,5.3834,1469
481417,0.5375,0.893,17.1102,1493
481422,-3.6775,-1.8519,14.4023,1483
481427,-2.0375,3.7338,6.9647,1481
481432,-0.9936,3.3603,4.8004,1477
481437,0.4465,1.4102,16.1106,1492
481442,-3.4524,-2.0746,15.1026,1467
481447,-2.715,3.2489,7.4196,1480
481452,-1.2414,3.4225,4.3958,1487
481457,0.4142,1.8375,15.0811,1478
481462,-3.1963,-2.2769,15.9717,1471
481467,-3.3651,2.7964,7.8446,1481
481472,-1.2234,3.6069,4.1013,1479
481477,0.4992,2.2613,13.9929,1470
481482,-2.9042,-2.3846,16.7822,1479
481487,-3.9421,2.3164,8.2612,1489
481492,-0.929,3.8044,3.9073,1470
481497,0.5914,2.496,13.0831,1471
481502,-2.5462,-2.4888,17.5818,1485
481507,-4.3024,1.8088,8.5748,1485
481512,-0.4465,4.027,3.7804,1469
481517,0.8619,2.7749,12.141,1471
481522,-2.0626,-2.5019,18.239,1479
481527,-4.604,1.3767,9.019,1471
481532,0.1844,4.2234,3.7697,1467
481537,1.4042,2.9904,11.2958,1483
481542,-1.5921,-2.4768,18.8891,1471
481547,-4.8267,0.9098,9.4104,1469
481552,0.8499,4.4173,3.7888,1481
481557,1.9609,2.9928,10.5345,1489
481562,-1.1157,-2.3355,19.4301,1465
481567,-4.9057,0.5507,9.8031,1471
481572,1.3216,4.6495,3.9409,1493
481577,2.3954,2.97,9.7899,1479
481582,-0.65,-2.2386,19.8599,1465
481587,-4.9093,0.17,10.161,1480
481592,1.5407,4.7525,4.2006,1483
481597,2.5414,2.9544,9.1147,1478
481602,-0.2682,-2.0327,20.1293,1467
481607,-4.9045,-0.1401,10.6326,1491
481612,1.5933,4.968,4.4341,1471
481617,2.5965,3.067,8.5605,1483
481622,0.1257,-1.7526,20.2585,1481
481627,-4.8303,-0.3543,11.0038,1482
481632,1.4676,5.0278,4.7537,1477
481637,2.308,3.2046,7.9942,1481
481642,0.4178,-1.4712,20.1412,1482
481647,-4.6555,-0.5662,11.485,1467
481652,1.0882,5.0589,4.9955,1482
481657,1.8304,3.2633,7.4029,1493
481662,0.6752,-1.1516,19.8563,1480
481667,-4.4137,-0.8727,11.977,1467
481672,0.6189,4.9213,5.4265,1479
481677,1.239,3.2477,6.8307,1479
481682,0.8212,-0.735,19.3739,1469
481687,-4.2461,-1.1588,12.4882,1471
481692,0.0419,4.6998,5.8059,1483
481697,0.5148,3.2358,6.2094,1468
481702,0.8811,-0.2454,18.6891,1471
481707,-4.1899,-1.4365,13.1286,1485
481712,-0.7326,4.4293,6.1998,1484
481717,-0.1448,3.2669,5.6886,1469
481722,0.8751,0.2274,17.9613,1479
481727,-4.0701,-1.6041,13.7595,1491
481732,-1.4952,4.1647,6.5721,1479
481737,-0.832,3.371,5.1332,1471
481742,0.7051,0.5997,17.1138,1496
481747,-3.8678,-1.7514,14.5496,1481
481752,-2.2242,3.7864,6.9396,1481
481757,-1.2857,3.4836,4.719,1477
481762,0.5746,1.0104,16.265,1487
481767,-3.6081,-1.901,15.2559,1467
481772,-2.8347,3.377,7.2652,1479
481777,-1.3587,3.6595,4.294,1486
481782,0.4597,1.4269,15.3516,1479
481787,-3.2214,-2.0446,15.9358,1479
481792,-3.3076,2.8898,7.7417,1485
481797,-1.1564,3.7493,3.9756,1478
481802,0.5483,1.8687,14.2706,1477
481807,-2.8455,-2.2577,16.6457,1477
481812,-3.8223,2.4098,8.102,1491
481817,-0.8284,3.9636,3.7852,1469
481822,0.8104,2.1763,13.2495,1471
481827,-2.4445,-2.3655,17.5375,1491
481832,-4.2114,1.9309,8.4767,1490
481837,-0.2538,4.1324,3.6679,1469
481842,1.1372,2.4481,12.3218,1479
481847,-2.0614,-2.5043,18.3025,1481
481852,-4.47,1.4796,8.8909,1471
481857,0.3759,4.3335,3.6919,1471
481862,1.4593,2.6959,11.6346,1493
481867,-1.6245,-2.5762,18.8005,1471
481872,-4.6735,1.0451,9.2273,1471
481877,0.8751,4.5011,3.7517,1483
481882,1.8998,2.8814,10.9343,1489
481887,-1.1935,-2.5235,19.3056,1463
481892,-4.7836,0.7147,9.6486,1470
481897,1.3228,4.7369,3.9672,1489
481902,2.3379,3.0478,10.1634,1481
481907,-0.7111,-2.3954,19.7953,1465
481912,-4.7812,0.3484,10.0365,1481
481917,1.6436,4.9656,4.136,1485
481922,2.5881,3.1436,9.4894,1479
481927,-0.1939,-2.2565,20.1436,1471
481932,-4.6412,-0.006,10.392,1492
481937,1.6747,5.0099,4.4113,1470
481942,2.5774,3.1735,8.8202,1481
481947,0.1712,-1.9321,20.1532,1482
481952,-4.6029,-0.3316,10.8122,1479
481957,1.506,5.0075,4.7333,1471
481962,2.3966,3.2657,8.3055,1479
481967,0.5004,-1.6089,20.0981,1487
481972,-4.5921,-0.7075,11.2803,1469
481977,1.1744,4.9392,5.0398,1470
481982,1.9549,3.231,7.6279,1497
481987,0.7422,-1.1744,19.7797,1479
481992,-4.5622,-1.0116,11.8716,1472
481997,0.5818,4.8339,5.4827,1480
482002,1.2857,3.2872,7.039,1485
482007,0.8188,-0.5974,19.3416,1477
482012,-4.4867,-1.2977,12.4403,1477
482017,-0.0587,4.6376,5.8012,1484
482022,0.6033,3.3363,6.3147,1469
482027,0.8667,-0.0563,18.7334,1481
482032,-4.3682,-1.4653,13.1142,1490
482037,-0.7925,4.4281,6.2046,1487
482042,-0.1125,3.4405,5.7485,1479
482047,0.8535,0.4154,17.9577,1478
482052,-4.1575,-1.7214,13.8074,1481
482057,-1.5981,4.0378,6.5517,1481
482062,-0.6452,3.45,5.0996,1469
482067,0.8404,0.9206,16.9545,1497
482072,-3.9373,-1.9154,14.6597,1478
482077,-2.3559,3.5925,6.9791,1483
482082,-1.0463,3.5063,4.6352,1479
482087,0.8499,1.3683,15.9119,1487
482092,-3.6117,-2.1009,15.427,1463
482097,-3.0873,3.1783,7.3753,1465
482102,-1.2055,3.6416,4.1815,1483
482107,0.8356,1.7394,14.9889,1477
482112,-3.3627,-2.2422,16.2075,1435
482117,-3.6152,2.721,7.7728,1492
482122,-1.0738,3.7888,3.8762,1479
482127,0.8499,2.0626,14.0719,1469
482132,-3.0071,-2.4229,16.921,1477
482137,-4.1767,2.2769,8.181,1477
482142,-0.6764,4.0151,3.7469,1469
482147,1.0558,2.3403,13.1753,1480
482152,-2.5618,-2.4948,17.7506,1507
482157,-4.4831,1.8759,8.4755,1485
482162,-0.1484,4.2329,3.6308,1477
482167,1.3743,2.557,12.2284,1480
482172,-2.0566,-2.478,18.4138,1485
482177,-4.6914,1.4269,8.916,1479
482182,0.4322,4.4424,3.6787,1481
482187,1.7322,2.7473,11.4586,1491
482192,-1.5562,-2.5211,19.0207,1469
482197,-4.8339,0.9421,9.2273,1477
482202,1.0618,4.5933,3.7242,1487
482207,2.2541,2.9149,10.6817,1501
482212,-1.0151,-2.4337,19.5056,1463
482217,-4.9165,0.5686,9.657,1481
482222,1.4461,4.7369,3.9253,1492
482227,2.5426,2.9832,9.9359,1483
482232,-0.5495,-2.3032,19.8264,1465
482237,-4.944,0.1604,10.0233,1481
482242,1.6316,4.859,4.1839,1491
482247,2.7066,3.0347,9.323,1481
482252,-0.1736,-2.0446,20.1664,1477
482257,-4.9476,-0.1353,10.5369,1485
482262,1.6293,4.9871,4.5107,1477
482267,2.6564,3.1771,8.7029,1477
482272,0.2083,-1.7693,20.249,1481
482277,-4.8327,-0.4381,10.9331,1481
482282,1.3922,5.0135,4.7417,1479
482287,2.3511,3.231,8.0074,1485
482292,0.5219,-1.4293,20.1987,1483
482297,-4.7549,-0.7135,11.4179,1479
482302,0.9613,4.9859,5.0422,1516
482307,1.8926,3.3351,7.3706,1495
482312,0.7901,-0.9529,19.8216,1481
482317,-4.5753,-1.0068,11.9435,1469
482322,0.3735,4.8674,5.4217,1483
482327,1.1504,3.3243,6.7708,1483
482332,0.9756,-0.5219,19.2997,1478
482337,-4.4113,-1.227,12.5588,1484
482342,-0.3651,4.6495,5.8179,1485
482347,0.3591,3.2944,6.0621,1469
482352,1.0139,-0.1305,18.6891,1479
482357,-4.2318,-1.4605,13.1729,1499
482362,-1.0918,4.4209,6.2429,1487
482367,-0.4513,3.3064,5.5677,1470
482372,0.9242,0.2442,17.9254,1480
482377,-4.1396,-1.6101,13.8002,1491
482382,-1.8316,4.118,6.5589,1480
482387,-1.057,3.4213,5.0661,1477
482392,0.8332,0.5423,17.097,1499
482397,-3.9241,-1.7095,14.5675,1483
482402,-2.4912,3.7781,6.9228,1485
482407,-1.318,3.6081,4.6388,1471
482412,0.8631,0.8799,16.2435,1491
482417,-3.6871,-1.8232,15.3588,1449
482422,-3.1675,3.3387,7.2652,1483
482427,-1.4078,3.7302,4.148,1487
482432,0.8775,1.2845,15.2355,1479
482437,-3.3351,-2.0291,16.198,1469
482442,-3.6727,2.8635,7.6926,1491
482447,-1.2067,3.8654,3.8798,1476
482452,1.0044,1.6939,14.1425,1483
482457,-2.8527,-2.229,16.9366,1479
482462,-4.118,2.3391,8.108,1487
482467,-0.747,4.0259,3.6476,1469
482472,1.3001,2.1261,13.0915,1483
482477,-2.4301,-2.4038,17.7877,1483
482482,-4.4784,1.8687,8.4791,1483
482487,-0.1592,4.1851,3.6045,1456
482492,1.658,2.3798,12.0368,1461
482497,-2.0195,-2.4684,18.6425,1480
482502,-4.6567,1.3779,8.9232,1479
482507,0.4609,4.446,3.5674,1502
482512,2.0686,2.6348,11.224,1493
482517,-1.5562,-2.4648,19.2865,1477
482522,-4.8435,0.9026,9.2955,1477
482527,1.0343,4.5945,3.7457,1527
482532,2.4433,2.8323,10.4806,1482
482537,-1.1253,-2.4062,19.8324,1465
482542,-4.883,0.5962,9.7336,1471
482547,1.4162,4.8159,3.9121,1487
482552,2.7473,2.9832,9.8198,1477
482557,-0.6165,-2.2781,20.1077,1469
482562,-4.9057,0.1903,10.1586,1493
482567,1.658,4.9273,4.1695,1481
482572,2.9018,3.1304,9.1147,1480
482577,-0.1939,-1.9357,20.3567,1465
482582,-4.9189,-0.255,10.6135,1491
482587,1.6436,4.9392,4.5262,1469
482592,2.8455,3.1711,8.4288,1479
482597,0.2406,-1.5227,20.3208,1487
482602,-4.938,-0.7195,11.0433,1477
482607,1.4066,4.9177,4.9692,1515
482612,2.5379,3.1544,7.7752,1483
482617,0.5986,-1.0534,20.0514,1483
482622,-4.8782,-0.9864,11.5831,1471
482627,0.8966,4.883,5.2218,1487
482632,1.8818,3.2346,7.1383,1492
482637,0.8236,-0.6033,19.6887,1471
482642,-4.8973,-1.2426,12.2595,1470
482647,0.2215,4.7896,5.6575,1480
482652,1.0331,3.2453,6.5422,1481
482657,1.0151,-0.2514,19.0614,1477
482662,-4.8507,-1.4688,12.8114,1479
482667,-0.4238,4.5466,5.952,1487
482672,0.401,3.3411,5.9652,1467
482677,1.0223,0.316,18.2929,1479
482682,-4.6711,-1.6747,13.4674,1484
482687,-1.1253,4.2557,6.353,1484
482692,-0.2442,3.371,5.4983,1469
482697,1.0247,0.8272,17.4729,1478
482702,-4.458,-1.8543,14.1366,1439
482707,-1.8854,3.8798,6.7457,1481
482712,-0.6835,3.4141,4.9716,1471
482717,1.0726,1.245,16.5356,1493
482722,-4.1767,-1.9609,14.9518,1479
482727,-2.642,3.5279,7.112,1481
482732,-1.081,3.5326,4.476,1471
482737,1.1121,1.5814,15.5025,1490
482742,-3.8427,-2.1859,15.7407,1469
482747,-3.3399,3.0239,7.4843,1483
482752,-1.1612,3.6524,4.13,1483
482757,1.1205,1.9046,14.5711,1469
482762,-3.4512,-2.32,16.5655,1467
482767,-3.8475,2.5666,7.9057,1491
482772,-0.9206,3.7541,3.8199,1469
482777,1.2234,2.1979,13.6314,1470
482782,-3.134,-2.4181,17.3137,1472
482787,-4.367,2.1548,8.2995,1492
482792,-0.4908,4.0055,3.6559,1469
482797,1.4449,2.4289,12.712,1481
482802,-2.6803,-2.4756,18.1193,1489
482807,-4.6352,1.7717,8.6323,1481
482812,0.0934,4.227,3.5458,1477
482817,1.7705,2.6073,11.8489,1481
482822,-2.1751,-2.4768,18.7705,1484
482827,-4.8123,1.3372,9.0333,1471
482832,0.7147,4.4532,3.6811,1480
482837,2.2254,2.7809,11.1534,1519
482842,-1.6328,-2.49,19.3296,1465
482847,-4.9919,0.8152,9.2895,1471
482852,1.2605,4.6148,3.7733,1494
482857,2.6037,2.9784,10.4184,1485
482862,-1.136,-2.3774,19.8216,1468
482867,-5.0601,0.3388,9.742,1477
482872,1.6293,4.7609,3.9863,1493
482877,2.8683,3.1352,9.7145,1471
482882,-0.6728,-2.1943,20.0909,1467
482887,-5.1655,-0.073,10.1275,1486
482892,1.8771,4.8447,4.2246,1485
482897,2.976,3.1867,9.1662,1469
482902,-0.1987,-1.9405,20.316,1471
482907,-5.0985,-0.3543,10.5752,1490
482912,1.7526,4.8926,4.4987,1477
482917,2.7952,3.2645,8.5413,1471
482922,0.1712,-1.5909,20.2801,1491
482927,-5.0637,-0.7015,11.072,1469
482932,1.3958,4.9297,4.8483,1467
482937,2.3978,3.2789,7.9416,1485
482942,0.4729,-1.1959,20.1376,1479
482947,-4.9596,-0.9577,11.5544,1471
482952,0.9517,4.8806,5.1894,1468
482957,1.8567,3.3064,7.2951,1495
482962,0.7733,-0.6584,19.727,1471
482967,-4.8423,-1.2115,12.1362,1476
482972,0.2969,4.7968,5.5258,1497
482977,1.0989,3.3232,6.5805,1483
482982,1.0223,-0.2047,19.1488,1477
482987,-4.6651,-1.4521,12.7623,1479
482992,-0.407,4.5645,5.861,1481
482997,0.3328,3.3064,5.9652,1467
483002,1.0858,0.2574,18.433,1479
483007,-4.4724,-1.664,13.4375,1487
483012,-1.2139,4.2916,6.3327,1486
483017,-0.5399,3.3028,5.3247,1465
483022,1.0546,0.7266,17.5902,1482
483027,-4.3024,-1.9022,14.1018,1487
483032,-1.8986,3.8654,6.7301,1471
483037,-0.9553,3.2956,4.8387,1471
483042,0.984,1.1827,16.6493,1491
483047,-4.0869,-2.0734,14.9087,1482
483052,-2.6336,3.4872,7.1527,1470
483057,-1.3048,3.48,4.4472,1471
483062,0.9984,1.5479,15.5551,1485
483067,-3.9097,-2.1668,15.7419,1468
483072,-3.2465,3.1005,7.4843,1483
483077,-1.2665,3.6931,4.1096,1483
483082,1.0367,1.8794,14.5496,1469
483087,-3.4943,-2.2362,16.587,1465
483092,-3.7266,2.6145,7.8721,1493
483097,-0.9888,3.8331,3.7745,1477
483102,1.1911,2.1404,13.6458,1471
483107,-3.1017,-2.3116,17.3185,1454
483112,-4.136,2.2302,8.2875,1487
483117,-0.51,3.9851,3.5877,1469
483122,1.3982,2.3703,12.8186,1479
483127,-2.6133,-2.4517,18.0056,1493
483132,-4.3922,1.7514,8.6227,1483
483137,0.0658,4.1707,3.5674,1471
483142,1.6879,2.5438,11.9746,1477
483147,-2.1524,-2.5043,18.6736,1482
483152,-4.6663,1.3132,9.0333,1471
483157,0.6919,4.3993,3.6655,1480
483162,2.1141,2.6719,11.1833,1491
483167,-1.7466,-2.5307,19.223,1465
483172,-4.804,0.899,9.2931,1470
483177,1.1983,4.6184,3.7984,1481
483182,2.4744,2.8036,10.483,1483
483187,-1.2785,-2.3978,19.8384,1461
483192,-4.9141,0.5016,9.7504,1478
483197,1.6209,4.7681,3.9828,1494
483202,2.7641,2.9652,9.8545,1480
483207,-0.7877,-2.2314,20.0766,1468
483212,-4.9752,0.1748,10.137,1485
483217,1.81,4.9452,4.2114,1483
483222,2.8431,3.0909,9.2213,1482
483227,-0.3376,-1.9824,20.2933,1469
483232,-4.9692,-0.1784,10.5943,1484
483237,1.7549,5.0182,4.476,1465
483242,2.8072,3.1615,8.5305,1471
483247,0.0934,-1.6867,20.3064,1479
483252,-4.8914,-0.5303,10.9463,1480
483257,1.5407,5.041,4.7692,1471
483262,2.4481,3.1436,7.8805,1483
483267,0.48,-1.2629,20.1939,1485
483272,-4.8746,-0.8835,11.479,1470
483277,1.0211,4.9129,5.114,1477
483282,1.992,3.1388,7.197,1483
483287,0.7254,-0.7733,19.8348,1477
483292,-4.859,-1.239,12.0823,1465
483297,0.3867,4.8135,5.5677,1478
483302,1.2953,3.1735,6.5841,1483
483307,0.978,-0.2418,19.2195,1477
483312,-4.853,-1.4054,12.712,1471
483317,-0.3543,4.6148,5.9376,1481
483322,0.4944,3.2573,6.0023,1469
483327,1.087,0.2191,18.4342,1481
483332,-4.7525,-1.6257,13.5165,1483
483337,-1.1648,4.3622,6.3099,1485
483342,-0.1903,3.322,5.3702,1470
483347,1.0977,0.7099,17.692,1477
483352,-4.5035,-1.743,14.115,1478
483357,-1.8639,4.0199,6.6463,1479
483362,-0.7458,3.4357,4.8662,1469
483367,1.0678,1.1959,16.7127,1495
483372,-4.2868,-1.9297,14.8692,1461
483377,-2.5355,3.6296,7.0725,1471
483382,-1.087,3.5506,4.4604,1481
483387,1.0534,1.5251,15.6581,1493
483392,-3.9133,-2.1703,15.6054,1469
483397,-3.1723,3.1328,7.4065,1483
483402,-1.1277,3.5949,4.0857,1481
483407,1.1037,1.9022,14.6944,1471
483412,-3.5889,-2.3403,16.4661,1471
483417,-3.7409,2.6228,7.835,1491
483422,-0.8966,3.7984,3.8403,1471
483427,1.306,2.2039,13.6098,1467
483432,-3.213,-2.4385,17.2933,1471
483437,-4.3299,2.1356,8.26,1483
483442,-0.4657,4.0103,3.6811,1477
483447,1.6472,2.3691,12.7683,1478
483452,-2.7653,-2.4469,18.0906,1485
483457,-4.6843,1.6927,8.6455,1483
483462,0.1329,4.2162,3.5506,1477
483467,1.9956,2.5774,11.795,1483
483472,-2.2661,-2.5175,18.7981,1481
483477,-4.865,1.2713,9.0214,1479
483482,0.7338,4.4688,3.6751,1467
483487,2.2996,2.7976,11.0732,1491
483492,-1.7071,-2.399,19.3499,1467
483497,-5.0087,0.7973,9.3757,1481
483502,1.2893,4.64,3.7924,1487
483507,2.7054,2.9461,10.2819,1480
483512,-1.245,-2.2972,19.9449,1463
483517,-5.1631,0.3591,9.7959,1479
483522,1.7298,4.7944,4.039,1483
483527,3.0598,3.0083,9.6738,1471
483532,-0.7135,-2.053,20.1939,1468
483537,-5.2397,-0.0934,10.1287,1493
483542,1.9309,4.9189,4.2485,1483
483547,3.1711,3.0502,9.007,1483
483552,-0.2298,-1.913,20.3878,1478
483557,-5.3044,-0.3591,10.6015,1491
483562,1.7633,5.0039,4.4712,1479
483567,3.0335,3.1627,8.3653,1490
483572,0.2741,-1.5383,20.3567,1485
483577,-5.2277,-0.6823,11.1067,1479
483582,1.3467,4.9692,4.8806,1463
483587,2.5055,3.1999,7.7081,1485
483592,0.595,-1.1181,20.2095,1482
483597,-5.138,-0.9266,11.6598,1471
483602,0.7649,4.9249,5.2469,1471
483607,1.8531,3.2406,7.0725,1493
483612,0.893,-0.5782,19.7174,1471
483617,-5.0182,-1.2198,12.1997,1471
483622,0.1496,4.8028,5.624,1484
483627,1.0798,3.2609,6.4931,1479
483632,1.148,-0.079,19.0854,1481
483637,-4.8123,-1.4246,12.8293,1479
483642,-0.6416,4.5167,5.9855,1485
483647,0.2945,3.2753,5.8335,1465
483652,1.2414,0.3567,18.2103,1471
483657,-4.6795,-1.6221,13.6062,1491
483662,-1.4114,4.2258,6.4524,1483
483667,-0.4465,3.3004,5.2744,1467
483672,1.306,0.7362,17.3029,1479
483677,-4.4568,-1.8148,14.2563,1483
483682,-2.1775,3.8906,6.8019,1479
483687,-1.0307,3.3662,4.7417,1472
483692,1.2414,1.1923,16.4338,1493
483697,-4.215,-2.0339,15.0978,1469
483702,-2.8826,3.4752,7.2365,1481
483707,-1.3072,3.5063,4.3132,1479
483712,1.2737,1.5359,15.3277,1486
483717,-3.8642,-2.0782,15.9394,1469
483722,-3.5279,3.0562,7.5262,1471
483727,-1.3084,3.6559,4.0115,1483
483732,1.3012,1.7873,14.2575,1467
483737,-3.553,-2.1727,16.8037,1469
483742,-4.0127,2.6085,7.865,1495
483747,-1.0032,3.863,3.7326,1469
483752,1.4269,2.0267,13.3249,1471
483757,-3.1568,-2.2637,17.5746,1479
483762,-4.4137,2.2039,8.2839,1495
483767,-0.4752,4.0282,3.6212,1467
483772,1.7023,2.2793,12.4594,1477
483777,-2.6755,-2.3272,18.3288,1486
483782,-4.7285,1.7286,8.6503,1479
483787,0.1939,4.2138,3.4919,1477
483792,2.0985,2.4373,11.631,1481
483797,-2.2146,-2.4193,18.9645,1481
483802,-4.9333,1.2582,9.0585,1467
483807,0.7913,4.4029,3.5949,1477
483812,2.4744,2.5893,10.896,1485
483817,-1.7119,-2.3379,19.5487,1467
483822,-5.1248,0.7829,9.4032,1478
483827,1.2857,4.5023,3.8307,1491
483832,2.7892,2.7725,10.1299,1479
483837,-1.3024,-2.2338,20.0383,1465
483842,-5.1882,0.3759,9.8378,1481
483847,1.7011,4.7429,4.057,1493
483852,3.0347,2.9425,9.5648,1477
483857,-0.838,-1.9884,20.3519,1467
483862,-5.2529,-0.0096,10.1502,1485
483867,1.9273,4.8758,4.2856,1478
483872,3.0873,3.073,8.9711,1479
483877,-0.3208,-1.7921,20.4968,1477
483882,-5.1439,-0.2682,10.5943,1485
483887,1.822,4.9464,4.5478,1475
483892,2.9353,3.1208,8.3546,1465
483897,0.1508,-1.5359,20.401,1484
483902,-5.0841,-0.5722,10.9918,1480
483907,1.5359,4.9524,4.8554,1469
483912,2.5558,3.1568,7.7728,1483
483917,0.5399,-1.1121,20.2178,1485
483922,-5.0051,-0.8715,11.5161,1470
483927,1.0451,4.8926,5.2098,1471
483932,2.0004,3.1759,7.1036,1497
483937,0.8176,-0.6835,19.806,1470
483942,-5.053,-1.2534,12.0548,1465
483947,0.2993,4.7585,5.6108,1485
483952,1.2055,3.1663,6.5254,1481
483957,1.0259,-0.2382,19.2805,1477
483962,-4.9811,-1.3994,12.7168,1479
483967,-0.4884,4.5526,5.9628,1483
483972,0.4417,3.2777,5.9508,1469
483977,1.0906,0.2993,18.5012,1480
483982,-4.8566,-1.5969,13.4542,1495
483987,-1.142,4.2617,6.3578,1487
483992,-0.2478,3.3627,5.4827,1477
483997,1.0487,0.7614,17.6429,1485
484002,-4.6866,-1.7358,14.0444,1487
484007,-1.81,3.8618,6.669,1481
484012,-0.6812,3.4165,4.889,1478
484017,1.0774,1.2115,16.7259,1495
484022,-4.4029,-2.0075,14.7626,1481
484027,-2.5139,3.474,7.0916,1481
484032,-0.9469,3.4979,4.4999,1471
484037,1.1492,1.634,15.6317,1491
484042,-4.0618,-2.1045,15.5264,1469
484047,-3.2202,3.0502,7.5046,1477
484052,-0.9242,3.5949,4.1707,1477
484057,1.2965,1.9142,14.6621,1471
484062,-3.7757,-2.2757,16.4422,1470
484067,-3.8319,2.5355,7.7405,1493
484072,-0.7278,3.7661,3.8355,1472
484077,1.4425,2.2039,13.6529,1469
484082,-3.3411,-2.3691,17.3029,1471
484087,-4.1982,2.1392,8.1654,1491
484092,-0.3472,3.9397,3.7493,1467
484097,1.5886,2.4373,12.8401,1469
484102,-2.909,-2.4181,17.9876,1483
484107,-4.5777,1.6305,8.5162,1495
484112,0.2442,4.13,3.6607,1471
484117,1.8926,2.7043,12.056,1485
484122,-2.3583,-2.4529,18.6604,1485
484127,-4.8064,1.251,8.8897,1470
484132,0.7889,4.2976,3.7242,1477
484137,2.2817,2.8946,11.2815,1493
484142,-1.8471,-2.4265,19.2051,1467
484147,-4.9249,0.8236,9.2715,1470
484152,1.3587,4.5143,3.8511,1489
484157,2.6827,2.9628,10.6183,1483
484162,-1.3886,-2.2458,19.7354,1464
484167,-5.0494,0.3687,9.5948,1481
484172,1.7741,4.6639,4.033,1487
484177,3.0658,3.1125,9.827,1479
484182,-0.8559,-2.1129,20.1221,1468
484187,-5.126,0.0072,9.9611,1483
484192,1.9357,4.7369,4.3203,1483
484197,3.1316,3.1603,9.1542,1487
484202,-0.3615,-1.8232,20.2921,1469
484207,-5.1799,-0.3256,10.489,1491
484212,1.7897,4.8219,4.543,1470
484217,2.9281,3.2178,8.5605,1481
484222,0.0766,-1.5191,20.3184,1487
484227,-5.1487,-0.5974,10.9714,1481
484232,1.4461,4.8542,4.8662,1477
484237,2.5606,3.2717,7.9619,1481
484242,0.4477,-1.075,20.152,1484
484247,-5.0985,-0.8847,11.4467,1468
484252,0.9577,4.7968,5.2517,1479
484257,1.9644,3.3016,7.3011,1495
484262,0.7266,-0.6249,19.7809,1479
484267,-5.0147,-1.1696,12.0213,1470
484272,0.3136,4.6495,5.6048,1483
484277,1.1911,3.2573,6.6631,1491
484282,0.9613,-0.1185,19.1835,1483
484287,-4.8303,-1.4042,12.6174,1479
484292,-0.3819,4.452,5.9628,1485
484297,0.4717,3.2944,6.0178,1478
484302,1.1037,0.3998,18.3456,1481
484307,-4.6914,-1.6149,13.3213,1490
484312,-1.154,4.1755,6.3506,1487
484317,-0.2598,3.2896,5.448,1469
484322,1.1744,0.8416,17.4501,1479
484327,-4.4903,-1.822,14.0001,1485
484332,-2.0099,3.8547,6.7301,1479
484337,-0.8811,3.3339,4.8866,1479
484342,1.1648,1.3001,16.6194,1493
484347,-4.2748,-1.9968,14.8584,1479
484352,-2.6612,3.4165,7.0856,1483
484357,-1.2055,3.4417,4.4293,1480
484362,1.0822,1.7131,15.5875,1486
484367,-4.0103,-2.1859,15.6102,1467
484372,-3.2382,2.9616,7.4675,1477
484377,-1.2366,3.6033,4.1791,1481
484382,1.0175,2.0985,14.6573,1470
484387,-3.6655,-2.2517,16.3919,1469
484392,-3.7601,2.4888,7.8195,1487
484397,-0.978,3.7122,3.9253,1464
484402,1.1372,2.3954,13.5979,1471
484407,-3.2513,-2.3439,17.2179,1477
484412,-4.1743,2.071,8.1558,1491
484417,-0.4561,3.9217,3.7469,1471
484422,1.5024,2.5833,12.736,1471
484427,-2.8144,-2.3475,18.0008,1486
484432,-4.5107,1.6017,8.5102,1478
484437,0.1353,4.0654,3.7098,1471
484442,1.9082,2.7138,11.9004,1483
484447,-2.2458,-2.4026,18.7203,1479
484452,-4.7525,1.1696,8.9603,1469
484457,0.6536,4.2018,3.717,1483
484462,2.2326,2.9173,11.1462,1488
484467,-1.7238,-2.399,19.2362,1469
484472,-4.8662,0.6752,9.3003,1469
484477,1.1588,4.361,3.8846,1491
484482,2.5917,3.1053,10.3693,1483
484487,-1.2857,-2.2613,19.7917,1465
484492,-5.0099,0.2777,9.73,1477
484497,1.5897,4.5334,4.1851,1493
484502,2.9161,3.1556,9.7791,1481
484507,-0.8811,-1.968,20.1113,1477
484512,-5.1858,-0.103,10.0652,1491
484517,1.8016,4.6831,4.3802,1485
484522,3.0885,3.2777,9.1099,1481
484527,-0.3926,-1.6388,20.3352,1471
484532,-5.1834,-0.413,10.4962,1491
484537,1.8244,4.7285,4.6783,1469
484542,3.0191,3.3363,8.4827,1483
484547,0.0407,-1.3192,20.2861,1487
484552,-5.1547,-0.7709,10.9702,1471
484557,1.5826,4.7621,4.9943,1479
484562,2.7509,3.3196,7.8985,1483
484567,0.5315,-0.7817,20.0347,1483
484572,-5.1691,-1.0894,11.5281,1466
484577,1.0211,4.6436,5.3415,1477
484582,2.1979,3.2693,7.2568,1493
484587,0.911,-0.261,19.6133,1477
484592,-5.2074,-1.3611,11.9854,1468
484597,0.3627,4.537,5.7018,1479
484602,1.4246,3.2645,6.6487,1484
484607,1.1708,0.2131,19.1093,1477
484612,-5.1392,-1.5862,12.6258,1471
484617,-0.4178,4.3359,6.0609,1483
484622,0.6596,3.3411,6.0454,1469
484627,1.3384,0.6764,18.2989,1471
484632,-5.0278,-1.7777,13.4195,1493
484637,-1.2689,4.0127,6.4787,1485
484642,-0.0994,3.3758,5.4983,1479
484647,1.4138,1.1265,17.4561,1479
484652,-4.8375,-1.9213,14.1186,1485
484657,-2.0243,3.6787,6.7528,1479
484662,-0.6357,3.4285,4.944,1470
484667,1.4269,1.5993,16.508,1493
484672,-4.5909,-2.0267,14.9865,1479
484677,-2.8874,3.3208,7.1467,1481
484682,-0.9481,3.4931,4.4688,1479
484687,1.6592,1.9369,15.4462,1485
484692,-4.1887,-2.2158,15.7335,1467
484697,-3.6224,2.8192,7.5082,1480
484702,-0.9864,3.6093,4.0917,1481
484707,1.9537,2.3403,14.3676,1471
484712,-3.8008,-2.3786,16.7055,1471
484717,-4.1623,2.2972,7.8997,1491
484722,-0.7829,3.7362,3.8128,1469
484727,2.0889,2.7461,13.2136,1479
484732,-3.4273,-2.5271,17.656,1479
484737,-4.7022,1.8004,8.2468,1490
484742,-0.3364,3.8295,3.7864,1468
484747,2.3834,3.0323,12.3696,1471
484752,-3.0418,-2.6456,18.427,1489
484757,-5.0398,1.3156,8.6012,1483
484762,0.2562,4.0414,3.717,1471
484767,2.727,3.1831,11.661,1477
484772,-2.5666,-2.6169,19.0602,1481
484777,-5.3451,0.9924,8.8909,1479
484782,0.8918,4.3048,3.7709,1479
484787,3.1771,3.1544,10.9714,1464
484792,-1.9501,-2.5402,19.6516,1470
484797,-5.5031,0.6536,9.1866,1471
484802,1.385,4.4712,3.8176,1485
484807,3.5279,3.14,10.2831,1485
484812,-1.3336,-2.3152,20.1233,1464
484817,-5.5952,0.2526,9.5816,1480
484822,1.7406,4.6962,4.1396,1490
484827,3.8044,3.0634,9.6582,1471
484832,-0.7518,-2.0626,20.4848,1466
484837,-5.7018,-0.0766,9.9144,1493
484842,1.8711,4.7728,4.3227,1481
484847,3.808,3.1376,8.9783,1481
484852,-0.2143,-1.8124,20.6703,1439
484857,-5.8059,-0.4034,10.4028,1493
484862,1.7585,4.8734,4.5789,1479
484867,3.5793,3.1376,8.4731,1471
484872,0.3208,-1.5431,20.5243,1485
484877,-5.9053,-0.6033,10.8984,1481
484882,1.4664,4.9117,4.9237,1479
484887,3.2573,3.2334,7.8805,1479
484892,0.8332,-1.2163,20.413,1485
484897,-5.849,-0.7314,11.3629,1468
484902,0.8871,4.9488,5.1787,1479
484907,2.4349,3.2872,7.1251,1497
484912,1.2761,-0.9086,20.0706,1477
484917,-5.6755,-0.8823,11.9495,1470
484922,0.1341,4.8854,5.4839,1484
484927,1.5826,3.2908,6.5529,1483
484932,1.6101,-0.6464,19.5283,1471
484937,-5.3774,-0.9852,12.5025,1477
484942,-0.6189,4.695,5.7928,1483
484947,0.6009,3.2896,5.8682,1469
484952,1.7765,-0.2239,18.6676,1477
484957,-5.0637,-1.1995,13.295,1491
484962,-1.5574,4.4245,6.207,1484
484967,-0.176,3.2932,5.2708,1468
484972,2.0614,0.3065,17.7482,1481
484977,-4.9105,-1.4856,14.1114,1491
484982,-2.4995,3.984,6.6128,1483
484987,-0.9038,3.3914,4.6531,1465
484992,2.3152,0.9744,16.5296,1491
484997,-4.707,-1.7777,15.1242,1482
485002,-3.3818,3.5518,7.0976,1479
485007,-1.3635,3.4488,4.2054,1471
485012,2.5798,1.4222,15.2786,1491
485017,-4.4508,-1.9609,16.1166,1467
485022,-4.1216,3.0203,7.4747,1483
485027,-1.3671,3.5913,3.8271,1479
485032,2.709,1.9525,14.0528,1479
485037,-4.0725,-2.1524,17.2813,1471
485042,-4.622,2.5007,7.8805,1483
485047,-1.0044,3.735,3.6105,1471
485052,2.8276,2.2015,12.9155,1471
485057,-3.6368,-2.2063,18.257,1471
485062,-5.0027,2.1129,8.2373,1491
485067,-0.4405,3.9169,3.5075,1468
485072,3.0526,2.2637,12.0249,1470
485077,-3.1244,-2.2613,19.01,1491
485082,-5.2026,1.6448,8.5653,1487
485087,0.2753,4.13,3.4884,1466
485092,3.3651,2.466,11.1833,1477
485097,-2.5977,-2.2194,19.745,1484
485102,-5.442,1.2582,8.9196,1479
485107,0.9565,4.2904,3.5997,1469
485112,3.8188,2.624,10.6159,1483
485117,-2.071,-2.2936,20.1963,1468
485122,-5.6132,0.8799,9.1925,1469
485127,1.4964,4.4724,3.6907,1477
485132,4.0163,2.6552,9.9491,1484
485137,-1.5048,-2.3487,20.802,1465
485142,-5.6336,0.5567,9.6618,1471
485147,1.646,4.5813,3.9002,1493
485152,3.9133,2.8575,9.3386,1481
485157,-0.9505,-2.2075,20.9229,1466
485162,-5.685,0.2131,10.0269,1483
485167,1.6939,4.7537,4.1767,1484
485172,3.7888,2.9987,8.819,1481
485177,-0.3603,-1.9585,21.0797,1469
485182,-5.691,-0.0395,10.398,1491
485187,1.5574,4.8447,4.4544,1471
485192,3.3782,3.1448,8.2013,1479
485197,0.1101,-1.6496,20.9026,1478
485202,-5.7114,-0.3986,10.8386,1481
485207,1.2785,4.8387,4.7357,1477
485212,2.8467,3.2262,7.768,1479
485217,0.5578,-1.2234,20.6464,1485
485222,-5.697,-0.6668,11.3222,1471
485227,0.8739,4.8195,5.1523,1480
485232,2.2793,3.2561,7.1455,1493
485237,1.0463,-0.8009,20.1113,1478
485242,-5.6886,-1.0199,11.8058,1468
485247,0.1903,4.6962,5.4743,1480
485252,1.3324,3.2597,6.59,1513
485257,1.336,-0.4932,19.5894,1478
485262,-5.6659,-1.3072,12.4726,1480
485267,-0.565,4.561,5.7808,1480
485272,0.4501,3.2358,6.0274,1483
485277,1.4688,-0.0694,18.9034,1481
485282,-5.624,-1.5311,13.143,1481
485287,-1.227,4.4496,6.0537,1479
485292,-0.1592,3.2669,5.5354,1468
485297,1.6616,0.316,18.0906,1480
485302,-5.551,-1.5646,13.7738,1490
485307,-1.986,4.1444,6.3195,1477
485312,-0.6177,3.4572,5.0075,1469
485317,1.7837,0.7302,17.1892,1493
485322,-5.2876,-1.6628,14.7016,1482
485327,-2.6683,3.7984,6.5529,1479
485332,-0.8739,3.5458,4.4592,1477
485337,1.8818,0.9876,16.3488,1491
485342,-5.0542,-1.8208,15.4055,1469
485347,-3.2465,3.3746,6.8235,1482
485352,-0.8021,3.729,4.0534,1485
485357,1.9609,1.3431,15.4797,1481
485362,-4.5633,-2.1117,16.2195,1478
485367,-3.7792,2.8802,7.2113,1471
485372,-0.3747,3.8379,3.7601,1471
485377,2.2015,1.6927,14.6202,1470
485382,-4.1468,-2.3224,16.9641,1471
485387,-4.2353,2.3846,7.4591,1491
485392,0.0622,3.9851,3.6619,1465
485397,2.3104,2.0782,13.72,1477
485402,-3.7445,-2.4936,17.7482,1484
485407,-4.7214,1.9656,7.8219,1483
485412,0.7027,4.227,3.5566,1467
485417,2.6719,2.1296,13.0556,1471
485422,-3.3746,-2.4744,18.4222,1482
485427,-5.0949,1.6604,8.0756,1468
485432,1.4114,4.5119,3.5554,1470
485437,3.0143,2.2984,12.548,1483
485442,-2.7785,-2.49,18.9729,1477
485447,-5.3103,1.2881,8.3977,1485
485452,2.0806,4.6819,3.6021,1480
485457,3.4309,2.4421,11.9076,1493
485462,-2.1656,-2.4397,19.4972,1463
485467,-5.5378,1.0714,8.6898,1471
485472,2.545,4.9141,3.6428,1491
485477,3.6823,2.4768,11.3078,1479
485482,-1.4664,-2.399,19.9006,1468
485487,-5.515,0.8056,9.0297,1464
485492,2.6695,5.0733,3.7661,1485
485497,3.705,2.5247,10.6326,1469
485502,-0.832,-2.302,20.3088,1469
485507,-5.5881,0.4369,9.5648,1495
485512,2.496,5.126,4.0067,1471
485517,3.5111,2.6851,9.9599,1481
485522,-0.3244,-2.0782,20.4154,1480
485527,-5.7042,0.1808,9.9659,1485
485532,2.1392,5.1834,4.2629,1471
485537,2.8455,2.7569,9.2727,1479
485542,0.1257,-1.9549,20.4908,1484
485547,-5.8071,0.0287,10.5189,1471
485552,1.5814,5.2098,4.4628,1469
485557,2.2158,2.8096,8.57,1487
485562,0.5411,-1.7825,20.3842,1485
485567,-5.7964,-0.1437,11.0875,1470
485572,0.9685,5.1523,4.7561,1471
485577,1.3898,2.9269,7.7943,1491
485582,0.7817,-1.391,20.0347,1471
485587,-5.6731,-0.4094,11.6334,1471
485592,0.2753,5.1032,4.9752,1479
485597,0.6823,2.788,7.0629,1485
485602,1.136,-1.2833,19.8168,1503
485607,-5.6228,-0.3675,12.1566,1477
485612,-0.5519,5.0613,5.2756,1483
485617,-0.1113,2.8048,6.4332,1471
485622,1.4174,-1.1612,19.3009,1479
485627,-5.4971,-0.3065,12.6749,1493
485632,-1.4066,4.6998,5.4947,1485
485637,-0.7697,2.9844,5.8095,1469
485642,1.5131,-0.9325,18.7227,1483
485647,-5.3534,-0.5411,13.4087,1485
485652,-2.0387,4.3646,5.7928,1477
485657,-1.1169,3.1687,5.2349,1465
485662,1.4162,-0.6273,18.0535,1492
485667,-5.1044,-0.8631,14.0312,1467
485672,-2.5391,3.9049,6.1471,1479
485677,-1.1827,3.4333,4.8147,1471
485682,1.2306,-0.17,17.3388,1486
485687,-4.81,-1.1911,14.6645,1467
485692,-3.0418,3.6033,6.4584,1477
485697,-0.8847,3.6955,4.4628,1483
485702,1.2151,0.2334,16.5535,1462
485707,-4.5059,-1.4174,15.3911,1469
485712,-3.5303,3.1867,6.7768,1491
485717,-0.4034,4.0127,4.1408,1471
485722,1.4976,0.6009,15.7993,1471
485727,-4.1408,-1.5802,15.9621,1471
485732,-4.0079,2.7749,6.9025,1484
485737,0.4357,4.3203,3.9061,1470
485742,1.992,0.7889,15.0859,1479
485747,-3.6739,-1.7621,16.8181,1485
485752,-4.4305,2.3667,7.1527,1482
485757,1.2246,4.549,3.7757,1477
485762,2.4864,0.9756,14.3556,1479
485767,-3.0789,-1.9369,17.5232,1479
485772,-4.8602,2.0039,7.4986,1469
485777,1.8543,4.7704,3.6105,1471
485782,2.8683,1.1899,13.6757,1493
485787,-2.4708,-2.1105,18.2175,1471
485792,-5.1176,1.7992,7.932,1479
485797,2.2781,5.0386,3.6224,1483
485802,3.0801,1.4473,13.0711,1484
485807,-1.8986,-2.1907,18.7765,1461
485812,-5.3259,1.6281,8.2301,1467
485817,2.5941,5.2397,3.7888,1487
485822,3.128,1.8088,12.3696,1483
485827,-1.2151,-2.4002,19.3631,1469
485832,-5.4133,1.2941,8.6766,1485
485837,2.6025,5.442,3.9025,1485
485842,3.0442,2.1069,11.4886,1481
485847,-0.5459,-2.5139,19.7462,1479
485852,-5.46,0.9649,9.183,1491
485857,2.4062,5.5282,4.033,1471
485862,2.7378,2.296,10.6123,1481
485867,0.0742,-2.3296,20.0502,1484
485872,-5.4971,0.6979,9.7755,1477
485877,1.9872,5.5438,4.1994,1479
485882,2.3092,2.466,9.736,1483
485887,0.5866,-2.1919,20.0335,1481
485892,-5.5593,0.4968,10.3346,1469
485897,1.3671,5.4887,4.4544,1479
485902,1.5933,2.6624,8.9459,1491
485907,0.9146,-2.1057,20.0059,1477
485912,-5.6348,0.1448,10.8433,1469
485917,0.6464,5.3379,4.7561,1481
485922,0.8212,2.8383,8.1511,1483
485927,1.1732,-1.986,19.8204,1481
485932,-5.6994,-0.0898,11.4407,1477
485937,-0.1604,5.0338,5.0973,1484
485942,0.0048,3.0442,7.3526,1469
485947,1.324,-1.6257,19.4469,1483
485952,-5.7964,-0.2873,12.0309,1493
485957,-1.0367,4.7238,5.3343,1491
485962,-0.4908,3.2394,6.6104,1478
485967,1.5574,-1.2414,18.9381,1479
485972,-5.7329,-0.5052,12.8724,1485
485977,-1.8028,4.2581,5.5869,1480
485982,-0.729,3.4058,5.8658,1467
485987,1.6903,-0.7494,18.1804,1494
485992,-5.3965,-0.8332,13.6074,1479
485997,-2.4972,3.8463,5.849,1481
486002,-0.735,3.6164,5.2074,1469
486007,1.7585,-0.2394,17.5196,1485
486012,-4.9596,-1.1803,14.467,1461
486017,-3.1184,3.383,6.2118,1481
486022,-0.5124,3.796,4.5574,1481
486027,1.9285,0.2466,16.69,1468
486032,-4.5873,-1.4605,15.2379,1477
486037,-3.7266,2.9999,6.5386,1494
486042,-0.0922,4.0043,4.209,1467
486047,2.0925,0.6428,15.8939,1469
486052,-4.0749,-1.7945,16.1537,1471
486057,-4.1599,2.5498,6.8857,1487
486062,0.5052,4.215,3.9157,1469
486067,2.2589,1.1492,14.9985,1471
486072,-3.5554,-2.0195,16.9581,1483
486077,-4.5119,2.1632,7.2903,1484
486082,1.1349,4.5262,3.7529,1478
486087,2.6037,1.5694,14.1868,1477
486092,-3.0047,-2.1835,17.7997,1483
486097,-4.8746,1.7657,7.6638,1469
486102,1.8878,4.7022,3.65,1477
486107,2.9784,2.083,13.3094,1493
486112,-2.393,-2.3691,18.512,1467
486117,-5.0949,1.3803,8.1116,1470
486122,2.3882,4.8734,3.6524,1491
486127,3.3543,2.393,12.5612,1483
486132,-1.743,-2.4181,19.1416,1463
486137,-5.3427,0.9182,8.4874,1480
486142,2.7222,4.9991,3.796,1485
486147,3.4668,2.7306,11.6358,1479
486152,-1.0415,-2.3667,19.7007,1471
486157,-5.5067,0.4992,9.0537,1495
486162,2.6624,5.0913,4.0007,1479
486167,3.3878,2.9987,10.8517,1480
486172,-0.4872,-2.2314,20.0466,1469
486177,-5.6336,0.0563,9.4882,1487
486182,2.4948,5.0266,4.2401,1469
486187,2.9497,3.2406,9.9443,1478
486192,-0.085,-1.8411,20.2466,1489
486197,-5.8179,-0.3663,10.1406,1471
486202,2.0446,4.938,4.5191,1469
486207,2.4373,3.4273,9.1435,1485
486212,0.2981,-1.3946,20.1424,1479
486217,-5.8,-0.7326,10.7859,1477
486222,1.4425,4.8447,4.8363,1481
486227,1.6065,3.5805,8.3342,1493
486232,0.5626,-0.8835,19.8156,1468
486237,-5.7796,-1.0977,11.4263,1469
486242,0.6955,4.5885,5.1392,1483
486247,0.8727,3.5434,7.4855,1483
486252,0.8619,-0.3029,19.3284,1471
486257,-5.6731,-1.4042,12.1278,1477
486262,-0.2418,4.3646,5.4588,1483
486267,-0.0455,3.4955,6.6164,1469
486272,1.0175,0.3029,18.67,1471
486277,-5.5821,-1.6831,12.8664,1492
486282,-1.0534,4.0235,5.764,1490
486287,-0.6117,3.5087,5.8371,1465
486292,1.1205,0.7697,17.8943,1481
486297,-5.4025,-1.9441,13.6829,1483
486302,-1.8806,3.6787,6.1818,1481
486307,-1.0499,3.5985,5.2505,1469
486312,1.2294,1.2438,16.9893,1493
486317,-5.1978,-2.1284,14.5304,1469
486322,-2.6324,3.3459,6.4212,1481
486327,-1.0714,3.65,4.7477,1478
486332,1.3036,1.4856,16.253,1486
486337,-4.9356,-2.1536,15.2846,1471
486342,-3.2525,2.9724,6.6702,1477
486347,-0.7817,3.7649,4.2689,1481
486352,1.5167,1.7131,15.6401,1477
486357,-4.5155,-2.2338,15.9897,1469
486362,-3.7086,2.642,6.9863,1492
486367,-0.267,3.9911,3.9828,1469
486372,1.7645,1.8723,14.9039,1467
486377,-3.9887,-2.2972,16.7175,1478
486382,-4.063,2.2709,7.2963,1491
486387,0.3615,4.1922,3.7625,1467
486392,2.1703,2.0267,14.1809,1469
486397,-3.3639,-2.3559,17.4908,1491
486402,-4.4149,1.9118,7.6746,1483
486407,1.0283,4.2976,3.614,1429
486412,2.6635,2.1536,13.4315,1478
486417,-2.7988,-2.4409,18.2917,1480
486422,-4.7489,1.4928,8.0266,1468
486427,1.6963,4.5454,3.5422,1477
486432,3.061,2.2805,12.5564,1493
486437,-2.1859,-2.4397,19.0052,1465
486442,-5.0757,1.2761,8.4467,1471
486447,2.1632,4.7716,3.5961,1496
486452,3.3782,2.4409,11.8896,1482
486457,-1.6592,-2.4122,19.6157,1469
486462,-5.2888,1.0199,8.8262,1483
486467,2.4134,4.9799,3.6464,1485
486472,3.3555,2.6384,11.212,1477
486477,-1.1109,-2.4241,20.1089,1467
486482,-5.387,0.7434,9.2572,1490
486487,2.3762,5.0877,3.8475,1483
486492,3.1376,2.7928,10.4651,1480
486497,-0.5519,-2.3308,20.304,1472
486502,-5.5366,0.3962,9.675,1485
486507,2.2948,5.193,4.1767,1471
486512,2.9341,2.824,9.7851,1472
486517,-0.006,-2.0087,20.4525,1485
486522,-5.636,0.0946,10.1837,1479
486527,1.9142,5.2433,4.3479,1467
486532,2.3942,2.909,8.9962,1483
486537,0.4585,-1.7035,20.4142,1481
486542,-5.7688,-0.176,10.7344,1467
486547,1.3288,5.1427,4.6256,1479
486552,1.6951,2.964,8.3402,1493
486557,0.8499,-1.5119,20.1364,1479
486562,-5.782,-0.4405,11.2934,1467
486567,0.6452,4.9632,4.9656,1479
486572,0.8763,3.0837,7.5298,1479
486577,1.1157,-1.1995,19.8216,1480
486582,-5.715,-0.6847,11.9064,1507
486587,-0.1257,4.8123,5.2732,1471
486592,0.1137,3.1352,6.7792,1464
486597,1.1851,-0.8404,19.3308,1481
486602,-5.6419,-0.8942,12.5815,1489
486607,-0.8918,4.5179,5.5366,1483
486612,-0.5231,3.1663,5.964,1470
486617,1.2917,-0.4262,18.6736,1477
486622,-5.3606,-1.1013,13.3237,1471
486627,-1.5933,4.2318,5.8993,1480
486632,-0.9601,3.298,5.3522,1478
486637,1.3012,0.0479,17.8859,1497
486642,-5.0374,-1.3252,14.0779,1485
486647,-2.2649,3.8954,6.1746,1479
486652,-1.057,3.4656,4.7034,1477
486657,1.3048,0.3962,17.1197,1487
486662,-4.6855,-1.5586,14.8476,1479
486667,-2.8144,3.4644,6.5565,1479
486672,-0.844,3.5829,4.2892,1479
486677,1.4054,0.832,16.2698,1471
486682,-4.3407,-1.8591,15.506,1453
486687,-3.3483,2.9975,6.9133,1492
486692,-0.4405,3.8176,3.9325,1471
486697,1.6065,1.3216,15.342,1470
486702,-3.9804,-2.1284,16.3668,1477
486707,-3.9037,2.5319,7.288,1490
486712,0.2203,4.0378,3.6847,1467
486717,1.9321,1.7538,14.4155,1477
486722,-3.5686,-2.3176,17.194,1496
486727,-4.3347,2.1261,7.695,1485
486732,0.9301,4.294,3.6835,1471
486737,2.3451,2.0554,13.6577,1479
486742,-3.0586,-2.3978,18.0439,1482
486747,-4.6711,1.7286,7.8889,1469
486752,1.6376,4.5801,3.5925,1477
486757,2.6288,2.3176,12.9203,1491
486762,-2.5055,-2.4756,18.6951,1464
486767,-4.9716,1.3659,8.2959,1469
486772,2.2242,4.7776,3.6727,1493
486777,3.0251,2.5079,12.2715,1487
486782,-1.9022,-2.4553,19.1608,1485
486787,-5.1954,0.99,8.6239,1471
486792,2.5977,4.9859,3.7242,1492
486797,3.3459,2.6959,11.5784,1471
486802,-1.2115,-2.4014,19.6911,1467
486807,-5.4073,0.6165,9.0417,1483
486812,2.7294,5.0661,3.9804,1484
486817,3.3579,2.8467,10.8421,1480
486822,-0.6812,-2.2446,19.994,1477
486827,-5.5569,0.2969,9.4954,1490
486832,2.557,5.1487,4.1659,1471
486837,3.0801,2.9628,10.1095,1479
486842,-0.1544,-2.0794,20.219,1481
486847,-5.6551,-0.0227,9.997,1477
486852,2.2051,5.1152,4.3814,1469
486857,2.6635,3.0454,9.329,1483
486862,0.2023,-1.834,20.2418,1483
486867,-5.7233,-0.3567,10.6338,1477
486872,1.7011,5.0613,4.6807,1468
486877,1.9513,3.2226,8.6574,1487
486882,0.4597,-1.3108,20.0371,1479
486887,-5.7162,-0.6812,11.1941,1469
486892,1.0798,4.9895,4.95,1481
486897,1.172,3.3172,7.8111,1481
486902,0.7099,-0.8559,19.654,1480
486907,-5.6695,-0.9852,11.8058,1481
486912,0.3555,4.7357,5.2972,1483
486917,0.4298,3.3627,7.1216,1469
486922,0.8835,-0.4357,19.156,1481
486927,-5.5677,-1.2749,12.378,1495
486932,-0.4621,4.47,5.6012,1485
486937,-0.2825,3.3842,6.3458,1477
486942,0.99,0.0048,18.4904,1481
486947,-5.4229,-1.567,13.0699,1490
486952,-1.1528,4.1061,5.9448,1479
486957,-0.7877,3.4632,5.7138,1468
486962,0.9589,0.4908,17.753,1495
486967,-5.2349,-1.7992,13.702,1481
486972,-1.9501,3.7517,6.2465,1479
486977,-1.081,3.5422,5.1882,1469
486982,0.893,0.8763,16.921,1482
486987,-4.9728,-2.0039,14.6465,1466
486992,-2.569,3.3447,6.5314,1480
486997,-1.069,3.6559,4.6866,1489
487002,0.9337,1.2258,16.1405,1481
487007,-4.61,-2.053,15.3085,1470
487012,-3.219,3.037,6.8869,1477
487017,-0.7566,3.8355,4.3167,1479
487022,1.0965,1.5036,15.5096,1479
487027,-4.2042,-2.0985,16.0148,1477
487032,-3.7194,2.6504,7.1874,1491
487037,-0.1592,4.0953,3.893,1466
487042,1.4617,1.6855,14.7148,1471
487047,-3.6859,-2.2242,16.7139,1483
487052,-4.1001,2.3188,7.4364,1484
487057,0.5483,4.3311,3.7625,1477
487062,1.883,1.8591,14.0935,1479
487067,-3.1627,-2.3032,17.3831,1481
487072,-4.4448,1.8483,7.6962,1469
487077,1.3396,4.5167,3.6536,1480
487082,2.3176,1.998,13.3991,1485
487087,-2.636,-2.4397,18.099,1470
487092,-4.7202,1.4521,8.0337,1477
487097,1.9405,4.7274,3.7194,1484
487102,2.7509,2.2661,12.7012,1491
487107,-2.0674,-2.4864,18.7227,1465
487112,-4.9452,1.1325,8.4503,1481
487117,2.3906,4.9464,3.7421,1491
487122,2.9018,2.4924,12.0357,1480
487127,-1.5167,-2.4792,19.2661,1467
487132,-5.1032,0.8464,8.9699,1481
487137,2.6576,5.0985,3.875,1485
487142,3.0215,2.7605,11.3485,1480
487147,-0.9756,-2.4253,19.6672,1467
487152,-5.2301,0.5303,9.3769,1491
487157,2.7186,5.1966,4.0881,1471
487162,2.9293,2.9281,10.6231,1479
487167,-0.4298,-2.2051,20.0167,1479
487172,-5.2948,0.1568,9.8031,1484
487177,2.5414,5.205,4.2473,1469
487182,2.66,2.9975,9.8892,1483
487187,-0.018,-1.9297,20.0957,1483
487192,-5.3403,-0.1508,10.3046,1465
487197,2.1763,5.2158,4.5274,1476
487202,2.1332,3.0562,9.0321,1494
487207,0.3711,-1.5754,20.0634,1481
487212,-5.375,-0.4764,10.8457,1466
487217,1.5897,5.114,4.7752,1479
487222,1.5119,3.1316,8.2983,1487
487227,0.5902,-1.3048,19.818,1471
487232,-5.4193,-0.7913,11.4922,1477
487237,0.7937,4.9201,5.1008,1479
487242,0.6979,3.1747,7.5489,1478
487247,0.7721,-0.8487,19.472,1479
487252,-5.4576,-1.0798,12.1506,1480
487257,-0.018,4.634,5.4097,1484
487262,-0.0539,3.2094,6.669,1471
487267,0.8356,-0.3304,18.9154,1477
487272,-5.3307,-1.3144,12.8772,1486
487277,-0.8799,4.3622,5.7712,1482
487282,-0.6644,3.3052,5.9628,1469
487287,0.9098,0.1975,18.16,1493
487292,-5.2014,-1.549,13.5859,1481
487297,-1.658,4.0282,6.0561,1485
487302,-0.9972,3.4512,5.2996,1469
487307,0.9553,0.662,17.3101,1491
487312,-4.9273,-1.8028,14.4454,1429
487317,-2.3523,3.6428,6.4212,1481
487322,-1.0151,3.6164,4.7226,1491
487327,1.0247,1.0834,16.4135,1481
487332,-4.6471,-2.0219,15.1936,1463
487337,-3.0478,3.122,6.772,1479
487342,-0.7614,3.7709,4.2916,1480
487347,1.2282,1.4437,15.5659,1471
487352,-4.2725,-2.2158,15.937,1471
487357,-3.6428,2.6576,7.0892,1491
487362,-0.2658,3.9313,3.9313,1471
487367,1.5107,1.8759,14.698,1467
487372,-3.8211,-2.4122,16.7139,1481
487377,-4.1982,2.1799,7.5513,1487
487382,0.3519,4.112,3.8176,1471
487387,1.9453,2.1967,13.7691,1476
487392,-3.3172,-2.4924,17.6237,1485
487397,-4.61,1.6951,7.9188,1479
487402,1.1277,4.3598,3.6176,1469
487407,2.3906,2.5486,12.9742,1481
487412,-2.8323,-2.4816,18.3899,1471
487417,-4.9141,1.3264,8.2528,1469
487422,1.8711,4.6232,3.6368,1480
487427,2.8575,2.7473,12.2547,1487
487432,-2.1931,-2.4469,18.9693,1468
487437,-5.1559,0.8954,8.5988,1479
487442,2.4014,4.798,3.7278,1492
487447,3.2681,2.8742,11.6657,1479
487452,-1.5431,-2.4205,19.5056,1455
487457,-5.3522,0.6153,9.0154,1483
487462,2.739,5.0003,3.869,1485
487467,3.5231,2.9078,10.9918,1479
487472,-0.9469,-2.3176,19.8419,1469
487477,-5.4827,0.267,9.3793,1491
487482,2.7198,5.108,4.0223,1471
487487,3.3782,2.9664,10.343,1480
487492,-0.3412,-2.1572,20.2214,1479
487497,-5.6132,0.0431,9.8509,1483
487502,2.3739,5.1799,4.1922,1477
487507,2.988,2.9676,9.5708,1480
487512,0.1053,-1.895,20.3328,1487
487517,-5.7293,-0.1856,10.3669,1470
487522,1.8435,5.2146,4.5119,1469
487527,2.229,3.1244,8.825,1496
487532,0.5267,-1.5802,20.3112,1480
487537,-5.7078,-0.4441,10.9367,1465
487542,1.2198,5.1475,4.7333,1483
487547,1.4856,3.1448,8.078,1495
487552,0.8056,-1.257,20.0119,1471
487557,-5.6515,-0.6261,11.5185,1471
487562,0.5327,4.9811,4.9931,1482
487567,0.6201,3.2561,7.3095,1471
487572,1.0427,-0.9541,19.5618,1469
487577,-5.5402,-0.9002,12.1147,1481
487582,-0.2789,4.7585,5.3067,1486
487587,-0.1628,3.2358,6.5625,1467
487592,1.1528,-0.6548,19.0159,1479
487597,-5.4001,-1.1205,12.6917,1495
487602,-1.0558,4.452,5.7269,1479
487607,-0.7769,3.2645,5.8933,1468
487612,1.2151,-0.2861,18.33,1485
487617,-5.2493,-1.4066,13.4782,1481
487622,-1.8806,4.051,6.0322,1481
487627,-1.142,3.4022,5.2277,1469
487632,1.2222,0.2502,17.4956,1486
487637,-5.0482,-1.579,14.285,1469
487642,-2.5474,3.7002,6.3662,1481
487647,-1.257,3.5698,4.695,1481
487652,1.2534,0.6931,16.678,1481
487657,-4.5418,-1.9872,14.68,1469
487662,-3.061,3.7625,7.3957,1479
487667,-1.1768,3.5913,4.2617,1482
487672,1.2629,0.9146,15.6569,1468
487677,-4.2701,-1.8435,15.9358,1469
487682,-3.6188,2.8156,7.0593,1491
487687,-0.3603,3.8583,3.7493,1471
487692,1.6664,1.6472,14.9434,1477
487697,-3.8295,-2.1428,16.6529,1481
487702,-4.1444,2.4289,7.4974,1485
487707,0.164,4.227,3.7792,1467
487712,2.053,1.7968,14.0097,1496
487717,-3.1376,-2.3559,17.2119,1487
487722,-4.4209,2.1679,8.0876,1477
487727,0.9529,4.3012,3.5219,1465
487732,2.3918,1.9285,13.0316,1445
487737,-2.6001,-2.4002,18.2043,1477
487742,-4.7549,1.7957,8.5365,1477
487747,1.5921,4.525,3.5446,1479
487752,2.8611,2.1943,12.238,1496
487757,-2.1883,-2.49,18.7179,1463
487762,-5.0613,1.1947,8.6945,1479
487767,2.2745,4.798,3.6679,1485
487772,3.1867,2.5594,11.6322,1483
487777,-1.7202,-2.3691,19.7881,1464
487782,-5.2433,0.7219,8.9687,1478
487787,2.5331,4.9752,3.7649,1485
487792,3.3495,2.7306,10.6757,1449
487797,-1.0798,-2.2829,20.1424,1467
487802,-5.3235,0.4094,9.5193,1491
487807,2.5965,5.1176,4.1049,1471
487812,3.2693,2.8958,10.137,1487
487817,-0.5483,-2.083,20.334,1479
487822,-5.4109,0.1413,9.8857,1485
487827,2.466,5.2457,4.2246,1471
487832,2.9808,2.9461,9.3206,1459
487837,-0.067,-1.8651,20.462,1487
487842,-5.4696,-0.1389,10.3837,1467
487847,2.1045,5.3008,4.5622,1471
487852,2.4146,2.9401,8.6658,1520
487857,0.3591,-1.6712,20.3232,1482
487862,-5.454,-0.4334,10.884,1468
487867,1.5407,5.1966,4.8195,1478
487872,1.6999,2.9772,7.8793,1508
487877,0.7219,-1.3431,20.1304,1477
487882,-5.5055,-0.6488,11.7041,1471
487887,0.7949,4.9991,5.1116,1479
487892,0.9254,3.1053,7.3263,1495
487897,0.8643,-0.9661,19.5786,1477
487902,-5.5426,-1.0726,12.2164,1478
487907,0.0491,4.804,5.5091,1485
487912,0.1616,3.2238,6.5362,1469
487917,1.002,-0.2765,19.0279,1480
487922,-5.466,-1.4006,12.8856,1491
487927,-0.8092,4.4879,5.9245,1511
487932,-0.4812,3.2825,5.7174,1468
487937,1.0056,0.3591,18.2043,1482
487942,-5.3486,-1.6412,13.5919,1484
487947,-1.5526,4.1264,6.2608,1483
487952,-0.8978,3.3686,5.0877,1471
487957,1.1468,0.8535,17.2933,1487
487962,-5.12,-1.8866,14.4059,1469
487967,-2.3008,3.7601,6.6391,1485
487972,-1.075,3.5326,4.6052,1479
487977,1.2438,1.2653,16.2339,1485
487982,-4.8949,-2.132,15.2068,1487
487987,-3.0287,3.3531,6.9803,1478
487992,-0.8954,3.7206,4.2725,1477
487997,1.397,1.6305,15.4055,1463
488002,-4.5538,-2.3403,16.0483,1477
488007,-3.6129,2.8156,7.2389,1486
488012,-0.4453,3.8774,4.0043,1467
488017,1.6652,1.8495,14.5292,1479
488022,-4.1887,-2.5139,16.7211,1478
488027,-4.1719,2.3032,7.61,1487
488032,0.176,4.1312,3.796,1470
488037,2.0722,2.1931,13.7846,1471
488042,-3.6416,-2.6228,17.5375,1485
488047,-4.5801,1.8519,7.9344,1483
488052,0.8966,4.2796,3.7002,1467
488057,2.4792,2.5402,12.8952,1480
488062,-3.0777,-2.6576,18.3408,1480
488067,-4.877,1.3431,8.3366,1471
488072,1.561,4.5107,3.7014,1469
488077,2.8934,2.8096,12.1218,1469
488082,-2.4541,-2.5798,19.0435,1459
488087,-5.1212,0.911,8.6359,1471
488092,2.2134,4.6627,3.7709,1491
488097,3.3064,3.0323,11.5053,1481
488102,-1.9561,-2.4876,19.5666,1462
488107,-5.2637,0.5686,8.9735,1480
488112,2.6085,4.8135,3.8427,1484
488117,3.5087,3.1687,10.8649,1479
488122,-1.3623,-2.3703,19.8683,1467
488127,-5.4504,0.2119,9.3745,1485
488132,2.7773,5.0242,4.0941,1485
488137,3.4979,3.2214,10.2651,1481
488142,-0.7721,-2.2601,20.2119,1481
488147,-5.5091,-0.1437,9.8354,1483
488152,2.6121,5.0961,4.2952,1469
488157,3.2657,3.1544,9.5421,1471
488162,-0.2274,-1.9848,20.383,1481
488167,-5.5833,-0.3663,10.3358,1477
488172,2.2146,5.132,4.5849,1477
488177,2.7725,3.14,8.7257,1484
488182,0.2334,-1.5107,20.5147,1481
488187,-5.685,-0.5662,10.8793,1467
488192,1.555,5.1068,4.8878,1478
488197,2.0399,3.128,7.8482,1493
488202,0.6021,-1.1349,20.2549,1479
488207,-5.6982,-0.8212,11.4898,1467
488212,0.7781,5.0362,5.126,1482
488217,1.1396,3.1807,7.1228,1485
488222,0.8464,-0.7697,19.8288,1480
488227,-5.7377,-1.063,12.0428,1471
488232,0.0239,4.883,5.4408,1469
488237,0.2765,3.2537,6.4189,1465
488242,1.0463,-0.3771,19.241,1481
488247,-5.77,-1.2785,12.6438,1487
488252,-0.7805,4.6136,5.7233,1493
488257,-0.4752,3.2765,5.8251,1469
488262,1.2115,-0.0838,18.5563,1487
488267,-5.7126,-1.5191,13.2579,1483
488272,-1.5095,4.2784,6.0932,1477
488277,-0.996,3.4512,5.3283,1469
488282,1.2833,0.2071,17.8488,1493
488287,-5.4911,-1.6173,13.9019,1481
488292,-2.2446,3.8798,6.3255,1477
488297,-1.1899,3.6404,4.8447,1479
488302,1.3527,0.5028,16.9821,1486
488307,-5.2601,-1.7633,14.6346,1467
488312,-2.8491,3.5386,6.5733,1483
488317,-1.0463,3.8451,4.4604,1483
488322,1.5155,0.6548,16.3225,1480
488327,-4.8064,-1.8364,15.4127,1495
488332,-3.4189,3.1005,6.8151,1491
488337,-0.6357,3.9995,4.0259,1471
488342,1.7358,0.8691,15.6018,1471
488347,-4.2856,-1.9058,16.1453,1471
488352,-3.8487,2.7857,7.1287,1493
488357,-0.073,4.2318,3.796,1471
488362,1.9908,1.0199,14.85,1467
488367,-3.6428,-2.083,16.8839,1490
488372,-4.136,2.4541,7.4388,1487
488377,0.5567,4.4041,3.571,1480
488382,2.3703,1.2151,14.0216,1477
488387,-3.0119,-2.1596,17.6764,1480
488392,-4.5789,2.1237,7.8985,1469
488397,1.1576,4.6148,3.4955,1478
488402,2.7952,1.5095,13.0688,1493
488407,-2.4313,-2.2781,18.4569,1467
488412,-4.8554,1.7418,8.3163,1479
488417,1.7992,4.8806,3.5614,1481
488422,3.0945,1.8495,12.2487,1483
488427,-1.8699,-2.3727,19.2829,1467
488432,-5.0685,1.3539,8.7628,1471
488437,2.1177,4.9943,3.6308,1491
488442,3.2441,2.0937,11.3844,1479
488447,-1.2953,-2.3715,19.7067,1468
488452,-5.2708,0.9098,9.2069,1481
488457,2.478,5.1499,3.8882,1481
488462,3.3363,2.4349,10.6506,1480
488467,-0.8068,-2.1775,20.0933,1467
488472,-5.4133,0.5183,9.7193,1484
488477,2.563,5.193,4.112,1470
488482,3.2872,2.6181,9.8126,1477
488487,-0.2658,-1.9393,20.3244,1485
488492,-5.5222,0.0371,10.1335,1479
488497,2.399,5.2493,4.4221,1478
488502,3.0454,2.7713,9.0202,1481
488507,0.1856,-1.5754,20.4549,1471
488512,-5.6036,-0.3735,10.6518,1469
488517,1.9728,5.1906,4.7202,1471
488522,2.466,2.8455,8.2097,1491
488527,0.6201,-1.1744,20.1628,1480
488532,-5.703,-0.6428,11.2875,1465
488537,1.2139,5.1858,5.0374,1481
488542,1.6161,2.8982,7.4903,1480
488547,0.9553,-0.9206,19.9629,1479
488552,-5.709,-0.814,11.8573,1481
488557,0.4238,5.0494,5.2852,1483
488562,0.668,2.8838,6.7995,1469
488567,1.1851,-0.7961,19.4313,1481
488572,-5.6551,-0.9026,12.5923,1491
488577,-0.4657,4.8638,5.6623,1491
488582,-0.1844,2.9102,6.0621,1477
488587,1.3396,-0.6009,18.8424,1480
488592,-5.4779,-0.9385,13.1992,1483
488597,-1.3144,4.6304,5.9843,1479
488602,-0.8404,3.0347,5.3941,1471
488607,1.3012,-0.2789,18.1768,1494
488612,-5.1978,-1.081,13.945,1479
488617,-2.0351,4.3191,6.2956,1481
488622,-1.2378,3.1639,4.8183,1477
488627,1.3946,-0.0048,17.2849,1485
488632,-4.9165,-1.2366,14.6166,1470
488637,-2.7282,3.954,6.5936,1483
488642,-1.2522,3.4249,4.4317,1483
488647,1.5263,0.2993,16.4685,1471
488652,-4.5179,-1.4222,15.3959,1471
488657,-3.3004,3.4824,6.9264,1491
488662,-0.9337,3.6248,4.0055,1476
488667,1.5969,0.5818,15.4965,1470
488672,-4.0294,-1.6137,16.1776,1480
488677,-3.8475,3.0658,7.3945,1487
488682,-0.4812,3.8367,3.6966,1468
488687,1.8459,0.8045,14.6202,1471
488692,-3.559,-1.7921,16.8851,1487
488697,-4.3323,2.6576,7.7512,1483
488702,0.0419,4.1204,3.5207,1471
488707,2.1967,1.0499,13.7284,1479
488712,-3.0646,-1.9393,17.8033,1481
488717,-4.6938,2.2446,8.1199,1471
488722,0.7793,4.4796,3.4512,1470
488727,2.6779,1.4018,12.8221,1487
488732,-2.4612,-1.9992,18.5814,1469
488737,-5.035,1.8495,8.4791,1477
488742,1.488,4.7776,3.4955,1481
488747,3.1268,1.5826,12.0033,1485
488752,-1.8399,-2.0279,19.2649,1467
488757,-5.2122,1.47,8.8262,1479
488762,2.1009,5.1523,3.5757,1487
488767,3.4788,1.5467,11.2587,1477
488772,-1.1899,-2.053,19.7294,1467
488777,-5.2972,1.2701,9.2739,1489
488782,2.247,5.3103,3.6799,1468
488787,3.5207,1.5909,10.5991,1481
488792,-0.4717,-2.0446,20.0646,1469
488797,-5.3882,1.0511,9.7504,1492
488802,2.2434,5.5222,3.9109,1471
488807,3.3519,1.5993,9.8485,1471
488812,0.0742,-2.0818,20.3136,1485
488817,-5.46,0.8823,10.2005,1471
488822,1.9369,5.7581,4.1503,1468
488827,2.8359,1.7358,9.2536,1483
488832,0.5997,-2.0626,20.462,1483
488837,-5.4971,0.6752,10.6123,1469
488842,1.3838,5.7832,4.5035,1477
488847,2.1608,1.8567,8.497,1491
488852,0.9732,-2.0219,20.3555,1471
488857,-5.5857,0.4561,11.1366,1471
488862,0.7697,5.7916,4.8578,1469
488867,1.3192,2.2087,7.7847,1481
488872,1.3958,-1.8004,20.0682,1479
488877,-5.679,0.4082,11.6143,1481
488882,-0.067,5.679,5.053,1481
488887,0.3041,2.4122,7.0641,1469
488892,1.6041,-1.9357,19.6372,1479
488897,-5.5043,0.4226,12.2535,1491
488902,-0.6572,5.5833,5.4001,1489
488907,-0.4178,2.4672,6.4871,1466
488912,1.5036,-2.1907,19.0638,1487
488917,-4.7752,0.3424,12.8784,1487
488922,-1.0187,5.4815,5.6132,1459
488927,-1.1205,2.5271,5.8215,1477
488932,0.9685,-2.3511,18.5622,1493
488937,-4.2856,-0.0299,13.5117,1479
488942,-1.5299,5.199,6.1076,1481
488947,-1.7226,2.9652,5.375,1478
488952,0.6165,-2.065,17.7626,1483
488957,-4.276,-0.4214,14.0444,1467
488962,-1.9956,4.6687,6.5062,1483
488967,-1.8004,3.2142,5.0637,1481
488972,0.3555,-1.3886,16.9043,1479
488977,-4.1073,-0.6393,14.7255,1471
488982,-2.8886,4.1911,6.8881,1491
488987,-1.6879,3.4381,4.7082,1477
488992,0.6225,-0.8308,16.0328,1471
488997,-3.9899,-0.6021,15.4354,1477
