timestamp_ms,ax,ay,az,acs_adc
46427,-14.0983,5.2553,3.9061,1525
46432,6.8426,3.8966,7.4412,1497
46437,13.8098,-2.575,17.7614,1480
46442,-9.5385,0.2562,14.4334,1512
46447,-15.4474,4.4903,4.4592,1493
46452,5.4241,4.4161,6.1196,1491
46457,14.637,-1.5526,17.6105,1495
46462,-8.7532,-0.4944,15.7898,1495
46467,-15.9035,3.6356,4.9979,1500
46472,3.8475,4.9285,5.0254,1503
46477,14.8249,-0.4836,17.3017,1477
46482,-7.434,-1.4126,16.8516,1496
46487,-15.6042,2.8036,5.6264,1495
46492,2.0758,5.4025,4.1563,1485
46497,14.4598,0.34,16.6421,1481
46502,-5.5306,-2.3056,17.6309,1499
46507,-14.7243,2.1428,6.2489,1496
46512,0.1233,5.7736,3.541,1495
46517,13.8708,1.069,15.9226,1491
46522,-2.9808,-3.158,18.1804,1506
46527,-13.7906,1.579,6.8402,1501
46532,-2.1033,6.0501,3.322,1485
46537,12.979,1.6436,14.7758,1503
46542,0.097,-3.9193,18.2869,1491
46547,-12.645,1.2653,7.5669,1494
46552,-4.3646,6.1459,2.9221,1499
46557,12.0201,2.162,13.5428,1493
46562,3.7014,-4.3395,18.5251,1548
46567,-11.3737,1.1696,8.7137,1501
46572,-7.082,6.2429,2.9125,1491
46577,10.6949,2.5139,11.8058,1483
46582,7.0677,-4.4388,18.415,1507
46587,-10.6901,1.0463,9.7205,1497
46592,-9.4703,6.1196,3.0406,1495
46597,9.3733,3.0442,10.4926,1499
46602,10.1251,-4.1994,18.3863,1484
46607,-10.0329,1.0546,11.2384,1496
46612,-12.0021,5.8179,3.2441,1510
46617,8.0266,3.4177,8.6526,1485
46622,12.5767,-3.5111,18.4425,1469
46627,-9.7336,0.7602,12.7276,1498
46632,-14.109,5.4289,3.6416,1508
46637,6.6212,3.9576,7.3346,1501
46642,14.1222,-2.7031,18.1397,1493
46647,-9.4248,0.3005,14.3305,1513
46652,-15.5228,4.7393,4.2246,1497
46657,5.1667,4.4807,6.0849,1486
46662,15.178,-1.8064,17.9386,1483
46667,-8.7891,-0.4226,15.7945,1491
46672,-16.2818,4.0103,4.6699,1491
46677,3.5674,4.9249,4.8997,1511
46682,15.4881,-0.7111,17.5016,1479
46687,-7.3765,-1.3791,17.3113,1487
46692,-16.289,3.0957,5.2984,1509
46697,1.7083,5.3367,3.9684,1481
46702,15.129,0.2909,16.7055,1491
46707,-5.3091,-2.5271,18.2235,1511
46712,-15.6557,2.2075,5.9735,1495
46717,-0.2622,5.6012,3.2848,1506
46722,14.3209,1.2127,15.7718,1517
46727,-2.5055,-3.5123,18.81,1501
46732,-14.2838,1.5682,6.7912,1496
46737,-2.5809,5.9053,2.8862,1500
46742,13.1059,1.8292,14.5244,1509
46747,0.8823,-4.1946,18.919,1492
46752,-12.5899,1.1935,7.6459,1497
46757,-5.0254,6.1938,2.6803,1512
46762,11.7663,2.3284,13.0747,1495
46767,4.2844,-4.4939,18.9633,1500
46772,-11.2994,1.0415,8.6802,1523
46777,-7.4364,6.1675,2.7749,1495
46782,10.3908,2.7809,11.5448,1497
46787,7.7201,-4.5179,18.84,1491
46792,-10.3825,0.9481,9.8474,1493
46797,-9.9084,6.0597,2.9437,1495
46802,9.0082,3.219,9.9192,1503
46807,10.7859,-4.1396,18.7526,1485
46812,-9.8725,0.9146,11.3784,1497
46817,-12.3732,5.7724,3.1627,1507
46822,7.5669,3.6583,8.3366,1495
46827,13.1777,-3.4465,18.506,1469
46832,-9.6929,0.6967,13.0855,1542
46837,-14.5172,5.3056,3.559,1495
46842,6.1842,4.0929,6.8845,1503
46847,14.8069,-2.5055,18.2654,1495
46852,-9.3685,0.1006,14.7351,1509
46857,-15.949,4.5921,4.13,1495
46862,4.6699,4.5262,5.7413,1499
46867,15.4665,-1.4617,17.941,1487
46872,-8.521,-0.7434,16.283,1491
46877,-16.3117,3.6715,4.8171,1497
46882,3.1388,5.0003,4.6675,1511
46887,15.3037,-0.4812,17.3723,1483
46892,-7.0449,-1.7202,17.3149,1494
46897,-15.6856,2.788,5.4947,1506
46902,1.3467,5.5031,3.8966,1499
46907,14.6717,0.3771,16.7175,1493
46912,-4.8495,-2.6755,18.0439,1499
46917,-14.5819,2.0255,6.2632,1501
46922,-0.723,5.9209,3.2609,1495
46927,13.8157,1.0965,15.6856,1509
46932,-1.9764,-3.5183,18.2618,1499
46937,-13.2962,1.5287,6.9875,1507
46942,-2.9521,6.1806,2.9987,1507
46947,12.7276,1.6628,14.5783,1496
46952,1.3132,-4.1731,18.3982,1491
46957,-12.2511,1.2378,7.8087,1513
46962,-5.3403,6.3027,2.9281,1492
46967,11.6059,2.2218,13.1657,1495
46972,4.8435,-4.5131,18.3899,1497
46977,-11.2456,1.1815,8.8538,1495
46982,-7.92,6.3339,2.8862,1495
46987,10.3346,2.7497,11.6274,1494
46992,8.3067,-4.5191,18.3336,1507
46997,-10.556,1.1193,10.1107,1491
47002,-10.4842,6.1579,3.0275,1493
47007,8.9663,3.1759,9.9886,1501
47012,11.2468,-4.0654,18.3791,1471
47017,-10.0365,0.9792,11.6119,1505
47022,-12.8724,5.788,3.322,1513
47027,7.5381,3.6619,8.3773,1493
47032,13.4075,-3.3076,18.2127,1477
47037,-9.5026,0.595,13.1873,1517
47042,-14.7124,5.2433,3.7385,1489
47047,6.043,4.0989,6.6978,1503
47052,14.862,-2.3379,18.1121,1491
47057,-9.3218,0.0239,15.099,1497
47062,-16.0459,4.3766,4.2784,1499
47067,4.549,4.64,5.5809,1511
47072,15.439,-1.16,17.741,1485
47077,-8.3833,-0.9086,16.5056,1490
47082,-16.3404,3.4967,4.859,1500
47087,2.9137,5.0757,4.5466,1511
47092,15.342,-0.0168,17.2526,1485
47097,-6.7133,-2.0662,17.6932,1507
47102,-15.8317,2.5127,5.5929,1513
47107,1.0343,5.4899,3.7062,1499
47112,14.607,0.8499,16.3548,1493
47117,-4.2928,-3.0227,18.3911,1497
47122,-14.4263,1.7909,6.3865,1497
47127,-1.0822,5.8586,3.1113,1486
47132,13.5248,1.6089,15.3049,1507
47137,-1.4078,-3.7373,18.8879,1485
47142,-12.9957,1.2139,7.0988,1501
47147,-3.3232,6.11,2.8479,1499
47152,12.3074,2.1763,14.0336,1499
47157,1.8842,-4.3,18.6832,1498
47162,-11.6011,0.9708,8.1618,1512
47167,-5.8023,6.189,2.7916,1491
47172,11.1271,2.6145,12.6605,1485
47177,5.2122,-4.4281,18.6425,1501
47182,-10.7799,0.8835,9.1722,1503
47187,-8.1738,6.1363,2.9796,1491
47192,9.9335,3.0454,11.1151,1498
47197,8.3809,-4.2641,18.5287,1498
47202,-10.0904,0.8547,10.3585,1497
47207,-10.562,5.9077,3.0682,1484
47212,8.7209,3.4548,9.6642,1500
47217,11.1294,-3.79,18.4114,1491
47222,-9.7348,0.7195,11.8046,1497
47227,-12.8581,5.5486,3.3662,1515
47232,7.4376,3.8355,8.1175,1499
47237,13.2411,-3.0406,18.324,1493
47242,-9.5924,0.4681,13.441,1513
47247,-14.704,4.9811,3.8295,1502
47252,6.1292,4.2521,6.6535,1494
47257,14.5472,-2.1512,18.0678,1494
47262,-9.2931,-0.1257,14.9745,1501
47267,-15.8041,4.2784,4.3766,1501
47272,4.6711,4.6531,5.63,1527
47277,15.19,-1.1851,17.7075,1499
47282,-8.503,-0.9397,16.3572,1493
47287,-16.1501,3.5135,4.8997,1495
47292,3.0694,5.1224,4.6124,1509
47297,15.2403,-0.2765,17.1976,1494
47302,-6.9312,-1.8364,17.4765,1497
47307,-15.7562,2.6995,5.6371,1501
47312,1.2426,5.5438,3.8678,1497
47317,14.7387,0.4932,16.581,1491
47322,-4.7429,-2.7857,18.1816,1507
47327,-14.7291,2.0877,6.274,1497
47332,-0.8056,5.9197,3.2453,1497
47337,13.8349,1.1564,15.5946,1511
47342,-1.7621,-3.638,18.5048,1490
47347,-13.3285,1.6089,6.9947,1491
47352,-3.1328,6.1974,2.9233,1496
47357,12.7419,1.6053,14.5268,1486
47362,1.5215,-4.2784,18.427,1495
47367,-12.2763,1.3228,7.8757,1523
47372,-5.5198,6.3506,2.8455,1487
47377,11.5879,2.0937,13.1358,1493
47382,5.0027,-4.6292,18.4461,1511
47387,-11.3126,1.3156,8.8777,1513
47392,-8.0756,6.3638,2.8503,1491
47397,10.3154,2.5857,11.6358,1499
47402,8.2791,-4.628,18.3575,1501
47407,-10.5955,1.2737,10.1179,1495
47412,-10.5967,6.292,3.0311,1493
47417,9.007,3.0538,10.1622,1503
47422,11.0756,-4.2509,18.2678,1487
47427,-10.1909,1.2043,11.5305,1497
47432,-12.8988,5.9376,3.3124,1500
47437,7.7033,3.5087,8.5712,1489
47442,13.1897,-3.5901,18.075,1481
47447,-9.9527,0.7913,13.1286,1523
47452,-14.6381,5.3474,3.7553,1487
47457,6.3243,4.0378,7.2425,1501
47462,14.5651,-2.5989,18.0726,1496
47467,-9.6798,0.1987,14.5137,1509
47472,-15.6485,4.5119,3.9971,1507
47477,4.9201,4.5346,5.9041,1506
47482,15.1972,-1.5299,18.3647,1497
47487,-8.7293,-0.6129,16.0591,1506
47492,-15.931,3.5805,4.7764,1498
47497,3.3028,5.0266,4.4963,1513
47502,15.263,-0.7087,17.4657,1483
47507,-7.2377,-1.5862,17.0491,1445
47512,-15.5575,2.8635,5.6611,1508
47517,1.3743,5.5162,4.1743,1501
47522,15.0033,0.3938,16.7307,1486
47527,-5.2026,-2.6001,18.0116,1508
47532,-15.1302,2.0901,6.0322,1508
47537,-0.3938,5.7221,3.2573,1495
47542,14.2862,1.2498,15.5276,1541
47547,-2.1452,-3.5937,18.7562,1491
47552,-13.4578,1.5514,7.0366,1495
47557,-2.8503,6.0741,3.0071,1503
47562,12.9119,1.9968,14.5723,1505
47567,0.8966,-4.2078,18.7023,1483
47572,-12.5696,1.0056,7.6471,1503
47577,-4.9787,6.0861,2.7677,1497
47582,11.8166,2.6121,13.1226,1485
47587,4.3922,-4.4975,18.8412,1491
47592,-10.9415,1.0307,8.8609,1513
47597,-7.9559,6.1304,2.7749,1499
47602,10.4267,2.9975,11.6238,1502
47607,7.4591,-4.391,18.4294,1507
47612,-10.3022,0.8272,10.0521,1497
47617,-10.2113,5.9472,3.134,1498
47622,9.2715,3.3303,10.1861,1508
47627,10.1646,-3.9277,18.2761,1483
47632,-9.9036,0.8021,11.4263,1495
47637,-12.4965,5.5474,3.4895,1499
47642,8.0409,3.6308,8.6299,1499
47647,12.1051,-3.1627,17.9972,1479
47652,-9.7169,0.504,12.9706,1515
47657,-14.1114,4.9919,4.0402,1499
47662,6.7828,4.039,7.3646,1509
47667,13.526,-2.3343,17.7793,1494
47672,-9.5529,0.0814,14.3772,1502
47677,-15.1098,4.2784,4.4819,1487
47682,5.4672,4.5119,6.0693,1495
47687,14.4454,-1.421,17.4442,1501
47692,-8.9088,-0.5267,15.8209,1502
47697,-15.6078,3.5326,5.0386,1500
47702,3.9576,4.9572,5.0829,1509
47707,14.6034,-0.583,17.2263,1491
47712,-7.7249,-1.2677,16.8911,1500
47717,-15.5551,2.8647,5.533,1495
47722,2.2889,5.4277,4.1815,1494
47727,14.68,0.2322,16.745,1492
47732,-5.8335,-2.2553,17.8799,1503
47737,-14.9063,2.2206,6.0849,1495
47742,0.2801,5.7389,3.5518,1500
47747,14.1461,0.8452,16.0675,1497
47752,-3.2346,-3.0933,18.2582,1485
47757,-14.0971,1.6867,6.6355,1501
47762,-1.804,5.9532,3.1101,1493
47767,13.4171,1.5622,14.9255,1497
47772,-0.176,-3.9014,18.6209,1491
47777,-13.0544,1.2881,7.4735,1511
47782,-4.1216,6.1327,2.8718,1481
47787,12.3122,2.2063,13.6757,1495
47792,3.1232,-4.4089,18.7406,1499
47797,-11.71,1.0056,8.3234,1507
47802,-6.6918,6.1734,2.7605,1485
47807,11.0935,2.7246,12.2727,1491
47812,6.3315,-4.5346,18.5946,1499
47817,-10.7368,0.905,9.5277,1495
47822,-9.2727,6.0346,2.9018,1490
47827,9.8617,3.1999,10.6889,1503
47832,9.159,-4.1444,18.3899,1495
47837,-10.1155,0.8703,10.8924,1501
47842,-11.6191,5.8,3.1999,1501
47847,8.6036,3.5542,9.25,1491
47852,11.4156,-3.5865,18.2175,1479
47857,-9.7624,0.674,12.3816,1495
47862,-13.4506,5.3451,3.6248,1496
47867,7.3981,3.9049,7.7895,1507
47872,13.0676,-2.7641,18.0224,1491
47877,-9.5074,0.3208,13.8038,1508
47882,-14.7806,4.7202,4.1671,1491
47887,6.0262,4.3096,6.5613,1503
47892,14.2096,-1.9166,17.8524,1492
47897,-9.1351,-0.1963,15.1673,1507
47902,-15.6712,4.0354,4.6675,1490
47907,4.5789,4.7166,5.4049,1517
47912,14.8033,-1.0642,17.5399,1484
47917,-8.3091,-0.9421,16.4685,1501
47922,-15.8388,3.2884,5.1344,1513
47927,2.9748,5.1655,4.5993,1507
47932,14.8369,-0.2502,17.018,1496
47937,-6.8857,-1.7657,17.3771,1499
47942,-15.4163,2.5893,5.7365,1500
47947,1.2761,5.5689,3.869,1495
47952,14.5268,0.6009,16.3668,1483
47957,-4.5538,-2.7821,18.0176,1511
47962,-14.3221,1.9333,6.4536,1497
47967,-0.7781,5.9412,3.3495,1493
47972,13.6446,1.2917,15.5049,1513
47977,-1.804,-3.5482,18.2474,1494
47982,-13.052,1.4676,7.1898,1515
47987,-2.9664,6.2489,3.0143,1513
47992,12.56,1.7789,14.4466,1483
47997,1.2737,-4.1168,18.3815,1506
48002,-11.9076,1.2079,7.9978,1518
48007,-5.1834,6.2932,2.8718,1485
48012,11.5305,2.2434,13.0819,1493
48017,4.4616,-4.4005,18.4509,1495
48022,-11.0456,1.1277,8.928,1517
48027,-7.5729,6.2656,2.9317,1486
48032,10.3178,2.6468,11.6119,1495
48037,7.519,-4.3874,18.5263,1497
48042,-10.3825,1.0295,10.0018,1509
48047,-9.8533,6.0561,3.0885,1508
48052,9.1842,3.1544,10.0473,1509
48057,10.3477,-4.1108,18.5479,1489
48062,-9.9958,0.9349,11.3437,1495
48067,-12.1542,5.7964,3.2717,1515
48072,7.9655,3.6284,8.521,1493
48077,12.7024,-3.5111,18.3755,1491
48082,-9.7803,0.7207,12.8042,1517
48087,-14.1102,5.3091,3.5314,1486
48092,6.6607,4.0534,7.203,1499
48097,14.2539,-2.6348,18.2247,1493
48102,-9.4739,0.2598,14.5029,1501
48107,-15.5037,4.7214,3.9516,1494
48112,5.2194,4.4365,5.8838,1491
48117,15.1074,-1.7334,17.9254,1498
48122,-8.8418,-0.4884,15.8951,1501
48127,-16.1704,3.8774,4.6507,1497
48132,3.723,4.8794,4.9141,1509
48137,15.3049,-0.6632,17.5256,1491
48142,-7.677,-1.4545,17.1688,1493
48147,-16.0699,3.0215,5.2792,1510
48152,2.0973,5.2648,3.978,1487
48157,14.9051,0.3627,16.8001,1479
48162,-5.8646,-2.4325,18.0738,1513
48167,-15.2547,2.2003,6.0047,1499
48172,0.3136,5.6743,3.3435,1493
48177,14.1461,1.1839,15.9298,1499
48182,-3.3267,-3.237,18.5766,1497
48187,-13.9498,1.6065,6.7014,1501
48192,-1.7837,5.9388,2.9664,1497
48197,13.1083,1.743,14.8728,1497
48202,-0.4429,-3.8762,18.7909,1482
48207,-12.5791,1.1899,7.4927,1501
48212,-3.9792,6.1531,2.8539,1493
48217,11.9926,2.1871,13.6039,1485
48222,2.7473,-4.2545,18.6724,1491
48227,-11.5137,0.984,8.4432,1507
48232,-6.3722,6.189,2.8359,1489
48237,10.9427,2.6408,12.317,1491
48242,5.9388,-4.385,18.5287,1514
48247,-10.7332,1.0032,9.4523,1499
48252,-8.8573,6.0873,3.0406,1495
48257,9.7755,3.0478,10.8888,1509
48262,8.9507,-4.2629,18.3109,1495
48267,-10.2592,0.9146,10.7835,1493
48272,-11.1869,5.8646,3.2573,1507
48277,8.6622,3.4381,9.4308,1495
48282,11.3713,-3.7302,18.1385,1479
48287,-9.8952,0.7458,12.159,1498
48292,-13.3106,5.4121,3.5554,1497
48297,7.4496,3.9133,7.9009,1503
48302,13.0915,-2.8611,18.0295,1489
48307,-9.5996,0.2873,13.6841,1515
48312,-14.7926,4.7597,4.0869,1495
48317,6.2225,4.288,6.6343,1501
48322,14.1749,-1.9094,17.7889,1495
48327,-9.2021,-0.2741,15.2199,1494
48332,-15.6772,3.9959,4.5873,1501
48337,4.8459,4.7274,5.5019,1519
48342,14.6633,-0.8547,17.3927,1494
48347,-8.3761,-1.0439,16.5092,1495
48352,-15.8963,3.1771,5.1739,1497
48357,3.3184,5.1272,4.543,1499
48362,14.6753,0.0754,16.9462,1492
48367,-6.8941,-1.889,17.4573,1507
48372,-15.5228,2.399,5.7413,1508
48377,1.6185,5.5115,3.7589,1493
48382,14.2479,0.9577,16.2794,1499
48387,-4.7896,-2.788,18.2654,1503
48392,-14.4646,1.7585,6.462,1495
48397,-0.3926,5.8323,3.2513,1487
48402,13.386,1.6281,15.3313,1518
48407,-2.1368,-3.4848,18.5599,1491
48412,-13.2016,1.2857,7.1575,1507
48417,-2.5534,6.0885,2.9808,1512
48422,12.3948,2.1057,14.2479,1495
48427,0.8691,-4.0127,18.6425,1496
48432,-11.9387,0.984,7.9703,1509
48437,-4.8554,6.1902,2.8647,1489
48442,11.3318,2.4708,12.9119,1485
48447,3.9995,-4.221,18.5575,1493
48452,-10.9259,0.8104,8.9854,1509
48457,-7.1587,6.1543,2.9772,1485
48462,10.2436,2.7701,11.5269,1497
48467,6.8211,-4.1372,18.4533,1501
48472,-10.2328,0.8272,10.0712,1499
48477,-9.4703,5.946,3.2298,1491
48482,9.2356,3.1149,10.1071,1509
48487,9.4715,-3.8499,18.2223,1477
48492,-9.8581,0.6907,11.3437,1495
48497,-11.6107,5.539,3.5733,1511
48502,8.2157,3.5362,8.7412,1503
48507,11.6071,-3.2022,18.0571,1479
48512,-9.7229,0.5219,12.7348,1502
48517,-13.441,5.126,3.9744,1509
48522,7.1036,3.9301,7.3682,1503
48527,13.137,-2.4588,17.9122,1487
48532,-9.4643,0.1065,14.1904,1507
48537,-14.7794,4.5179,4.4353,1492
48542,5.8921,4.3251,6.195,1497
48547,14.0348,-1.6101,17.6848,1501
48552,-9.0429,-0.4788,15.5108,1497
48557,-15.5647,3.8367,4.9201,1496
48562,4.5346,4.8363,5.2182,1515
48567,14.4514,-0.7087,17.3807,1493
48572,-8.1044,-1.1911,16.5822,1493
48577,-15.5791,3.0885,5.5031,1500
48582,3.0335,5.3403,4.3898,1495
48587,14.37,0.1173,16.8959,1491
48592,-6.6667,-2.0135,17.4753,1503
48597,-15.1326,2.3008,6.0071,1500
48602,1.2665,5.7281,3.7792,1499
48607,13.9881,0.929,16.1573,1483
48612,-4.4412,-2.8527,18.081,1511
48617,-14.3054,1.7166,6.5553,1491
48622,-0.6428,5.9843,3.2238,1491
48627,13.2399,1.6269,15.2307,1507
48632,-1.6987,-3.5985,18.4928,1487
48637,-12.9861,1.2797,7.2413,1502
48642,-2.8826,6.177,2.9808,1503
48647,12.2775,2.1823,14.1916,1491
48652,1.2438,-4.0282,18.561,1491
48657,-11.8094,0.9852,8.0936,1507
48662,-5.1583,6.2333,2.9341,1493
48667,11.2599,2.4792,12.8581,1497
48672,4.3694,-4.2413,18.3731,1495
48677,-10.8302,0.8799,9.104,1517
48682,-7.5501,6.1603,3.1113,1499
48687,10.2185,2.8527,11.4862,1493
48692,7.3382,-4.1707,18.2845,1491
48697,-10.343,0.8104,10.1718,1499
48702,-9.809,5.8981,3.3004,1497
48707,9.2201,3.2322,10.0688,1507
48712,10.1083,-3.8858,18.1564,1485
48717,-10.0293,0.7697,11.5652,1493
48722,-12.1183,5.5917,3.5267,1519
48727,8.0541,3.6715,8.6203,1497
48732,12.2966,-3.2585,17.9374,1483
48737,-9.8497,0.4956,13.0316,1512
48742,-13.9773,5.0506,3.8906,1499
48747,6.8917,4.0965,7.3083,1507
48752,13.7918,-2.3403,17.8248,1481
48757,-9.5265,-0.0359,14.4861,1507
48762,-15.4294,4.3323,4.3562,1496
48767,5.5438,4.4724,6.0286,1510
48772,14.5639,-1.2163,17.5315,1503
48777,-8.8562,-0.7159,15.9322,1493
48782,-15.9035,3.4884,4.9871,1507
48787,4.1336,4.8686,4.974,1516
48792,14.7351,-0.1844,17.1377,1484
48797,-7.774,-1.4832,16.9833,1493
48802,-15.84,2.7282,5.5019,1499
48807,2.5283,5.2732,4.1432,1494
48812,14.5579,0.7242,16.4721,1491
48817,-6.0992,-2.3008,17.9182,1519
48822,-15.1553,1.9968,6.1076,1497
48827,0.6201,5.6084,3.6332,1496
48832,14.0755,1.4222,15.779,1510
48837,-3.7457,-3.1149,18.4497,1493
48842,-14.3377,1.4006,6.6714,1511
48847,-1.2953,5.8012,3.2034,1503
48852,13.4279,2.1272,14.7674,1495
48857,-0.7566,-3.8379,18.7801,1491
48862,-13.0352,0.9888,7.4747,1501
48867,-3.638,5.934,3.0095,1499
48872,12.3505,2.6109,13.5895,1492
48877,2.4924,-4.215,18.5982,1500
48882,-11.7711,0.7769,8.4324,1509
48887,-6.0645,6.0561,2.958,1497
48892,11.1534,2.9233,12.2799,1493
48897,5.5366,-4.3431,18.3851,1499
48902,-10.8206,0.7757,9.5397,1505
48907,-8.5138,6.0274,3.1568,1501
48912,10.0221,3.1544,10.8386,1503
48917,8.3534,-4.1563,18.1768,1496
48922,-10.2448,0.7422,10.7105,1499
48927,-10.7488,5.849,3.4752,1496
48932,8.8801,3.462,9.505,1508
48937,10.738,-3.6847,18.0786,1480
48942,-9.9395,0.5698,12.0488,1497
48947,-12.8221,5.4672,3.8271,1510
48952,7.6722,3.7565,8.1451,1493
48957,12.5396,-2.9772,17.8093,1491
48962,-9.754,0.3184,13.477,1523
48967,-14.4358,4.9021,4.2497,1498
48972,6.4811,4.1815,6.9815,1496
48977,13.7032,-2.1272,17.4597,1493
48982,-9.3996,-0.1544,14.7734,1511
48987,-15.2954,4.1875,4.8028,1503
48992,5.1954,4.6352,5.8969,1517
48997,14.4035,-1.2007,17.17,1485
49002,-8.6048,-0.8918,16.0124,1497
49007,-15.5456,3.4429,5.3127,1499
49012,3.7026,5.0805,4.9584,1508
49017,14.4131,-0.3567,16.8372,1500
49022,-7.1994,-1.7142,16.7846,1497
49027,-15.0703,2.642,5.9137,1507
49032,1.9692,5.5809,4.288,1495
49037,14.1557,0.4034,16.2686,1487
49042,-5.3343,-2.5319,17.4011,1503
49047,-14.1581,1.9956,6.5685,1502
49052,-0.0036,5.9089,3.7565,1485
49057,13.5081,1.0367,15.603,1514
49062,-2.8204,-3.2789,17.7769,1494
49067,-13.2292,1.5359,7.1635,1501
49072,-2.0351,6.2273,3.4524,1491
49077,12.8245,1.6269,14.6393,1497
49082,-0.0455,-3.8571,17.9374,1483
49087,-12.22,1.1696,7.853,1507
49092,-4.2138,6.292,3.2358,1501
49097,11.886,2.1787,13.4853,1490
49102,2.9688,-4.1671,17.9505,1498
49107,-11.3437,1.0163,8.7388,1513
49112,-6.529,6.2333,3.2429,1497
49117,10.9822,2.6564,12.3289,1495
49122,5.855,-4.3072,17.9278,1502
49127,-10.7164,0.8882,9.8078,1487
49132,-8.8645,6.0394,3.3028,1499
49137,9.9886,3.1029,10.8804,1509
49142,8.6191,-4.057,17.7937,1487
49147,-10.246,0.7949,11.0325,1490
49152,-11.0684,5.7581,3.6559,1513
49157,8.8861,3.4548,9.5014,1495
49162,10.7117,-3.4704,17.6979,1485
49167,-10.0341,0.5794,12.2727,1503
49172,-12.8844,5.2864,4.0342,1511
49177,7.847,3.8271,8.2408,1501
49182,12.4989,-2.7414,17.5351,1481
49187,-9.7552,0.2789,13.6733,1515
49192,-14.4167,4.6459,4.4424,1485
49197,6.5841,4.2353,6.8893,1507
49202,13.4889,-1.8136,17.2742,1491
49207,-9.2979,-0.2837,14.9566,1497
49212,-15.1373,3.9097,4.9452,1497
49217,5.357,4.7214,5.8323,1516
49222,14.0707,-0.9553,17.0707,1483
49227,-8.521,-0.9409,16.0986,1503
49232,-15.3492,3.1843,5.4324,1503
49237,3.7601,5.1212,4.8602,1512
49242,14.1629,-0.1604,16.7271,1486
49247,-7.2233,-1.6472,16.9486,1497
49252,-15.0009,2.5594,5.9197,1509
49257,2.0889,5.5905,4.124,1495
49262,13.9941,0.5315,16.2854,1495
49267,-5.5234,-2.4229,17.5675,1497
49272,-14.5029,1.9812,6.4129,1481
49277,0.1125,5.8885,3.62,1494
49282,13.6888,1.0965,15.6389,1497
49287,-2.9748,-3.1807,18.0451,1497
49292,-13.4734,1.5143,6.9719,1503
49297,-2.0291,6.0849,3.2717,1503
49302,12.9431,1.8136,14.7471,1503
49307,-0.018,-3.9145,18.2989,1491
49312,-12.627,1.1468,7.6626,1508
49317,-4.1851,6.0932,3.0754,1483
49322,12.1518,2.3571,13.5105,1487
49327,3.1891,-4.3562,18.3432,1497
49332,-11.5233,0.899,8.6359,1517
49337,-6.7588,6.1591,3.0227,1500
49342,10.9714,2.8766,12.1518,1497
49347,6.1483,-4.4053,18.1935,1511
49352,-10.6123,0.7075,9.7863,1493
49357,-9.171,5.9137,3.2226,1495
49362,9.8952,3.3196,10.7081,1501
49367,8.6443,-3.9995,17.9338,1494
49372,-10.0425,0.5195,11.133,1503
49377,-11.3437,5.5186,3.6057,1523
49382,8.8131,3.6416,9.256,1497
49387,10.6937,-3.2441,17.6225,1493
49392,-9.7659,0.34,12.5803,1503
49397,-13.0328,4.9201,4.1659,1501
49402,7.7369,3.9911,7.9045,1509
49407,12.1027,-2.2877,17.3663,1481
49412,-9.5481,-0.0024,13.8708,1519
49417,-14.048,4.2461,4.7525,1493
49422,6.62,4.3359,6.705,1501
49427,13.1202,-1.2881,17.0742,1496
49432,-9.1482,-0.4968,15.1972,1495
49437,-14.777,3.4453,5.2565,1497
49442,5.3091,4.725,5.624,1509
49447,13.6242,-0.3065,16.7546,1493
49452,-8.4815,-1.221,16.3273,1499
49457,-15.0787,2.6719,5.6575,1493
49462,3.735,5.1918,4.7884,1506
49467,13.8481,0.5255,16.3548,1485
49472,-7.2089,-1.8747,17.2921,1497
49477,-14.6848,2.0315,6.1555,1501
49482,1.9465,5.5785,4.0474,1485
49487,13.5021,1.2282,15.8652,1483
49492,-5.3379,-2.6169,17.759,1503
49497,-14.1007,1.5071,6.6415,1507
49502,0.1113,5.873,3.6787,1491
49507,13.2627,1.8244,15.2463,1502
49512,-2.8802,-3.2789,18.0894,1485
49517,-12.8664,1.1396,7.2353,1507
49522,-2.0674,6.0537,3.298,1503
49527,12.3577,2.2434,14.3868,1494
49532,-0.067,-3.7469,18.1265,1485
49537,-12.159,0.8882,7.9116,1511
49542,-4.1839,6.1806,3.1795,1485
49547,11.7591,2.5798,13.3513,1479
49552,3.0035,-4.1096,18.0236,1500
49557,-10.9966,0.8272,8.7999,1513
49562,-6.596,6.0873,3.201,1491
49567,10.6506,2.8287,12.0321,1491
49572,5.7545,-4.0223,17.9374,1509
49577,-10.4758,0.6859,9.9036,1486
49582,-8.7628,5.8981,3.5039,1494
49587,9.9599,3.1065,10.7751,1497
49592,8.3881,-3.8008,17.6513,1494
49597,-10.1227,0.7219,11.0732,1499
49602,-10.9367,5.5534,3.7481,1513
49607,8.8346,3.4153,9.3494,1503
49612,10.6374,-3.2537,17.5543,1491
49617,-9.9311,0.5195,12.4953,1501
49622,-12.7982,5.1188,4.0761,1511
49627,7.7764,3.8044,8.1223,1495
49632,12.4068,-2.5307,17.4465,1485
49637,-9.8186,0.249,13.7798,1513
49642,-14.2515,4.5286,4.4736,1489
49647,6.5613,4.2054,6.8235,1501
49652,13.5488,-1.6712,17.3268,1491
49657,-9.3877,-0.267,15.1014,1503
49662,-15.1577,3.8307,4.9285,1487
49667,5.1799,4.6998,5.6946,1519
49672,14.0875,-0.9313,17.1736,1495
49677,-8.5988,-0.8966,16.0842,1500
49682,-15.4282,3.1879,5.4109,1503
49687,3.6739,5.126,4.9285,1497
49692,14.4047,-0.1281,16.7929,1495
49697,-7.2748,-1.6664,17.0048,1493
49702,-15.1038,2.4816,5.8646,1509
49707,1.8986,5.533,4.1492,1497
49712,14.1414,0.5758,16.2818,1482
49717,-5.2792,-2.4912,17.6477,1497
49722,-14.3772,1.9225,6.4452,1506
49727,0.0335,5.9041,3.6524,1496
49732,13.6972,1.221,15.627,1512
49737,-2.8407,-3.2346,17.9577,1487
49742,-13.4051,1.4832,7.0413,1501
49747,-2.0303,6.0585,3.2657,1511
49752,12.9419,1.7825,14.7016,1499
49757,0.0611,-3.8559,18.081,1485
49762,-12.1997,1.1696,7.8853,1513
49767,-4.3072,6.195,3.0969,1499
49772,11.9686,2.2685,13.5895,1483
49777,2.9401,-4.2174,18.0044,1503
49782,-11.5149,0.984,8.7149,1503
49787,-6.596,6.0753,3.1723,1494
49792,11.0804,2.7689,12.2667,1496
49797,5.9664,-4.3251,17.9386,1511
49802,-10.7727,0.8691,9.8258,1493
49807,-9.0704,5.9867,3.3495,1493
49812,10.0054,3.1472,10.8433,1513
49817,8.5126,-4.0247,17.7722,1489
49822,-10.2867,0.7039,11.0756,1497
49827,-11.1055,5.6838,3.699,1515
49832,8.9639,3.5949,9.5864,1498
49837,10.6207,-3.3866,17.5447,1483
49842,-9.9431,0.5602,12.3661,1503
49847,-12.8509,5.1427,4.0893,1496
49852,7.8949,3.9313,8.1295,1497
49857,12.2044,-2.563,17.3735,1487
49862,-9.7145,0.2167,13.7427,1525
49867,-14.1605,4.4388,4.531,1481
49872,6.7361,4.3,6.9516,1497
49877,13.3201,-1.6879,17.164,1481
49882,-9.402,-0.2909,15.0511,1501
49887,-14.9781,3.7218,5.029,1493
49892,5.3989,4.701,5.8861,1507
49897,13.9402,-0.7314,16.8229,1497
49902,-8.6874,-0.9254,16.2004,1501
49907,-15.202,2.9987,5.5414,1491
49912,3.9253,5.0841,4.9979,1511
49917,14.0707,0.1425,16.4769,1492
49922,-7.4747,-1.6508,17.0324,1495
49927,-15.1086,2.2865,5.9604,1515
49932,2.2721,5.4624,4.2617,1499
49937,14.0923,0.9637,16.0531,1493
49942,-5.6659,-2.4553,17.7662,1511
49947,-14.3257,1.6664,6.4847,1501
49952,0.3687,5.703,3.7038,1496
49957,13.532,1.7178,15.3588,1509
49962,-3.3303,-3.1292,18.1397,1494
49967,-13.374,1.1193,7.0689,1494
49972,-1.658,5.9496,3.3686,1493
49977,12.9071,2.3367,14.5376,1495
49982,-0.5686,-3.7625,18.2438,1481
49987,-12.1661,0.8021,7.8183,1499
49992,-3.8786,5.9532,3.1663,1497
49997,11.989,2.8575,13.4806,1489
50002,2.3092,-4.0845,18.1313,1499
50007,-11.218,0.6117,8.7424,1512
50012,-6.128,5.9137,3.1939,1489
50017,11.1378,3.2214,12.3265,1504
50022,5.0973,-4.148,17.9733,1499
50027,-10.3932,0.4717,9.6941,1509
50032,-8.3665,5.6838,3.3531,1499
50037,10.1418,3.4728,10.9116,1510
50042,7.6507,-3.7385,17.8129,1487
50047,-9.9491,0.4417,10.9188,1493
50052,-10.3753,5.3941,3.7637,1516
50057,9.1638,3.6595,9.5996,1487
50062,9.7085,-3.1807,17.4657,1480
50067,-9.8845,0.3065,12.1901,1497
50072,-12.0249,4.9249,4.1911,1506
50077,8.1798,3.9289,8.3965,1495
50082,11.5843,-2.4098,17.2478,1478
50087,-9.7492,0.1353,13.5955,1517
50092,-13.4937,4.373,4.5993,1498
50097,7.0102,4.1899,7.088,1503
50102,12.6713,-1.64,17.0635,1499
50107,-9.481,-0.2143,14.771,1499
50112,-14.3844,3.735,5.0374,1495
50117,5.7904,4.6029,6.1304,1506
50122,13.6936,-0.8236,16.7474,1492
50127,-9.0704,-0.747,15.9717,1485
50132,-15.0009,3.0646,5.4504,1511
50137,4.2964,4.9787,5.1116,1497
50142,13.9055,-0.0766,16.6912,1487
50147,-7.9499,-1.3934,16.8133,1506
50152,-15.0308,2.4541,5.8598,1499
50157,2.7737,5.3702,4.4927,1497
50162,14.2072,0.6823,16.1992,1485
50167,-6.2956,-2.1775,17.601,1513
50172,-14.5951,1.8962,6.2465,1496
50177,0.9182,5.697,3.7014,1498
50182,13.6948,1.3958,15.7239,1495
50187,-3.9528,-2.9353,18.075,1489
50192,-13.69,1.391,6.8426,1493
50197,-1.087,5.9316,3.4022,1487
50202,13.1813,1.8878,14.9159,1509
50207,-1.306,-3.5554,18.2498,1483
50212,-12.6797,1.0355,7.4627,1507
50217,-3.3315,6.0166,3.1101,1499
50222,12.3529,2.3978,13.8864,1495
50227,1.7561,-4.0534,18.3611,1493
50232,-11.5293,0.8499,8.3677,1544
50237,-5.6707,6.037,3.0574,1485
50242,11.4335,2.7892,12.6629,1496
50247,4.5502,-4.1875,18.2055,1511
50252,-10.8948,0.6572,9.2703,1494
50257,-7.859,5.8514,3.158,1501
50262,10.5321,3.2645,11.3904,1497
50267,7.4795,-4.0235,18.1181,1485
50272,-10.2364,0.6596,10.4663,1507
50277,-10.2316,5.6503,3.3411,1493
50282,9.402,3.5267,9.8641,1509
50287,9.8282,-3.5338,17.9242,1485
50292,-9.9347,0.4645,11.7795,1493
50297,-12.2523,5.2445,3.7697,1507
50302,8.3187,3.8164,8.6072,1493
50307,11.6669,-2.8252,17.6979,1493
50312,-9.821,0.2574,13.1932,1508
50317,-13.781,4.6723,4.2174,1490
50322,7.1838,4.1252,7.2832,1502
50327,12.9335,-1.9034,17.3951,1491
50332,-9.5457,-0.1209,14.5532,1495
50337,-14.8213,3.9109,4.7908,1497
50342,6.0011,4.5346,6.2046,1507
50347,13.7475,-1.0355,17.1138,1484
50352,-9.08,-0.6488,15.7658,1503
50357,-15.3839,3.1723,5.1858,1507
50362,4.5454,4.9692,5.2194,1514
50367,14.1904,-0.0491,16.7786,1479
50372,-8.0948,-1.3539,16.9114,1497
50377,-15.3636,2.3786,5.7389,1511
50382,2.897,5.3056,4.3682,1491
50387,14.1222,0.8583,16.3033,1494
50392,-6.4667,-2.162,17.5998,1512
50397,-14.6549,1.7119,6.2441,1491
50402,1.1025,5.5929,3.8307,1496
50407,13.7427,1.6424,15.7527,1501
50412,-4.227,-2.9209,18.1121,1501
50417,-13.6158,1.1624,6.8929,1495
50422,-0.9469,5.7868,3.3232,1491
50427,13.1035,2.3164,14.856,1499
50432,-1.5909,-3.535,18.2426,1484
50437,-12.4965,0.7697,7.5501,1508
50442,-3.1568,5.9484,3.1735,1494
50447,12.2763,2.8108,13.8924,1487
50452,7.6543,-3.7912,17.8727,1487
50457,-11.3772,0.5818,8.3845,1517
50462,-10.4782,5.4887,3.5231,1497
50467,11.3066,3.0239,12.5564,1485
50472,9.9742,-3.2286,17.6477,1517
50477,-9.7576,0.3711,12.074,1497
50482,-12.4534,5.023,3.9696,1493
50487,8.1654,3.8834,8.3725,1509
50492,11.807,-2.5486,17.4358,1483
50497,-9.748,0.2274,13.5332,1503
50502,-14.0037,4.4329,4.3706,1499
50507,6.9671,4.2102,7.1108,1499
50512,13.1921,-1.7705,17.2634,1469
50517,-9.5517,-0.1269,14.9159,1503
50522,-15.0057,3.8199,4.8674,1498
50527,5.6288,4.6196,5.9807,1499
50532,13.9378,-0.7793,17.0515,1469
50537,-8.8921,-0.7063,16.022,1521
50542,-15.4618,3.0754,5.3163,1493
50547,4.1168,4.9991,4.9943,1508
50552,14.3449,0.0515,16.7798,1491
50557,-7.6291,-1.5155,16.9785,1507
50562,-15.1936,2.381,5.8071,1501
50567,2.3068,5.3834,4.2054,1516
50572,14.127,0.7901,16.3572,1497
50577,-5.8012,-2.3092,17.6752,1497
50582,-14.4969,1.7202,6.3997,1509
50587,0.4441,5.6838,3.7326,1511
50592,13.7523,1.4928,15.6282,1482
50597,-3.3435,-3.1101,18.0738,1495
50602,-13.3932,1.2055,7.0246,1497
50607,-1.7861,5.8826,3.3243,1487
50612,13.0364,2.1488,14.7028,1493
50617,-0.4286,-3.6883,18.1516,1501
50622,-12.1997,0.8811,7.8123,1491
50627,-4.0618,6.0645,3.2741,1497
50632,12.0979,2.5929,13.6182,1509
50637,2.5606,-4.0498,17.9374,1495
50642,-11.2887,0.735,8.7448,1507
50647,-6.4596,5.9963,3.2082,1495
50652,11.1701,2.9233,12.226,1511
50657,5.4755,-4.1132,17.82,1497
50662,-10.5931,0.7207,9.8509,1507
50667,-8.8143,5.8897,3.4572,1491
50672,10.1646,3.1651,10.9702,1492
50677,8.0529,-3.8164,17.6237,1491
50682,-10.2627,0.6859,11.0552,1515
50687,-10.835,5.5462,3.7362,1492
50692,9.1339,3.4261,9.5876,1491
50697,10.3489,-3.31,17.5088,1501
50702,-10.0281,0.6261,12.3325,1509
50707,-12.7383,5.0925,4.1755,1501
50712,8.0086,3.7745,8.2588,1503
50717,12.1063,-2.5786,17.2885,1491
50722,-9.8701,0.3172,13.6374,1487
50727,-14.1114,4.4412,4.5705,1509
50732,6.7708,4.2102,7.0354,1493
50737,13.3884,-1.6975,17.1126,1469
50742,-9.5277,-0.1305,15.0308,1511
50747,-15.0954,3.7182,5.0099,1505
50752,5.3403,4.5981,5.867,1500
50757,14.0121,-0.7733,16.8887,1490
50762,-8.685,-0.8392,16.1249,1517
50767,-15.2702,2.976,5.5091,1485
50772,3.8211,5.0865,4.9356,1481
50777,14.1677,0.0036,16.6373,1497
50782,-7.276,-1.6101,16.9617,1499
50787,-14.85,2.3032,6.0202,1497
50792,1.9872,5.4779,4.1168,1523
50797,13.9199,0.7769,16.1106,1485
50802,-5.2601,-2.4816,17.5064,1492
50807,-14.0623,1.7921,6.6307,1509
50812,0.0036,5.8754,3.6332,1492
50817,13.4554,1.3671,15.4007,1487
50822,-2.7198,-3.1879,17.8691,1507
50827,-13.1262,1.3192,7.2365,1463
50832,-2.162,6.0765,3.3351,1485
50837,12.7635,1.8316,14.4945,1499
50842,0.231,-3.7409,17.996,1513
50847,-11.91,1.1157,8.0828,1508
50852,-4.5406,6.1902,3.2298,1506
50857,11.7867,2.2745,13.3058,1497
50862,3.1161,-4.039,17.8081,1485
50867,-11.224,0.9876,8.9735,1499
50872,-6.8007,6.1172,3.3435,1499
50877,10.9475,2.648,12.0787,1523
50882,6.0059,-4.1049,17.7207,1483
50887,-10.5931,0.996,10.07,1505
50892,-9.1135,5.9484,3.5027,1487
50897,9.8869,2.9736,10.6829,1491
50902,8.6179,-3.875,17.5938,1508
50907,-10.246,0.9062,11.3461,1518
50912,-11.1606,5.6503,3.8199,1493
50917,8.9256,3.2956,9.3242,1492
50922,10.7392,-3.4285,17.5232,1501
50927,-10.0293,0.7638,12.5348,1494
50932,-12.9191,5.1631,4.1563,1502
50937,7.7536,3.7266,7.9499,1508
50942,12.3529,-2.7198,17.5232,1477
50947,-9.7863,0.4202,13.8038,1503
50952,-14.2539,4.5837,4.5825,1510
50957,6.511,4.1719,6.7768,1497
50962,13.4422,-1.9261,17.3639,1483
50967,-9.3302,-0.0455,15.0392,1505
50972,-15.0763,3.9229,5.0051,1507
50977,5.1427,4.6914,5.709,1495
50982,14.1605,-1.0618,17.1245,1492
50987,-8.5401,-0.7949,16.2303,1502
50992,-15.378,3.1915,5.448,1491
50997,3.5434,5.1655,4.8028,1496
51002,14.2275,-0.3256,16.8121,1495
51007,-7.0952,-1.6089,17.0048,1485
51012,-15.1457,2.545,5.9448,1493
51017,1.7968,5.5773,4.0797,1509
51022,14.1378,0.5231,16.277,1492
51027,-5.0961,-2.4936,17.6824,1496
51032,-14.1713,1.9225,6.535,1500
51037,-0.2251,5.8981,3.5087,1508
51042,13.4662,1.166,15.5539,1496
51047,-2.5774,-3.2465,17.9565,1509
51052,-13.198,1.4473,7.2053,1513
51057,-2.2505,6.1028,3.2753,1483
51062,12.7922,1.8244,14.5591,1493
51067,0.2801,-3.8475,18.1193,1509
51072,-12.0847,1.136,7.8997,1497
51077,-4.5885,6.1495,3.1053,1495
51082,11.7986,2.3703,13.2411,1498
51087,3.2681,-4.1132,18.0918,1492
51092,-11.1187,0.9038,8.8609,1499
51097,-6.8618,6.0944,3.2334,1498
51102,10.8457,2.7414,11.9698,1485
51107,6.1387,-4.1336,17.9685,1497
51112,-10.4794,0.8092,9.979,1513
51117,-9.1614,5.8766,3.4153,1495
51122,9.8557,3.1615,10.5393,1489
51127,8.6778,-3.784,17.7805,1501
51132,-9.9623,0.7075,11.3222,1503
51137,-11.2444,5.5234,3.7589,1487
51142,8.7747,3.4848,9.1363,1493
51147,10.647,-3.2346,17.5986,1503
51152,-9.8138,0.5375,12.6569,1500
51157,-12.8892,4.9177,4.2162,1493
51162,7.7333,3.9061,7.8123,1499
51167,12.3289,-2.3643,17.4825,1479
51172,-9.6738,0.1856,14.0731,1497
51177,-14.2335,4.2246,4.6615,1513
51182,6.4596,4.2976,6.4931,1491
51187,13.2782,-1.3946,17.2323,1485
51192,-9.2584,-0.3819,15.2427,1483
51197,-14.9494,3.5135,5.1535,1493
51202,5.1284,4.7645,5.5198,1498
51207,13.9474,-0.4477,16.8779,1483
51212,-8.4491,-1.1061,16.4458,1515
51217,-15.2367,2.7485,5.5988,1487
51222,3.5374,5.1583,4.6148,1509
51227,13.8888,0.3651,16.5763,1495
51232,-6.9839,-1.8423,17.2574,1500
51237,-14.8895,2.1045,6.1148,1499
51242,1.7657,5.5821,3.9804,1517
51247,13.7547,1.0463,15.9765,1480
51252,-5.0745,-2.6408,17.8428,1495
51257,-14.0564,1.5838,6.6547,1507
51262,-0.1628,5.8754,3.4907,1489
51267,13.2268,1.6676,15.2906,1491
51272,-2.4864,-3.2777,18.1325,1513
51277,-13.0173,1.1923,7.343,1508
51282,-2.2721,6.049,3.2034,1503
51287,12.5552,2.1668,14.3221,1477
51292,0.3232,-3.802,18.1792,1496
51297,-12.0428,0.9517,7.9978,1484
51302,-4.4963,6.0657,3.0921,1497
51307,11.6873,2.5666,13.1789,1511
51312,3.3447,-4.0941,18.1433,1486
51317,-11.0002,0.8595,8.9807,1507
51322,-6.8366,6.0011,3.1448,1503
51327,10.6518,2.8838,11.801,1491
51332,6.1064,-4.027,17.9852,1487
51337,-10.4124,0.7386,10.0221,1516
51342,-9.0716,5.7652,3.3854,1492
51347,9.7707,3.1795,10.4663,1449
51352,8.6383,-3.6703,17.8536,1495
51357,-10.0149,0.7386,11.3449,1499
51362,-11.1438,5.4265,3.8068,1496
51367,8.758,3.4058,9.0345,1483
51372,10.6745,-3.0801,17.6764,1501
51377,-9.8055,0.571,12.7012,1494
51382,-12.7886,4.9536,4.1815,1493
51387,7.677,3.7014,7.7572,1502
51392,12.3505,-2.3822,17.5447,1479
51397,-9.7492,0.2849,14.0348,1495
51402,-14.1078,4.361,4.6064,1526
51407,6.4344,4.1515,6.4464,1497
51412,13.4363,-1.5957,17.4465,1471
51417,-9.3757,-0.2765,15.2535,1511
51422,-14.9889,3.6847,5.0973,1469
51427,5.0147,4.6244,5.4875,1503
51432,14.0588,-0.7877,17.1509,1485
51437,-8.5174,-0.9529,16.271,1519
51442,-15.3133,3.0119,5.5306,1503
51447,3.4692,5.1044,4.6507,1507
51452,14.218,0.0611,16.7486,1496
51457,-6.9994,-1.7765,17.1748,1508
51462,-14.8476,2.3008,6.0466,1503
51467,1.6436,5.6156,3.9181,1515
51472,13.7822,0.7757,16.1633,1492
51477,-4.8471,-2.6133,17.6441,1447
51482,-14.0671,1.7514,6.6295,1514
51487,-0.3017,6.0202,3.5614,1495
51492,13.2495,1.3527,15.3971,1492
51497,-2.3487,-3.3112,17.8727,1507
51502,-12.8569,1.3635,7.2975,1507
51507,-2.4912,6.2118,3.1939,1497
51512,12.39,1.7873,14.3832,1494
51517,0.5028,-3.7792,17.8619,1497
51522,-11.8525,1.1241,8.1487,1501
51527,-4.6914,6.2776,3.1795,1485
51532,11.5784,2.1991,13.2615,1509
51537,3.3842,-4.0342,17.753,1497
51542,-11.0672,1.0714,9.0585,1499
51547,-6.9623,6.2213,3.2813,1498
51552,10.6853,2.49,11.9483,1493
51557,6.2082,-4.0546,17.6501,1497
51562,-10.4698,1.0906,10.1454,1510
51567,-9.1494,5.9711,3.565,1483
51572,9.7241,2.8204,10.5453,1493
51577,8.6718,-3.7481,17.6429,1496
51582,-10.2161,0.9577,11.2958,1506
51587,-11.0169,5.5845,3.8463,1483
51592,8.7484,3.1867,9.1674,1489
51597,11.0169,-3.2346,17.6129,1501
51602,-10.076,0.8092,12.6749,1501
51607,-12.985,5.053,4.1839,1491
51612,7.5968,3.6547,7.8123,1483
51617,12.4606,-2.4756,17.4789,1469
51622,-9.8055,0.3543,14.0192,1492
51627,-14.1617,4.3981,4.634,1501
51632,6.4691,4.1551,6.6355,1510
51637,13.5919,-1.6915,17.3017,1486
51642,-9.3972,-0.1688,15.3217,1519
51647,-15.0248,3.7062,5.1044,1479
51652,4.9692,4.64,5.3953,1494
51657,13.9211,-0.8882,17.2071,1495
51662,-8.3426,-0.9457,16.2674,1513
51667,-15.1278,3.0897,5.6838,1515
51672,3.3651,5.2074,4.634,1496
51677,14.1809,-0.152,16.8396,1483
51682,-6.9001,-1.7645,17.0443,1493
51687,-14.7255,2.4325,6.1052,1490
51692,1.4976,5.6276,3.8894,1498
51697,13.7595,0.5866,16.2279,1479
51702,-4.7058,-2.5295,17.6477,1495
51707,-13.9175,1.9022,6.669,1502
51712,-0.4597,6.0394,3.5422,1499
51717,13.2675,1.2282,15.4402,1490
51722,-2.1632,-3.2789,17.8991,1501
51727,-12.9024,1.4796,7.3179,1508
51732,-2.6324,6.1639,3.2094,1497
51737,12.4379,1.749,14.3544,1506
51742,0.8272,-3.8547,18.0224,1496
51747,-11.8405,1.2103,8.1151,1503
51752,-4.8985,6.1998,3.152,1487
51757,11.5448,2.1895,13.1286,1499
51762,3.7517,-4.0761,17.9541,1483
51767,-11.0205,1.0558,9.0489,1499
51772,-7.1934,6.1339,3.213,1500
51777,10.6386,2.5426,11.7819,1499
51782,6.5541,-4.0833,17.9374,1485
51787,-10.3322,1.002,10.1933,1511
51792,-9.4834,5.8514,3.4165,1469
51797,9.5996,2.9269,10.337,1439
51802,8.9783,-3.7302,17.7817,1509
51807,-10.0868,0.8787,11.5089,1509
51812,-11.3629,5.4408,3.8475,1481
51817,8.6167,3.3842,8.8945,1496
51822,11.1438,-3.0909,17.6704,1501
51827,-9.8952,0.7027,12.8772,1496
51832,-13.0508,4.8578,4.1982,1478
51837,7.4268,3.7888,7.4974,1507
51842,12.6079,-2.3463,17.5555,1481
51847,-9.675,0.2897,14.2431,1495
51852,-14.2874,4.2377,4.7214,1546
51857,6.1938,4.2569,6.3219,1493
51862,13.5488,-1.5215,17.3436,1481
51867,-9.2117,-0.34,15.4809,1524
51872,-15.0164,3.5458,5.1439,1489
51877,4.792,4.8303,5.2816,1513
51882,13.9953,-0.6991,17.1161,1491
51887,-8.2073,-1.0367,16.5356,1511
51892,-15.0535,2.8539,5.703,1468
51897,3.1376,5.3235,4.4185,1519
51902,13.9546,0.0778,16.7283,1498
51907,-6.6283,-1.8555,17.1964,1487
51912,-14.6393,2.2745,6.2142,1515
51917,1.2414,5.7485,3.8738,1503
51922,13.7379,0.7015,16.0723,1483
51927,-4.4197,-2.6779,17.692,1493
51932,-13.6278,1.8112,6.76,1507
51937,-0.8416,6.1292,3.4201,1499
51942,13.0328,1.227,15.2714,1487
51947,-1.7514,-3.3471,17.8488,1517
51952,-12.7659,1.4437,7.4388,1503
51957,-2.9928,6.2118,3.213,1495
51962,12.3625,1.7346,14.2,1518
51967,1.2713,-3.8966,18.0008,1501
51972,-11.6418,1.2306,8.2193,1519
51977,-5.3606,6.2644,3.1101,1500
51982,11.3138,2.2003,12.9383,1509
51987,4.3155,-4.1252,17.9625,1483
51992,-10.9319,1.069,9.2512,1511
51997,-7.6638,6.1435,3.3567,1503
52002,10.5093,2.5965,11.5987,1491
52007,7.1539,-4.0785,17.7769,1503
52012,-10.3669,1.057,10.4399,1516
52017,-10.0485,5.8838,3.547,1487
52022,9.4523,2.9832,10.0161,1491
52027,9.6522,-3.6643,17.7015,1503
52032,-10.0497,0.9134,11.8082,1493
52037,-11.9662,5.4719,3.9014,1495
52042,8.4432,3.377,8.6395,1501
52047,11.5125,-3.128,17.577,1485
52052,-9.9467,0.7183,13.1166,1499
52057,-13.5225,4.8985,4.3311,1512
52062,7.1718,3.8044,7.2963,1499
52067,13.0029,-2.326,17.5687,1479
52072,-9.6031,0.2167,14.437,1497
52077,-14.7267,4.2533,4.8183,1495
52082,5.7796,4.3227,6.0561,1499
52087,13.7703,-1.5957,17.4705,1481
52092,-8.9747,-0.3747,15.5396,1512
52097,-15.2128,3.6081,5.3127,1500
52102,4.2521,4.9404,5.1296,1497
52107,14.2742,-0.8583,17.1976,1497
52112,-7.7668,-1.1408,16.5092,1491
52117,-15.0739,2.9281,5.788,1495
52122,2.5247,5.4492,4.2186,1511
52127,14.0959,-0.1616,16.7319,1479
52132,-5.9352,-1.9716,17.1832,1487
52137,-14.5125,2.3272,6.3063,1507
52142,0.6393,5.9233,3.8068,1495
52147,13.8026,0.4573,16.1142,1477
52152,-3.5805,-2.8048,17.5986,1485
52157,-13.5057,1.9082,6.9276,1499
52162,-1.5502,6.1746,3.2884,1486
52167,13.0209,1.0283,15.2032,1495
52172,-0.7685,-3.5159,17.8057,1503
52177,-12.4642,1.561,7.6782,1496
52182,-3.7924,6.4009,3.1065,1501
52187,12.2152,1.5562,13.9905,1515
52192,2.1691,-4.033,17.8607,1494
52197,-11.5173,1.3695,8.4551,1507
52202,-6.0956,6.365,3.0825,1507
52207,11.2192,1.9956,12.6546,1489
52212,5.1954,-4.2353,17.8847,1482
52217,-10.7787,1.3072,9.578,1518
52222,-8.4144,6.2309,3.2669,1496
52227,10.222,2.5139,11.1402,1487
52232,7.8614,-4.0582,17.7805,1491
52237,-10.313,1.1229,10.7536,1501
52242,-10.4926,5.8706,3.644,1485
52247,9.2261,3.0155,9.7013,1503
52252,10.246,-3.6512,17.7374,1495
52257,-10.0293,0.9337,12.1566,1493
52262,-12.4774,5.3738,3.9863,1501
52267,8.0637,3.4716,8.2923,1511
52272,11.9495,-2.9509,17.6153,1485
52277,-9.8593,0.5926,13.4877,1497
52282,-13.872,4.7597,4.4388,1509
52287,6.8582,4.0019,6.9947,1495
52292,13.2423,-2.1141,17.4681,1477
52297,-9.5002,0.0239,14.8237,1503
52302,-14.8907,4.0378,4.9356,1495
52307,5.4755,4.5155,5.8035,1506
52312,13.872,-1.2869,17.3639,1483
52317,-8.6814,-0.674,15.9286,1512
52322,-15.1768,3.3112,5.4648,1493
52327,3.9289,5.0769,4.8399,1492
52332,14.103,-0.4609,16.9857,1485
52337,-7.3861,-1.4605,16.8492,1483
52342,-14.9566,2.6803,5.9843,1507
52347,2.144,5.5749,4.1001,1515
52352,13.9426,0.2813,16.4721,1485
52357,-5.4516,-2.3128,17.4454,1503
52362,-14.2814,2.0518,6.4536,1499
52367,0.2167,5.9568,3.5913,1495
52372,13.4087,0.9433,15.6856,1482
52377,-2.9676,-3.122,17.844,1514
52382,-13.3788,1.5993,7.0557,1502
52387,-1.9094,6.1938,3.2178,1495
52392,12.7036,1.5718,14.6968,1506
52397,-0.0994,-3.7062,18.0858,1493
52402,-12.1566,1.2977,7.8554,1507
52407,-4.2198,6.3111,3.1029,1487
52412,11.7412,1.9884,13.5284,1509
52417,2.7845,-4.0761,18.0164,1485
52422,-11.3006,1.1277,8.734,1497
52427,-6.5038,6.2465,3.1412,1499
52432,10.908,2.411,12.1817,1487
52437,5.7904,-4.1851,17.8919,1493
52442,-10.5572,1.1133,9.8845,1509
52447,-8.8262,5.9855,3.3507,1495
52452,9.8438,2.7916,10.7332,1480
52457,8.4216,-3.9325,17.8619,1499
52462,-10.2352,0.9637,11.0492,1501
52467,-10.8493,5.5917,3.7397,1470
52472,8.8562,3.2908,9.3194,1491
52477,10.8158,-3.3435,17.7662,1493
52482,-9.9659,0.7721,12.3577,1491
52487,-12.8126,5.1176,3.9947,1497
52492,7.7177,3.7074,7.853,1509
52497,12.4199,-2.5929,17.68,1485
52502,-9.7073,0.3148,13.9055,1497
52507,-14.1976,4.4592,4.5622,1501
52512,6.4919,4.2102,6.5565,1507
52517,13.4159,-1.743,17.4717,1489
52522,-9.2943,-0.2837,15.1984,1527
52527,-15.014,3.7326,5.0206,1495
52532,5.1164,4.725,5.4408,1491
52537,13.9642,-0.8894,17.1916,1483
52542,-8.4108,-0.9421,16.283,1499
52547,-15.1385,3.0311,5.5929,1486
52552,3.4728,5.1906,4.5083,1501
52557,14.0264,-0.0874,16.8253,1499
52562,-7.0222,-1.7502,17.0288,1491
52567,-14.8441,2.3834,6.0813,1495
52572,1.652,5.6874,3.9061,1515
52577,13.866,0.5818,16.3261,1479
52582,-4.9632,-2.6217,17.6345,1499
52587,-14.0145,1.9142,6.6487,1515
52592,-0.3448,5.934,3.4776,1493
52597,13.2447,1.1744,15.4151,1497
52602,-2.3595,-3.3196,17.9625,1507
52607,-13.0233,1.488,7.2437,1498
52612,-2.5259,6.1914,3.2286,1493
52617,12.5157,1.7047,14.4753,1513
52622,0.5734,-3.9014,18.0475,1505
52627,-11.9423,1.2091,8.0074,1499
52632,-4.8255,6.2537,3.0646,1491
52637,11.6562,2.1584,13.2387,1497
52642,3.5961,-4.1372,17.9398,1499
52647,-10.9607,1.1289,9.0345,1501
52652,-7.2461,6.2106,3.1783,1498
52657,10.7105,2.5283,11.9112,1486
52662,6.3566,-4.1037,17.7961,1499
52667,-10.4866,1.0558,10.137,1511
52672,-9.2907,5.9149,3.4548,1481
52677,9.754,2.8587,10.4746,1493
52682,9.001,-3.8044,17.771,1499
52687,-10.0963,0.996,11.4096,1491
52692,-11.3557,5.5103,3.7421,1497
52697,8.6215,3.2537,8.9747,1489
52702,11.054,-3.1927,17.7327,1481
52707,-9.9659,0.7099,12.7838,1507
52712,-13.0508,4.9536,4.227,1501
52717,7.5034,3.7469,7.5753,1494
52722,12.736,-2.3822,17.5974,1471
52727,-9.7995,0.2849,14.1653,1495
52732,-14.4227,4.2377,4.695,1497
52737,6.1806,4.2186,6.2932,1498
52742,13.6326,-1.4988,17.4693,1469
52747,-9.2308,-0.3316,15.3887,1510
52752,-15.026,3.5231,5.1739,1483
52757,4.7692,4.8243,5.3774,1507
52762,14.103,-0.6393,17.0312,1499
52767,-8.278,-1.0487,16.4901,1490
52772,-15.1936,2.7928,5.6467,1500
52777,3.1448,5.2792,4.446,1509
52782,14.1725,0.1844,16.7055,1495
52787,-6.5565,-1.9094,17.3376,1499
52792,-14.6765,2.1763,6.1543,1503
52797,1.2318,5.7102,3.7362,1500
52802,13.7128,0.832,16.1094,1496
52807,-4.3012,-2.6971,17.8045,1503
52812,-13.8852,1.658,6.7445,1503
52817,-0.9122,6.043,3.2908,1493
52822,13.1909,1.4054,15.2606,1500
52827,-1.579,-3.4153,18.0678,1502
52832,-12.5205,1.3898,7.5154,1493
52837,-3.2286,6.1986,3.0957,1485
52842,12.2044,1.8543,14.1785,1517
52847,1.2594,-3.8942,18.014,1487
52852,-11.7029,1.16,8.2432,1509
52857,-5.43,6.201,3.1771,1499
52862,11.4682,2.3308,12.8401,1507
52867,4.4365,-4.1168,17.9374,1483
52872,-10.7571,1.0906,9.2955,1503
52877,-7.8685,6.0813,3.225,1499
52882,10.3334,2.6288,11.388,1491
52887,7.2461,-4.0031,17.9038,1485
52892,-10.3513,0.9852,10.4794,1509
52897,-9.9647,5.8275,3.5374,1499
52902,9.5026,2.9975,10.0185,1489
52907,9.7983,-3.6212,17.7698,1509
52912,-10.0485,0.9649,11.8046,1495
52917,-12.0608,5.3893,3.8571,1497
52922,8.3067,3.3794,8.4898,1510
52927,11.6789,-3.0131,17.7135,1477
52932,-9.9132,0.6644,13.21,1501
52937,-13.6086,4.8159,4.3515,1515
52942,7.1491,3.8966,7.2389,1489
52947,13.0292,-2.2936,17.6453,1483
52952,-9.675,0.1568,14.4682,1499
52957,-14.7411,4.1228,4.7824,1497
52962,5.7688,4.3574,6.013,1499
52967,13.9414,-1.3743,17.4585,1479
52972,-8.9807,-0.4717,15.7287,1515
52977,-15.2978,3.3722,5.3343,1493
52982,4.2318,4.944,4.9572,1503
52987,14.218,-0.5399,17.1102,1493
52992,-7.7464,-1.2977,16.6888,1487
52997,-15.3001,2.6935,5.7712,1493
53002,2.4995,5.43,4.2258,1507
53007,14.1461,0.2813,16.6397,1492
53012,-5.8538,-2.1404,17.4753,1484
53017,-14.5292,2.0853,6.2393,1484
53022,0.4884,5.8239,3.535,1501
53027,13.6206,0.8906,15.9394,1480
53032,-3.4716,-2.9078,17.838,1513
53037,-13.4578,1.6592,6.9827,1513
53042,-1.6652,6.1495,3.3004,1485
53047,12.9957,1.4641,15.0344,1502
53052,-0.6991,-3.5841,17.9433,1507
53057,-12.4487,1.3396,7.7261,1497
53062,-3.875,6.2237,3.0909,1491
53067,12.0883,1.8639,13.8205,1512
53072,2.3248,-4.027,17.9433,1500
53077,-11.3629,1.2043,8.6491,1501
53082,-6.2153,6.189,3.1556,1500
53087,11.1199,2.2936,12.4798,1497
53092,5.2026,-4.1252,17.8643,1489
53097,-10.7428,1.0762,9.6091,1517
53102,-8.4743,6.025,3.3196,1483
53107,10.1622,2.6767,10.9942,1485
53112,8.0565,-3.9337,17.8105,1509
53117,-10.1801,1.0379,10.92,1505
53122,-10.756,5.703,3.6703,1487
53127,9.0728,3.0981,9.5205,1501
53132,10.3011,-3.4357,17.7135,1499
53137,-10.0413,0.8404,12.2116,1505
53142,-12.5348,5.1703,4.1061,1491
53147,8.029,3.5721,8.1499,1497
53152,12.0955,-2.7557,17.5399,1469
53157,-9.8737,0.5267,13.7248,1499
53162,-14.0623,4.5538,4.5586,1513
53167,6.7337,4.0689,6.8283,1499
53172,13.2735,-1.8735,17.3891,1487
53177,-9.4607,-0.0503,14.9578,1519
53182,-14.8153,3.8199,4.9991,1439
53187,5.2924,4.6005,5.6695,1503
53192,13.8959,-0.9756,17.2646,1497
53197,-8.6371,-0.7781,16.113,1487
53202,-15.1206,3.055,5.5378,1497
53207,3.7002,5.1176,4.6519,1515
53212,14.0145,-0.1053,16.8719,1493
53217,-7.1216,-1.6209,16.9282,1495
53222,-14.7914,2.4026,6.0753,1502
53227,1.8459,5.5929,3.9337,1501
53232,13.7942,0.6261,16.3249,1478
53237,-5.1799,-2.4385,17.601,1499
53242,-14.0791,1.8256,6.5876,1533
53247,-0.1784,5.9544,3.5326,1491
53252,13.3752,1.2833,15.4701,1497
53257,-2.5367,-3.1783,17.9374,1503
53262,-12.9155,1.4317,7.252,1487
53267,-2.3906,6.1256,3.213,1499
53272,12.4953,1.7597,14.5675,1507
53277,0.3639,-3.7409,17.9589,1503
53282,-12.0392,1.1588,7.9535,1499
53287,-4.616,6.2297,3.1316,1497
53292,11.7136,2.2134,13.2926,1496
53297,3.5207,-4.051,17.9685,1485
53302,-11.0145,1.1121,9.019,1493
53307,-7.1192,6.1375,3.1053,1500
53312,10.659,2.4708,11.8872,1494
53317,6.3446,-4.0618,17.8176,1499
53322,-10.5129,1.0151,10.143,1513
53327,-9.3194,5.9005,3.4393,1493
53332,9.7528,2.8742,10.4471,1503
53337,8.9651,-3.7385,17.735,1515
53342,-10.1754,1.0139,11.4395,1497
53347,-11.4251,5.4719,3.8247,1491
53352,8.6886,3.1987,8.8849,1510
53357,10.9678,-3.231,17.7063,1455
53362,-9.973,0.7266,12.7635,1499
53367,-12.949,4.9608,4.2916,1513
53372,7.5693,3.711,7.604,1481
53377,12.5983,-2.4792,17.595,1482
53382,-9.7121,0.3675,14.1162,1497
53387,-14.3532,4.2976,4.6507,1512
53392,6.2225,4.2533,6.3339,1497
53397,13.6051,-1.5981,17.4645,1491
53402,-9.2033,-0.2981,15.4366,1513
53407,-15.0595,3.5362,5.1559,1496
53412,4.7657,4.7992,5.2253,1495
53417,14.0767,-0.7506,17.2742,1493
53422,-8.1774,-1.0331,16.4673,1487
53427,-15.2774,2.8443,5.6108,1496
53432,3.0418,5.3115,4.3203,1511
53437,14.188,0.0742,16.7702,1481
53442,-6.5122,-1.9285,17.3065,1462
53447,-14.6932,2.2146,6.1639,1497
53452,1.1217,5.7162,3.7158,1501
53457,13.7248,0.7661,16.1549,1486
53462,-4.2784,-2.7689,17.7039,1497
53467,-13.8983,1.7262,6.7744,1497
53472,-0.9074,6.0525,3.3315,1499
53477,13.1885,1.3623,15.2726,1497
53482,-1.5155,-3.4872,18.0176,1501
53487,-12.5839,1.4042,7.5417,1500
53492,-3.2142,6.2213,3.0861,1481
53497,12.2068,1.7968,14.1126,1511
53502,1.3276,-3.9349,18.0092,1487
53507,-11.6873,1.1708,8.3103,1487
53512,-5.4803,6.2824,3.1591,1501
53517,11.4072,2.217,12.8916,1494
53522,4.3431,-4.1432,17.8967,1485
53527,-10.75,1.1552,9.2967,1497
53532,-7.7728,6.0633,3.2968,1501
53537,10.3322,2.6037,11.4108,1485
53542,7.167,-4.0342,17.8308,1499
53547,-10.2556,1.0391,10.5548,1515
53552,-9.9443,5.8059,3.571,1496
53557,9.3996,3.0035,9.9623,1495
53562,9.6714,-3.65,17.6524,1515
53567,-10.0808,0.9505,11.8896,1497
53572,-11.9327,5.2996,3.954,1499
53577,8.3067,3.5015,8.4659,1527
53582,11.6083,-2.9832,17.6967,1496
53587,-9.8857,0.6404,13.301,1493
53592,-13.5356,4.7106,4.4424,1503
53597,7.0892,3.9241,7.1623,1469
53602,12.8317,-2.2039,17.5519,1485
53607,-9.5612,0.0694,14.54,1509
53612,-14.443,3.9911,4.9033,1487
53617,5.8083,4.5215,5.9508,1509
53622,13.6338,-1.3276,17.3831,1486
53627,-8.8645,-0.5471,15.7179,1502
53632,-14.8261,3.2537,5.442,1485
53637,4.2341,5.0147,4.9249,1509
53642,13.7691,-0.4441,17.0383,1487
53647,-7.6495,-1.3455,16.6984,1495
53652,-14.7698,2.6372,5.9675,1495
53657,2.4876,5.5653,4.1982,1497
53662,13.9235,0.3412,16.5032,1495
53667,-5.8323,-2.1859,17.4525,1501
53672,-14.1713,1.9836,6.4141,1507
53677,0.4274,5.9723,3.5147,1487
53682,13.2723,1.0092,15.8101,1492
53687,-3.371,-2.9042,17.8212,1511
53692,-13.3513,1.5538,7.0653,1493
53697,-1.7693,6.2333,3.3184,1477
53702,12.8569,1.5538,14.9159,1507
53707,-0.5734,-3.5937,18.0236,1497
53712,-12.1135,1.3276,7.6842,1494
53717,-4.1084,6.2656,3.0311,1493
53722,11.7507,1.9261,13.7319,1501
53727,2.5067,-4.0163,17.9649,1493
53732,-11.2875,1.1696,8.6682,1503
53737,-6.4416,6.2537,3.201,1505
53742,11.0301,2.2972,12.3445,1483
53747,5.4528,-4.1671,17.8655,1495
53752,-10.6434,1.148,9.663,1507
53757,-8.7029,6.0298,3.3651,1491
53762,9.9742,2.6707,10.9056,1496
53767,8.1798,-3.9277,17.8787,1503
53772,-10.1694,1.0606,10.9427,1483
53777,-10.7931,5.6838,3.7074,1482
53782,9.1183,3.0694,9.3865,1497
53787,10.4244,-3.4895,17.7207,1485
53792,-9.9898,0.8703,12.3062,1480
53797,-12.5085,5.1368,4.1599,1498
53802,7.9248,3.5686,7.9535,1496
53807,12.2523,-2.7785,17.6513,1479
53812,-9.8007,0.5531,13.7188,1500
53817,-13.9893,4.5466,4.5095,1511
53822,6.5805,4.1276,6.5517,1491
53827,13.3944,-1.9632,17.5998,1491
53832,-9.4032,-0.0335,15.1421,1511
53837,-14.9171,3.8523,5.0159,1493
53842,5.1475,4.6855,5.4803,1501
53847,14.0899,-1.1241,17.3927,1496
53852,-8.5258,-0.8033,16.1896,1501
53857,-15.3037,3.1304,5.4899,1496
53862,3.4297,5.1619,4.5131,1517
53867,14.1868,-0.2514,17.0958,1495
53872,-6.9516,-1.6831,17.0264,1497
53877,-14.8776,2.4385,6.0501,1499
53882,1.5682,5.6767,3.8211,1497
53887,13.8684,0.4776,16.3811,1493
53892,-4.9093,-2.5343,17.5902,1497
53897,-14.0528,1.919,6.6379,1507
53902,-0.48,6.1016,3.4632,1497
53907,13.3213,1.0618,15.6473,1461
53912,-2.2565,-3.3387,17.8332,1503
53917,-12.797,1.4976,7.2544,1494
53922,-2.7234,6.3243,3.1915,1485
53927,12.4678,1.579,14.4825,1515
53932,0.6057,-3.8307,17.844,1487
53937,-11.8633,1.2953,8.0912,1499
53942,-4.9847,6.3829,3.2118,1501
53947,11.6681,2.0231,13.2878,1495
53952,3.65,-4.1073,17.7602,1480
53957,-10.884,1.2366,9.0333,1503
53962,-7.3382,6.1926,3.2346,1485
53967,10.5931,2.405,11.8429,1480
53972,6.5637,-4.0881,17.7626,1494
53977,-10.4136,1.1013,10.2208,1503
53982,-9.5002,5.8766,3.5099,1480
53987,9.6486,2.8683,10.325,1483
53992,9.2703,-3.784,17.6704,1493
53997,-10.1766,1.0092,11.491,1493
54002,-11.6538,5.4241,3.796,1496
54007,8.5437,3.3459,8.7329,1501
54012,11.3437,-3.1077,17.6979,1490
54017,-9.9479,0.7039,13.028,1497
54022,-13.3764,4.8937,4.3024,1509
54027,7.367,3.8415,7.428,1495
54032,12.7898,-2.2709,17.5112,1481
54037,-9.6869,0.2634,14.3652,1507
54042,-14.5101,4.1144,4.7752,1507
54047,5.9891,4.3622,6.1531,1495
54052,13.7008,-1.4126,17.4262,1489
54057,-9.0609,-0.4094,15.6988,1503
54062,-14.9985,3.3998,5.2684,1487
54067,4.4329,4.8985,5.0374,1502
54072,13.9666,-0.6165,17.1904,1496
54077,-7.8937,-1.1983,16.5559,1485
54082,-14.9697,2.7461,5.8263,1489
54087,2.6863,5.4324,4.2533,1509
54092,14.0635,0.1401,16.7474,1491
54097,-6.1758,-2.0806,17.2945,1495
54102,-14.3137,2.1452,6.292,1507
54107,0.6488,5.8574,3.6284,1486
54112,13.5787,0.7733,16.0543,1483
54117,-3.7924,-2.909,17.668,1517
54122,-13.465,1.7406,6.8821,1512
54127,-1.5155,6.1938,3.3651,1496
54132,13.0113,1.3731,15.1218,1490
54137,-0.8894,-3.6248,17.8703,1493
54142,-12.3613,1.403,7.5441,1495
54147,-3.7781,6.2596,3.1101,1479
54152,12.0476,1.9321,13.9091,1501
54157,2.2517,-4.0953,17.9876,1497
54162,-11.4036,1.2234,8.4946,1495
54167,-6.1088,6.2225,3.0981,1501
54172,11.0971,2.3679,12.4906,1484
54177,5.2672,-4.2234,17.9709,1486
54182,-10.6398,1.0965,9.5421,1519
54187,-8.4396,6.0382,3.2525,1491
54192,10.0868,2.7402,11.0038,1499
54197,8.0984,-4.0247,17.8679,1507
54202,-10.137,1.0702,10.8326,1499
54207,-10.6554,5.7042,3.5817,1487
54212,9.0261,3.1196,9.4571,1485
54217,10.4184,-3.5506,17.8069,1485
54222,-10.0197,0.8918,12.214,1495
54227,-12.4115,5.2026,4.0127,1489
54232,7.8841,3.6105,8.0158,1493
54237,12.2643,-2.8407,17.7925,1471
54242,-9.8641,0.5543,13.6805,1497
54247,-14.0085,4.6256,4.4712,1503
54252,6.5733,4.0929,6.6547,1499
54257,13.4063,-2.0722,17.7267,1486
54262,-9.4918,-0.0263,14.9482,1512
54267,-14.8836,3.9492,4.9464,1493
54272,5.1763,4.6459,5.6288,1500
54277,14.1414,-1.1576,17.5016,1495
54282,-8.6898,-0.7781,16.174,1499
54287,-15.2163,3.2082,5.3486,1495
54292,3.5745,5.1739,4.5011,1511
54297,14.1809,-0.3256,17.1485,1492
54302,-7.2149,-1.634,17.0539,1491
54307,-14.8848,2.5486,5.9089,1491
54312,1.7705,5.6982,3.9085,1508
54317,13.8744,0.4477,16.4996,1479
54322,-5.1188,-2.4912,17.6309,1494
54327,-14.1868,1.9848,6.4524,1506
54332,-0.2969,6.0262,3.3818,1483
54337,13.3692,1.1145,15.7203,1487
54342,-2.4792,-3.298,18.0044,1501
54347,-12.9107,1.5742,7.1347,1500
54352,-2.5139,6.2417,3.1065,1497
54357,12.463,1.6783,14.6657,1507
54362,0.4238,-3.8618,18.0774,1493
54367,-11.9112,1.2749,7.9727,1512
54372,-4.8231,6.2525,3.0742,1499
54377,11.6657,2.1955,13.2639,1493
54382,3.6093,-4.1911,18.0176,1485
54387,-10.975,1.1576,8.9759,1501
54392,-7.191,6.0992,3.1795,1490
54397,10.556,2.636,11.7017,1495
54402,6.529,-4.1013,17.8931,1491
54407,-10.3717,1.0175,10.149,1499
54412,-9.3829,5.8191,3.456,1491
54417,9.6486,2.9844,10.3489,1491
54422,9.0908,-3.7266,17.7614,1496
54427,-10.0545,0.9134,11.5017,1497
54432,-11.4299,5.3917,3.802,1485
54437,8.5377,3.3926,8.7293,1498
54442,11.0744,-3.0754,17.7123,1483
54447,-9.8833,0.6548,12.9646,1501
54452,-13.0245,4.7645,4.3395,1502
54457,7.422,3.8259,7.3346,1496
54462,12.5791,-2.2673,17.5914,1491
54467,-9.7121,0.2598,14.3748,1513
54472,-14.1114,4.0989,4.786,1493
54477,6.0908,4.3084,6.0753,1507
54482,13.5835,-1.3922,17.4872,1471
54487,-9.1279,-0.425,15.6736,1509
54492,-14.8105,3.3746,5.3056,1495
54497,4.5909,4.8554,4.9967,1485
54502,13.9007,-0.4944,17.1628,1499
54507,-8.0936,-1.1935,16.5978,1487
54512,-14.8991,2.6995,5.7078,1491
54517,2.8419,5.4061,4.221,1519
54522,13.957,0.2682,16.7438,1483
54527,-6.3758,-2.0614,17.3927,1489
54532,-14.3161,2.0853,6.2525,1495
54537,0.9062,5.8466,3.6308,1490
54542,13.4434,0.8679,16.0735,1499
54547,-4.1192,-2.8491,17.7602,1516
54552,-13.6302,1.6879,6.8869,1507
54557,-1.1971,6.2022,3.3818,1491
54562,12.9873,1.4341,15.1481,1491
54567,-1.3527,-3.6057,18.02,1497
54572,-12.3864,1.3958,7.4998,1493
54577,-3.5111,6.2764,3.1089,1481
54582,12.0057,1.8088,14.0121,1507
54587,1.6161,-3.966,17.9278,1484
54592,-11.558,1.2594,8.3905,1500
54597,-5.7221,6.3398,3.2166,1496
54602,11.2647,2.223,12.7479,1487
54607,4.634,-4.2174,17.7781,1484
54612,-10.7452,1.1803,9.408,1513
54617,-8.0098,6.1316,3.3184,1489
54622,10.2388,2.5355,11.2911,1483
54627,7.3334,-4.0019,17.765,1496
54632,-10.3585,1.1073,10.6231,1508
54637,-10.0173,5.7736,3.6751,1489
54642,9.4224,2.9688,9.8246,1498
54647,9.7133,-3.5913,17.6908,1491
54652,-10.1215,0.9577,11.886,1491
54657,-11.8369,5.266,4.0498,1496
54662,8.181,3.3495,8.3031,1498
54667,11.5927,-2.9293,17.6632,1483
54672,-9.8976,0.6045,13.3501,1498
54677,-13.2842,4.6483,4.5095,1499
54682,7.0749,3.9217,6.9324,1500
54687,12.8449,-2.1787,17.5303,1478
54692,-9.5876,0.152,14.6465,1512
54697,-14.2108,3.9792,5.0075,1485
54702,5.7365,4.4975,5.77,1506
54707,13.6817,-1.2725,17.3448,1485
54712,-8.9172,-0.5483,15.9107,1496
54717,-14.7459,3.2429,5.4971,1491
54722,4.0713,4.9775,4.7848,1507
54727,13.9187,-0.4549,17.0587,1496
54732,-7.6279,-1.3838,16.7295,1496
54737,-14.6693,2.5905,5.9819,1491
54742,2.223,5.5498,4.1073,1497
54747,13.8349,0.3567,16.5906,1481
54752,-5.6671,-2.3236,17.3628,1491
54757,-14.0432,2.0159,6.4919,1495
54762,0.1077,5.9819,3.4979,1501
54767,13.2806,0.9421,15.8113,1496
54772,-3.0765,-3.1077,17.7063,1503
54777,-13.0197,1.6269,7.1347,1503
54782,-2.1225,6.2908,3.2106,1489
54787,12.5995,1.3934,14.8057,1557
54792,-0.2095,-3.7302,17.8488,1499
54797,-12.0931,1.3755,7.8973,1507
54802,-4.4185,6.3829,3.1376,1487
54807,11.7735,1.828,13.5009,1501
54812,2.8862,-4.1013,17.771,1491
54817,-11.1809,1.2809,8.8095,1496
54822,-6.7576,6.2956,3.1807,1485
54827,10.7919,2.2302,12.1374,1497
54832,5.7305,-4.1312,17.7219,1493
54837,-10.6722,1.1995,9.8881,1503
54842,-8.8083,6.019,3.4417,1490
54847,9.9539,2.6336,10.7308,1486
54852,8.4994,-3.9277,17.6788,1496
54857,-10.2244,1.1756,11.23,1500
54862,-10.9463,5.5917,3.7613,1494
54867,8.7771,2.9987,9.1327,1511
54872,10.5692,-3.3794,17.7279,1493
54877,-10.1047,0.899,12.5229,1499
54882,-12.4846,5.0985,4.2856,1519
54887,7.8398,3.5949,7.7847,1499
54892,12.4606,-2.6528,17.6022,1483
54897,-9.9228,0.5531,13.9558,1497
54902,-14.0192,4.4772,4.6388,1498
54907,6.3327,4.0701,6.3315,1497
54912,13.4327,-1.8615,17.6225,1491
54917,-9.2895,-0.1281,15.269,1511
54922,-14.7483,3.7134,5.0793,1485
54927,5.0015,4.7202,5.3798,1491
54932,14.0073,-0.9553,17.2634,1503
54937,-8.3617,-0.9613,16.4075,1495
54942,-15.0954,2.9975,5.5569,1503
54947,3.3112,5.2864,4.3347,1513
54952,13.8768,-0.0838,16.9689,1479
54957,-6.6283,-1.8699,17.1724,1494
54962,-14.5089,2.3655,6.2201,1493
54967,1.3132,5.8095,3.7038,1495
54972,13.5105,0.5447,16.2518,1491
54977,-4.4855,-2.733,17.5842,1511
54982,-13.7762,1.9058,6.7947,1497
54987,-0.8236,6.2094,3.3399,1481
54992,12.967,1.0523,15.3827,1499
54997,-1.8364,-3.3746,17.8153,1497
55002,-12.6976,1.6185,7.4627,1491
55007,-3.0682,6.4189,3.1208,1484
55012,12.1135,1.5048,14.2084,1507
55017,1.0367,-3.8906,17.826,1485
55022,-11.9315,1.409,8.2325,1499
55027,-5.2912,6.3758,3.1867,1501
55032,11.3198,1.9932,12.9275,1491
55037,4.2198,-4.1922,17.9134,1496
55042,-10.969,1.3264,9.177,1510
55047,-7.6016,6.177,3.2537,1492
55052,10.1945,2.4325,11.4431,1496
55057,7.0952,-4.057,17.8356,1513
55062,-10.507,1.1552,10.4447,1499
55067,-9.7504,5.8586,3.6308,1491
55072,9.3793,2.8982,9.9982,1491
55077,9.645,-3.6727,17.6369,1489
55082,-10.1682,1.0223,11.8609,1501
55087,-11.7112,5.3678,3.9456,1491
55092,8.272,3.31,8.4324,1493
55097,11.4754,-2.976,17.7015,1449
55102,-9.9431,0.6967,13.2711,1497
55107,-13.1142,4.7154,4.4472,1497
55112,7.2305,3.8559,7.0797,1487
55117,12.9275,-2.2601,17.5878,1481
55122,-9.7241,0.2394,14.6298,1507
55127,-14.2682,4.0797,4.9297,1495
55132,5.7401,4.3993,5.8215,1500
55137,13.8325,-1.3348,17.5447,1483
55142,-8.9807,-0.5171,15.8484,1546
55147,-14.9135,3.3483,5.3271,1483
55152,4.1384,4.9524,4.7405,1501
55157,14.1246,-0.4094,17.2394,1498
55162,-7.7931,-1.3791,16.9378,1487
55167,-15.0356,2.6635,5.7269,1503
55172,2.3367,5.5246,3.9684,1496
55177,13.9726,0.3531,16.6888,1491
55182,-5.8682,-2.3571,17.6776,1497
55187,-14.4897,2.0842,6.2896,1507
55192,0.2897,5.9376,3.3734,1496
55197,13.4578,0.9673,15.9155,1491
55202,-3.316,-3.1532,18.0702,1516
55207,-13.3704,1.6831,6.9432,1495
55212,-1.8735,6.268,3.0837,1495
55217,12.7683,1.4222,14.9566,1499
55222,-0.3759,-3.7122,18.1696,1499
55227,-12.3577,1.4389,7.6758,1503
55232,-4.0354,6.3279,2.9939,1487
55237,11.8848,1.9118,13.629,1491
55242,2.7641,-4.118,18.2295,1495
55247,-11.2982,1.336,8.5485,1507
55252,-6.2596,6.2501,2.9054,1497
55257,10.7787,2.3092,12.2535,1487
55262,5.8766,-4.2677,18.2486,1498
55267,-10.6446,1.1803,9.5672,1513
55272,-8.4719,5.9855,3.1388,1485
55277,9.7552,2.727,10.6374,1491
55282,8.8059,-3.9935,18.239,1495
55287,-10.0006,1.0534,10.9666,1503
55292,-10.908,5.5282,3.4584,1485
55297,8.5377,3.2549,8.9866,1493
55302,11.0768,-3.3495,18.1552,1470
55307,-9.8462,0.6919,12.4439,1477
55312,-12.8269,4.9524,3.8678,1512
55317,7.5094,3.8271,7.5274,1490
55322,12.7862,-2.4122,17.9002,1484
55327,-9.6031,0.2442,14.0731,1511
55332,-14.4083,4.3227,4.3682,1503
55337,6.1363,4.2796,6.128,1500
55342,13.6637,-1.4006,17.8093,1479
55347,-9.098,-0.4214,15.5013,1508
55352,-15.184,3.5291,5.0039,1485
55357,4.7357,4.7764,5.0865,1497
55362,14.1856,-0.4705,17.3424,1493
55367,-8.2205,-1.2713,16.7367,1497
55372,-15.3636,2.7653,5.5498,1502
55377,2.9748,5.2912,4.136,1511
55382,14.0755,0.3484,16.909,1492
55387,-6.5505,-2.0877,17.4801,1501
55392,-14.7734,2.1847,6.1375,1507
55397,1.1025,5.7329,3.559,1493
55402,13.6481,0.9086,16.1824,1499
55407,-4.3287,-2.873,17.9601,1513
55412,-14.0181,1.7705,6.6667,1509
55417,-0.9936,6.1136,3.2358,1509
55422,13.0819,1.3779,15.196,1497
55427,-1.4808,-3.5781,18.2163,1505
55432,-12.7,1.4653,7.4017,1507
55437,-3.2932,6.3015,3.0311,1485
55442,12.123,1.7166,14.0492,1500
55447,1.5682,-3.9971,18.2091,1496
55452,-11.7196,1.2689,8.2097,1501
55457,-5.5773,6.3027,3.067,1487
55462,11.2683,2.1775,12.736,1511
55467,4.7752,-4.2246,18.0499,1495
55472,-10.8026,1.2067,9.3649,1519
55477,-8.0194,6.0932,3.2214,1465
55482,10.1682,2.5714,11.2719,1487
55487,7.6028,-4.1264,17.8595,1511
55492,-10.4315,1.0965,10.5788,1497
55497,-10.1514,5.8526,3.5997,1493
55502,9.2775,2.9724,9.8509,1501
55507,10.0018,-3.7158,17.7231,1487
55512,-10.1454,0.9804,11.9542,1492
55517,-12.0991,5.369,3.9061,1492
55522,8.1367,3.3806,8.3845,1513
55527,11.8956,-3.0813,17.7578,1405
55532,-9.8725,0.6752,13.3357,1503
55537,-13.5859,4.8183,4.3802,1514
55542,6.9576,3.8858,6.9659,1499
55547,13.2244,-2.2685,17.6932,1480
55552,-9.5696,0.1975,14.6777,1511
55557,-14.6741,4.1731,4.8303,1487
55562,5.4935,4.4604,5.7042,1500
55567,14.0504,-1.4653,17.6141,1495
55572,-8.8346,-0.51,15.9083,1493
55577,-15.2152,3.462,5.3127,1485
55582,3.9025,5.0637,4.7764,1507
55587,14.3125,-0.7338,17.243,1480
55592,-7.6088,-1.2917,16.8432,1494
55597,-15.1996,2.8467,5.7317,1502
55602,2.1213,5.5593,4.0055,1507
55607,14.3485,0.006,16.7738,1483
55612,-5.6048,-2.2254,17.577,1497
55617,-14.5627,2.2984,6.2441,1497
55622,0.1089,5.9352,3.3591,1487
55627,13.7152,0.6488,15.9897,1485
55632,-3.0382,-3.1244,18.0044,1499
55637,-13.6266,1.8567,6.9049,1501
55642,-1.9968,6.2225,3.1005,1501
55647,13.0233,1.2965,14.9769,1513
55652,0.0036,-3.8283,18.2414,1497
55657,-12.4917,1.5215,7.5944,1496
55662,-4.2844,6.2932,2.8383,1495
55667,12.0021,1.8268,13.5787,1499
55672,3.2992,-4.2892,18.2941,1491
55677,-11.3689,1.3108,8.6514,1501
55682,-6.6822,6.2369,2.9185,1502
55687,10.8733,2.3643,12.0584,1479
55692,6.3458,-4.3239,18.3144,1494
55697,-10.7332,1.1672,9.7528,1506
55702,-8.9747,5.9891,3.1137,1495
55707,9.7636,2.8539,10.4806,1492
55712,9.1746,-4.0713,18.2259,1503
55717,-10.2017,1.0319,11.163,1495
55722,-11.4239,5.691,3.3998,1481
55727,8.576,3.3579,8.9591,1509
55732,11.315,-3.5398,18.1026,1490
55737,-9.9994,0.7446,12.6067,1500
55742,-13.2758,5.2134,3.8714,1515
55747,7.4927,3.7972,7.5369,1501
55752,12.9838,-2.7605,17.9828,1471
55757,-9.7755,0.3759,14.0073,1507
55762,-14.6836,4.5813,4.3562,1499
55767,6.1687,4.2713,6.2201,1491
55772,13.951,-1.8447,17.7901,1485
55777,-9.2428,-0.2801,15.3408,1511
55782,-15.427,3.8583,4.9273,1481
55787,4.7764,4.7537,5.2888,1493
55792,14.4718,-0.9158,17.5303,1483
55797,-8.3761,-1.0666,16.5379,1481
55802,-15.6533,3.0921,5.3774,1495
55807,3.1244,5.199,4.4005,1507
55812,14.534,0.0359,16.9533,1479
55817,-6.8354,-2.0087,17.4681,1485
55822,-15.0667,2.3415,5.9041,1503
55827,1.2665,5.6623,3.723,1487
55832,14.03,0.9278,16.2375,1492
55837,-4.6687,-2.8958,17.9864,1508
55842,-14.1174,1.7202,6.5374,1510
55847,-0.668,6.0035,3.2765,1481
55852,13.3429,1.5071,15.2846,1495
55857,-1.9249,-3.5506,18.1959,1495
55862,-12.718,1.3898,7.3155,1489
55867,-2.885,6.2357,3.0299,1497
55872,12.3325,1.9597,14.2563,1484
55877,0.8751,-3.9959,18.1385,1487
55882,-11.9207,1.1923,8.0409,1494
55887,-5.0589,6.3351,3.0119,1499
55892,11.5676,2.302,13.0723,1477
55897,4.0055,-4.2653,18.1109,1491
55902,-10.8493,1.2055,9.001,1505
55907,-7.3574,6.1675,3.0993,1486
55912,10.3789,2.5726,11.643,1496
55917,6.8917,-4.1994,18.1061,1496
55922,-10.4842,1.0678,10.0736,1497
55927,-9.4379,5.9065,3.3184,1497
55932,9.4978,3.0646,10.2149,1481
55937,9.6462,-3.875,17.9721,1496
55942,-10.1598,0.9912,11.4395,1499
55947,-11.8022,5.5079,3.5997,1485
55952,8.3294,3.5039,8.6766,1491
55957,11.7735,-3.2813,17.9517,1469
55962,-10.0245,0.6656,12.955,1492
55967,-13.5931,4.9428,4.0294,1501
55972,7.2221,3.9863,7.3418,1499
55977,13.204,-2.4265,17.8332,1487
55982,-9.7121,0.176,14.4071,1519
55987,-14.8752,4.2808,4.476,1486
55992,5.9448,4.4388,6.019,1501
55997,14.0121,-1.5048,17.6776,1487
56002,-9.0848,-0.5136,15.7538,1505
56007,-15.3325,3.5626,5.0554,1485
56012,4.4819,4.9297,4.9297,1499
56017,14.2251,-0.6225,17.3663,1499
56022,-8.0804,-1.2617,16.702,1499
56027,-15.2798,2.8287,5.6096,1491
56032,2.7737,5.3822,4.118,1499
56037,14.2479,0.2071,16.9102,1491
56042,-6.4572,-2.1057,17.5256,1487
56047,-14.6262,2.1979,6.1387,1501
56052,0.9301,5.8119,3.5554,1483
56057,13.775,0.9313,16.1429,1547
56062,-4.2772,-2.8647,17.9685,1514
56067,-13.9546,1.7549,6.6391,1495
56072,-0.9972,6.0382,3.2585,1491
56077,13.2986,1.5083,15.2259,1510
56082,-1.5167,-3.5602,18.3492,1511
56087,-12.6665,1.3886,7.3131,1543
56092,-3.2406,6.1663,2.9281,1496
56097,12.2954,1.9908,14.0468,1515
56102,1.4976,-4.0546,18.4114,1483
56107,-11.637,1.1432,8.1606,1491
56112,-5.4851,6.1495,2.9688,1503
56117,11.4407,2.4217,12.8521,1481
56122,4.5633,-4.2772,18.1744,1484
56127,-10.8266,1.0247,9.2105,1509
56132,-7.8853,6.0118,3.0586,1481
56137,10.3777,2.7928,11.3509,1490
56142,7.422,-4.0929,17.996,1497
56147,-10.3298,0.9601,10.5129,1503
56152,-10.0461,5.7904,3.4477,1494
56157,9.3877,3.1232,9.8402,1497
56162,9.7037,-3.6667,17.8356,1484
56167,-10.1299,0.814,11.7879,1491
56172,-11.9016,5.2852,3.8654,1501
56177,8.2444,3.4836,8.4144,1512
56182,11.6657,-3.0574,17.8045,1469
56187,-9.9335,0.6009,13.2076,1496
56192,-13.5081,4.7417,4.2988,1497
56197,7.0617,3.9169,7.0976,1492
56202,12.9526,-2.1907,17.6405,1483
56207,-9.6534,0.1329,14.5148,1514
56212,-14.5388,4.0354,4.8507,1483
56217,5.8323,4.4748,5.9544,1507
56222,13.9007,-1.2869,17.3795,1489
56227,-9.0405,-0.5519,15.8831,1497
56232,-15.038,3.2741,5.3391,1497
56237,4.2473,4.9344,4.8997,1501
56242,13.8636,-0.3639,17.0324,1495
56247,-7.7393,-1.397,16.6816,1491
56252,-14.8452,2.6324,5.9233,1500
56257,2.6432,5.4971,4.2748,1500
56262,14.0133,0.3472,16.5032,1485
56267,-6.0274,-2.2146,17.3232,1491
56272,-14.0947,2.132,6.4332,1495
56277,0.6033,5.9089,3.6176,1481
56282,13.3154,0.8452,15.9107,1495
56287,-3.7804,-2.8479,17.5914,1513
56292,-13.5392,1.7825,7.0701,1495
56297,-1.4293,6.2788,3.401,1497
56302,13.0484,1.2929,14.9494,1503
56307,-1.1049,-3.5817,17.8117,1479
56312,-12.2823,1.4952,7.6279,1512
56317,-3.7445,6.3279,3.1663,1487
56322,11.8585,1.67,13.8816,1486
56327,1.8735,-3.9157,17.917,1479
56332,-11.6466,1.2582,8.4755,1491
56337,-5.8407,6.3554,3.3148,1501
56342,11.3725,2.2027,12.5863,1497
56347,4.9428,-4.1994,17.8248,1486
56352,-10.7284,1.2498,9.4631,1512
56357,-8.1558,6.0873,3.3279,1482
56362,10.1131,2.6731,11.1342,1495
56367,7.6698,-3.9875,17.8153,1501
56372,-10.343,1.0319,10.7655,1497
56377,-10.1897,5.7174,3.6703,1491
56382,9.2907,3.14,9.6786,1507
56387,10.0999,-3.6619,17.6848,1481
56392,-10.149,0.8619,12.0967,1485
56397,-12.238,5.199,3.9899,1507
56402,8.0732,3.6069,8.1965,1495
56407,11.9459,-2.9233,17.6405,1487
56412,-9.8881,0.486,13.5644,1497
56417,-13.708,4.6483,4.4365,1499
56422,6.9121,4.0677,6.8283,1492
56427,13.1861,-2.0542,17.601,1483
56432,-9.5385,-0.0132,14.8249,1505
56437,-14.7806,4.0031,4.9404,1495
56442,5.5438,4.6376,5.7329,1496
56447,14.0683,-1.2151,17.4274,1499
56452,-8.8597,-0.6524,16.0735,1495
56457,-15.3744,3.3184,5.2972,1499
56462,3.8714,5.0865,4.6819,1517
56467,14.3688,-0.3508,17.1772,1481
56472,-7.5597,-1.4856,17.0742,1483
56477,-15.2571,2.6516,5.7545,1497
56482,2.1081,5.5366,3.972,1501
56487,14.1988,0.3292,16.7103,1479
56492,-5.7437,-2.381,17.6848,1501
56497,-14.5148,2.077,6.2213,1498
56502,0.0922,5.9173,3.3926,1482
56507,13.7068,0.99,15.9226,1479
56512,-3.1975,-3.1975,18.0774,1501
56517,-13.2914,1.5969,6.9384,1505
56522,-2.0207,6.1004,3.1196,1494
56527,12.9155,1.6376,14.8464,1499
56532,-0.2897,-3.8954,18.1648,1485
56537,-12.2416,1.2474,7.6411,1497
56542,-4.2425,6.177,2.9916,1509
56547,12.0249,2.229,13.69,1486
56552,2.891,-4.3335,18.2007,1492
56557,-11.139,1.0798,8.5784,1513
56562,-6.5912,6.1351,2.9916,1491
56567,10.9044,2.6576,12.1602,1479
56572,5.8215,-4.2569,18.1229,1495
56577,-10.4399,0.8727,9.7695,1516
56582,-8.8454,5.8646,3.3004,1493
56587,9.9228,3.0909,10.6482,1495
56592,8.4084,-3.9325,17.9134,1498
56597,-10.0449,0.7913,11.0732,1499
56602,-10.9212,5.4013,3.6152,1491
56607,8.8753,3.4129,9.1267,1509
56612,10.5704,-3.2082,17.856,1477
56617,-9.8665,0.5818,12.5324,1499
56622,-12.5959,4.8686,4.1013,1507
56627,7.7931,3.7996,7.7524,1499
56632,12.2308,-2.4612,17.6728,1483
56637,-9.7851,0.2598,13.9833,1503
56642,-13.9295,4.2485,4.6064,1501
56647,6.5793,4.2078,6.4021,1499
56652,13.3752,-1.5574,17.6261,1498
56657,-9.4308,-0.2334,15.3492,1503
56662,-14.8189,3.6045,5.0075,1481
56667,5.1667,4.6771,5.2756,1491
56672,13.9211,-0.7195,17.4046,1487
56677,-8.6383,-0.8978,16.4182,1491
56682,-15.1888,2.9963,5.4396,1501
56687,3.547,5.1535,4.4412,1510
56692,14.2156,0.0012,17.0838,1487
56697,-7.2712,-1.6915,17.3005,1491
56702,-14.9674,2.4948,5.8873,1491
56707,1.7442,5.6431,3.7433,1499
56712,13.9247,0.5303,16.5751,1483
56717,-5.3235,-2.4672,17.8536,1495
56722,-14.2898,2.0123,6.4751,1499
56727,-0.2095,6.0059,3.3435,1498
56732,13.5476,1.008,15.8113,1497
56737,-2.7282,-3.2561,18.1109,1503
56742,-13.2196,1.6927,6.9803,1496
56747,-2.3188,6.1734,2.9928,1483
56752,12.7072,1.4557,14.7148,1511
56757,0.3077,-3.8044,18.1157,1489
56762,-12.0823,1.4868,7.8266,1496
56767,-4.5741,6.3207,2.9928,1495
56772,11.7807,1.9142,13.4877,1495
56777,3.2729,-4.2306,18.0571,1485
56782,-11.2899,1.33,8.7448,1503
56787,-6.754,6.2357,3.0311,1481
56792,10.7607,2.3559,12.0608,1497
56797,6.4153,-4.3431,18.1097,1510
56802,-10.5237,1.2929,9.8545,1510
56807,-9.098,5.9987,3.213,1481
56812,9.596,2.7557,10.4794,1493
56817,9.0561,-4.0055,18.0894,1499
56822,-10.2161,1.075,11.133,1492
56827,-11.1678,5.6192,3.5578,1483
56832,8.5712,3.2908,9.0345,1500
56837,11.3557,-3.4405,18.0463,1481
56842,-9.9958,0.814,12.6677,1491
56847,-13.0975,5.1176,3.9564,1499
56852,7.355,3.7673,7.4113,1491
56857,12.876,-2.6276,18.0224,1471
56862,-9.748,0.3855,14.115,1517
56867,-14.4155,4.4448,4.4879,1497
56872,6.1304,4.3263,6.2142,1491
56877,13.9378,-1.7693,17.7877,1481
56882,-9.2799,-0.1975,15.4905,1499
56887,-15.2367,3.7254,4.9572,1498
56892,4.6316,4.792,5.0817,1506
56897,14.4131,-0.8547,17.5722,1495
56902,-8.3498,-1.0223,16.6529,1484
56907,-15.4067,2.9939,5.3008,1490
56912,2.9844,5.284,4.2665,1497
56917,14.4311,0.0192,17.1377,1483
56922,-6.8606,-1.913,17.5387,1495
56927,-15.1266,2.3379,5.8897,1505
56932,1.1552,5.6324,3.5087,1485
56937,14.1294,0.8464,16.3775,1495
56942,-4.4532,-2.8802,18.1624,1509
56947,-14.1234,1.7621,6.5422,1493
56952,-0.9445,5.8969,3.1544,1479
56957,13.3441,1.4808,15.3588,1502
56962,-1.64,-3.6021,18.4964,1498
56967,-13.0484,1.3527,7.203,1495
56972,-3.1041,6.1004,2.9137,1485
56977,12.5109,2.0937,14.1342,1507
56982,1.5179,-4.0965,18.5886,1483
56987,-11.6945,1.1337,8.0816,1501
56992,-5.4588,6.116,2.8264,1495
56997,11.3258,2.5558,12.6725,1481
57002,4.5466,-4.227,18.397,1487
57007,-10.8433,0.9373,9.1542,1510
57012,-7.7321,5.9532,3.0562,1495
57017,10.3537,2.8766,11.3018,1485
57022,7.4543,-4.1204,18.2103,1500
57027,-10.2592,0.9768,10.3825,1501
57032,-9.9551,5.7281,3.3591,1487
57037,9.2165,3.1663,9.7396,1505
57042,9.8186,-3.6332,18.0858,1491
57047,-9.9503,0.8811,11.7711,1493
57052,-11.9135,5.3139,3.7278,1507
57057,8.1666,3.559,8.3677,1507
57062,11.8298,-3.0837,17.996,1469
57067,-9.8821,0.6381,13.1442,1491
57072,-13.5464,4.8135,4.1192,1499
57077,6.9899,3.984,7.033,1499
57082,13.4087,-2.3451,17.9134,1471
57087,-9.681,0.2358,14.5412,1508
57092,-14.8931,4.2198,4.6005,1497
57097,5.5917,4.4724,5.8023,1499
57102,14.1928,-1.5347,17.7494,1487
57107,-9.0992,-0.4465,15.8221,1487
57112,-15.451,3.5733,5.0302,1499
57117,4.1432,4.9883,4.8914,1501
57122,14.7016,-0.6895,17.4035,1494
57127,-7.9703,-1.251,16.9809,1492
57132,-15.4199,2.903,5.5234,1503
57137,2.4409,5.4157,4.0677,1501
57142,14.3832,0.0168,16.9797,1483
57147,-6.1567,-2.1165,17.5687,1489
57152,-14.8812,2.3331,6.0645,1503
57157,0.6021,5.8263,3.4955,1491
57162,14.0707,0.6991,16.2291,1479
57167,-3.8056,-2.9461,18.0307,1513
57172,-13.7427,1.8483,6.6679,1496
57177,-1.5083,6.1064,2.9928,1481
57182,13.2208,1.2749,15.2044,1508
57187,-0.9074,-3.7014,18.269,1493
57192,-12.5911,1.494,7.428,1497
57197,-3.6679,6.2525,2.9329,1499
57202,12.3553,1.8292,14.0264,1499
57207,2.0339,-4.148,18.342,1487
57212,-11.6945,1.2354,8.2756,1496
57217,-5.8682,6.2189,2.9485,1491
57222,11.3282,2.3451,12.5037,1487
57227,5.2421,-4.3467,18.3132,1483
57232,-10.7679,1.075,9.3458,1511
57237,-8.3175,6.0513,3.0466,1483
57242,10.1825,2.8144,11.1199,1492
57247,7.8997,-4.148,18.154,1499
57252,-10.3082,0.9505,10.5788,1489
57257,-10.4447,5.6814,3.3674,1483
57262,9.2548,3.2537,9.6319,1495
57267,10.2125,-3.6787,18.0607,1477
57272,-9.979,0.8859,12.0716,1497
57277,-12.4139,5.3295,3.8116,1508
57282,8.1104,3.571,8.1283,1495
57287,11.9387,-2.958,17.8847,1481
57292,-9.7923,0.5255,13.3261,1507
57297,-13.6326,4.7333,4.2844,1502
57302,6.9276,4.0294,6.8354,1497
57307,13.386,-2.1368,17.8655,1491
57312,-9.5565,0.1317,14.7962,1509
57317,-14.8931,4.1156,4.6436,1496
57322,5.5522,4.4748,5.5534,1503
57327,14.1042,-1.2558,17.7769,1493
57332,-8.9435,-0.583,15.9837,1485
57337,-15.4797,3.4225,5.1296,1497
57342,4.0666,5.0326,4.7441,1517
57347,14.5292,-0.4824,17.3843,1485
57352,-7.8075,-1.5036,16.6708,1491
57357,-15.5144,3.0203,5.9209,1497
57362,2.211,5.369,4.0725,1503
57367,14.4646,0.2011,16.7115,1494
57372,-6.0549,-2.2745,17.6273,1495
57377,-14.8967,2.223,6.1579,1497
57382,0.5746,5.7748,3.3986,1472
57387,13.9103,1.0654,15.9334,1496
57392,-3.7996,-3.0239,18.5239,1506
57397,-13.5691,1.5455,6.7086,1507
57402,-1.4269,6.0166,2.9018,1491
57407,13.0352,1.6939,14.9781,1501
57412,-0.9744,-3.7362,18.4186,1485
57417,-12.7,1.2641,7.5776,1499
57422,-3.553,6.1758,3.0131,1501
57427,12.2727,2.2721,14.0324,1499
57432,1.9465,-4.1623,18.4318,1499
57437,-11.5365,1.0487,8.2672,1507
57442,-5.685,6.104,2.7773,1482
57447,11.1378,2.5498,12.3349,1486
57452,4.7956,-4.1599,18.348,1487
57457,-10.586,0.9014,9.481,1497
57462,-8.0194,6.0537,3.2238,1479
57467,10.1873,2.8587,11.0792,1491
57472,7.2484,-4.0677,17.7746,1495
57477,-10.5213,0.8823,10.6686,1499
57482,-9.7923,5.6312,3.4884,1497
57487,9.4296,3.1831,9.5888,1497
57492,9.9647,-3.5099,17.7877,1481
57497,-10.0329,0.8763,11.9088,1487
57502,-11.898,5.2625,3.881,1499
57507,8.0302,3.3495,7.9966,1503
57512,11.4251,-2.6935,18.3683,1467
57517,-9.8737,0.3986,13.0616,1495
57522,-12.8593,4.6352,4.1563,1497
57527,7.3478,4.0235,7.009,1495
57532,13.2782,-2.1668,17.6201,1491
57537,-9.7863,0.237,14.789,1517
57542,-14.7411,4.0366,4.5993,1486
57547,5.5976,4.3167,5.6156,1485
57552,13.714,-1.1732,18.0499,1490
57557,-9.0944,-0.5638,15.6162,1485
57562,-14.9901,3.4644,5.0745,1486
57567,4.4604,4.9787,5.1128,1509
57572,14.601,-0.516,17.2347,1485
57577,-8.2504,-1.336,16.7678,1489
57582,-15.1134,2.8276,5.6695,1494
57587,2.6097,5.2864,4.0199,1507
57592,14.0671,0.2334,16.9366,1490
57597,-6.3183,-2.0518,17.4908,1495
57602,-14.9518,2.3164,6.1136,1499
57607,1.0499,5.8478,3.7038,1497
57612,14.1174,0.9218,16.0878,1497
57617,-4.3191,-2.9425,18.2211,1499
57622,-13.8588,1.7909,6.5912,1507
57627,-1.0319,6.031,3.037,1487
57632,13.0723,1.397,15.281,1499
57637,-1.5215,-3.5733,18.4377,1493
57642,-12.864,1.4377,7.2927,1501
57647,-3.0742,6.274,2.9185,1499
57652,12.5169,1.8567,14.2012,1527
57657,1.4114,-4.0773,18.4569,1495
57662,-11.7172,1.3084,8.0972,1493
57667,-5.43,6.2549,2.7845,1495
57672,11.3342,2.2134,12.9071,1471
57677,4.4999,-4.3263,18.3456,1485
57682,-10.8828,1.2007,9.0453,1510
57687,-7.6399,6.1663,2.9724,1477
57692,10.4184,2.4876,11.4934,1486
57697,7.252,-4.3251,18.2546,1505
57702,-10.495,1.2043,10.2208,1493
57707,-9.7193,5.958,3.2693,1491
57712,9.4176,2.9113,10.0772,1491
57717,9.912,-4.0031,18.1888,1497
57722,-10.1347,1.1851,11.4598,1490
57727,-11.8262,5.5557,3.4728,1497
57732,8.2121,3.3603,8.5389,1495
57737,11.8573,-3.4141,18.2474,1485
57742,-9.9383,0.8404,12.8724,1497
57747,-13.465,5.0386,3.8846,1485
57752,7.1299,3.8738,7.2197,1495
57757,13.4686,-2.6552,18.0762,1481
57762,-9.7803,0.4154,14.3868,1499
57767,-14.8728,4.397,4.2808,1491
57772,5.7892,4.3359,5.9316,1491
57777,14.388,-1.7442,17.9374,1503
57782,-9.2344,-0.2753,15.7227,1491
57787,-15.7084,3.7385,4.7585,1499
57792,4.3778,4.8387,4.8495,1505
57797,14.8548,-0.7326,17.7003,1501
57802,-8.248,-1.1253,16.9557,1497
57807,-15.919,3.0765,5.2481,1485
57812,2.788,5.2493,4.0354,1501
57817,14.8393,0.1197,17.1676,1483
57822,-6.681,-2.0722,17.8775,1485
57827,-15.4474,2.4217,5.7604,1495
57832,1.0666,5.5773,3.4058,1485
57837,14.3269,0.9122,16.3596,1485
57842,-4.4796,-2.9844,18.5096,1511
57847,-14.3401,1.7729,6.4117,1501
57852,-0.8452,5.8802,2.9868,1477
57857,13.4722,1.5909,15.293,1499
57862,-1.7897,-3.6931,18.7035,1503
57867,-13.0269,1.3408,7.1347,1503
57872,-3.0299,6.0885,2.8671,1495
57877,12.5049,2.0782,14.1605,1479
57882,1.2234,-4.1575,18.6006,1493
57887,-11.6741,1.1947,8.0325,1499
57892,-5.302,6.2261,2.8048,1451
57897,11.3952,2.3942,12.8521,1497
57902,4.057,-4.3215,18.3707,1497
57907,-10.9283,1.0798,9.0441,1511
57912,-7.4472,6.1639,3.0406,1493
57917,10.4986,2.7031,11.5939,1497
57922,6.9324,-4.3072,18.2163,1501
57927,-10.3705,1.1803,10.2005,1497
57932,-9.5253,5.8945,3.2501,1486
57937,9.3817,2.9712,10.0173,1501
57942,9.5301,-3.8954,18.2031,1487
57947,-10.1167,1.0582,11.3509,1507
57952,-11.4239,5.5294,3.5314,1496
57957,8.3677,3.3938,8.7197,1497
57962,11.7867,-3.3938,18.1636,1485
57967,-9.9778,0.8236,12.7707,1501
57972,-13.3932,5.0877,3.8283,1511
57977,7.1646,3.8726,7.2652,1465
57982,13.3764,-2.6899,18.1265,1485
57987,-9.7636,0.3879,14.2575,1501
57992,-14.8716,4.5286,4.2952,1493
57997,5.94,4.3407,6.1375,1492
58002,14.3269,-1.8387,17.9362,1485
58007,-9.3194,-0.2514,15.5934,1495
58012,-15.7383,3.8571,4.6711,1501
58017,4.5226,4.8111,5.041,1512
58022,14.8716,-0.8954,17.5627,1497
58027,-8.3378,-1.1109,16.842,1491
58032,-15.8376,3.0323,5.2361,1501
58037,2.9652,5.2301,4.1635,1499
58042,14.6561,0.0874,17.0359,1487
58047,-6.8223,-2.0638,17.7123,1489
58052,-15.2403,2.2637,5.849,1508
58057,1.2186,5.5952,3.5279,1486
58062,14.1437,1.0391,16.2806,1493
58067,-4.6639,-2.9437,18.233,1507
58072,-14.0288,1.5874,6.5386,1497
58077,-0.6979,5.9233,3.152,1487
58082,13.2663,1.6903,15.2989,1500
58087,-2.0554,-3.5781,18.3408,1508
58092,-12.7503,1.2175,7.2772,1510
58097,-2.812,6.1208,3.0466,1497
58102,12.3493,2.1823,14.2515,1497
58107,0.6919,-3.9744,18.2833,1485
58112,-11.7807,1.0163,8.1379,1509
58117,-5.0099,6.2417,3.0131,1499
58122,11.5185,2.4481,13.0089,1482
58127,3.6356,-4.1743,18.1528,1483
58132,-10.9223,1.0654,9.0609,1510
58137,-7.1563,6.1734,3.2022,1481
58142,10.5417,2.569,11.7232,1487
58147,6.3949,-4.0965,18.0164,1494
58152,-10.4615,1.1791,10.0401,1497
58157,-9.0525,5.9496,3.3471,1486
58162,9.5912,2.8024,10.325,1497
58167,9.159,-3.8882,17.9805,1493
58172,-10.1155,1.2115,11.2863,1489
58177,-11.1294,5.6575,3.5865,1487
58182,8.4635,3.1544,8.837,1501
58187,11.473,-3.4812,18.105,1485
58192,-10.0736,1.0822,12.5636,1509
58197,-13.0412,5.2744,3.8403,1511
58202,7.2844,3.6835,7.5166,1493
58207,13.4865,-2.9461,18.166,1481
58212,-9.9874,0.6967,14.0588,1505
58217,-14.8644,4.8614,4.0977,1489
58222,5.9005,4.2126,6.2213,1499
58227,14.6597,-2.2793,18.0858,1485
58232,-9.4559,0.0958,15.4282,1499
58237,-15.8233,4.2677,4.4532,1484
58242,4.5586,4.7393,5.2397,1496
58247,15.2571,-1.4832,17.8991,1496
58252,-8.5317,-0.814,16.6122,1496
58257,-16.1381,3.6105,4.9201,1486
58262,2.97,5.1906,4.2581,1491
58267,15.2391,-0.6548,17.4789,1481
58272,-6.93,-1.7693,17.5926,1489
58277,-15.6102,2.8383,5.5821,1503
58282,1.1696,5.5869,3.547,1491
58287,14.7459,0.2131,16.775,1498
58292,-4.7752,-2.812,18.1564,1509
58297,-14.6142,2.1464,6.2381,1433
58302,-0.7817,5.928,3.0634,1497
58307,13.8995,1.0451,15.7347,1501
58312,-2.053,-3.6176,18.518,1507
58317,-13.1346,1.6328,7.0198,1511
58322,-2.9724,6.1543,2.8491,1491
58327,12.7659,1.7526,14.5005,1497
58332,0.8787,-4.1887,18.4485,1497
58337,-11.9423,1.2522,7.9057,1496
58342,-5.1631,6.2704,2.8706,1501
58347,11.7076,2.2697,13.1262,1495
58352,3.863,-4.4041,18.3492,1485
58357,-10.993,1.1145,8.9459,1513
58362,-7.4316,6.2249,3.0263,1487
58367,10.6003,2.6252,11.7831,1485
58372,6.5481,-4.3311,18.087,1506
58377,-10.507,1.0151,10.0592,1497
58382,-9.4176,5.9544,3.3686,1498
58387,9.6211,2.9724,10.3813,1501
58392,9.1087,-3.9373,17.8907,1493
58397,-10.1813,1.0343,11.394,1493
58402,-11.3856,5.5833,3.6871,1487
58407,8.5952,3.2825,8.9376,1493
58412,11.1642,-3.3351,17.8392,1491
58417,-10.0796,0.8272,12.6809,1508
58422,-12.955,5.1008,4.045,1498
58427,7.525,3.7625,7.665,1484
58432,13.0173,-2.66,17.7626,1487
58437,-9.9862,0.4788,14.0815,1508
58442,-14.5101,4.537,4.4233,1495
58447,6.1986,4.1899,6.3315,1483
58452,14.048,-1.8148,17.6943,1487
58457,-9.5337,-0.1377,15.3732,1489
58462,-15.3492,3.887,4.7968,1497
58467,4.7908,4.7321,5.3738,1497
58472,14.7914,-0.9266,17.4082,1501
58477,-8.6898,-0.8859,16.5739,1491
58482,-15.7179,3.1484,5.2014,1495
58487,3.225,5.1655,4.3539,1503
58492,14.8548,0.006,17.0683,1491
58497,-6.9767,-1.895,17.6225,1499
58502,-15.3385,2.4684,5.7688,1495
58507,1.3767,5.5701,3.7098,1483
58512,14.4155,0.6692,16.3883,1505
58517,-4.7429,-2.8012,18.1145,1509
58522,-14.2934,1.9142,6.3686,1489
58527,-0.6249,5.8957,3.1352,1499
58532,13.6517,1.239,15.5444,1493
58537,-2.0363,-3.4848,18.3575,1498
58542,-13.0221,1.5359,7.1742,1503
58547,-2.8168,6.1375,2.8587,1491
58552,12.6677,1.634,14.467,1499
58557,0.8284,-3.9732,18.2845,1487
58562,-11.9351,1.3838,7.9535,1493
58567,-5.0422,6.2728,2.9006,1487
58572,11.6705,2.0746,13.2196,1501
58577,3.8104,-4.2856,18.1959,1497
58582,-11.0804,1.2641,8.8921,1508
58587,-7.3035,6.1734,2.964,1484
58592,10.5872,2.4708,11.7567,1494
58597,6.7253,-4.3155,18.1121,1512
58602,-10.4926,1.2186,10.1059,1507
58607,-9.5433,5.964,3.2561,1497
58612,9.6151,2.9185,10.392,1495
58617,9.2919,-4.0534,17.9374,1498
58622,-10.3022,1.0918,11.3868,1491
58627,-11.5604,5.5653,3.6524,1497
58632,8.5856,3.3363,8.9447,1501
58637,11.3473,-3.3902,17.8404,1489
58642,-10.0868,0.838,12.7982,1498
58647,-13.2531,5.0266,4.0354,1507
58652,7.4747,3.7733,7.5753,1501
58657,12.7563,-2.5702,17.6812,1489
58662,-9.8964,0.3771,14.1701,1502
58667,-14.2946,4.3024,4.5418,1497
58672,6.2369,4.2856,6.3291,1497
58677,13.8217,-1.6771,17.6129,1498
58682,-9.4056,-0.1832,15.5611,1483
58687,-15.0308,3.7086,4.9644,1542
58692,4.7848,4.8016,5.1188,1509
58697,14.2503,-0.8643,17.4046,1491
58702,-8.4743,-0.923,16.5104,1495
58707,-15.2966,3.0765,5.4157,1499
58712,3.1723,5.2648,4.3383,1495
58717,14.4562,-0.0958,17.0204,1481
58722,-6.9492,-1.7885,17.498,1503
58727,-14.8764,2.4792,5.8442,1499
58732,1.2905,5.6695,3.6129,1495
58737,13.9833,0.4896,16.4877,1489
58742,-4.7297,-2.6588,17.9254,1501
58747,-14.109,2.0279,6.45,1499
58752,-0.6488,6.0633,3.2693,1485
58757,13.5189,0.9912,15.6102,1513
58762,-2.077,-3.4058,18.1516,1487
58767,-12.9167,1.7178,7.0809,1491
58772,-2.8874,6.2824,3.0071,1485
58777,12.5959,1.3599,14.5591,1501
58782,0.9481,-3.9217,18.0906,1481
58787,-11.8884,1.5933,8.0074,1507
58792,-5.1104,6.4236,2.9269,1491
58797,11.7424,1.7107,13.3249,1493
58802,3.8379,-4.2952,17.9793,1486
58807,-11.2204,1.5455,8.8909,1525
58812,-7.3394,6.377,3.0933,1481
58817,10.7464,2.132,12.0153,1491
58822,6.7816,-4.4388,17.9086,1509
58827,-10.6494,1.5,10.0485,1495
58832,-9.6379,6.1854,3.3052,1494
58837,9.6654,2.5786,10.4579,1494
58842,9.2895,-4.1791,17.8763,1493
58847,-10.4519,1.3144,11.2851,1503
58852,-11.5065,5.7892,3.6224,1499
58857,8.6682,3.146,9.104,1499
58862,11.558,-3.6619,17.8619,1483
58867,-10.2161,1.0906,12.7575,1500
58872,-13.3477,5.2948,4.0067,1499
58877,7.4208,3.6571,7.58,1495
58882,12.9682,-2.9293,17.8572,1491
58887,-9.9132,0.6105,14.0288,1512
58892,-14.4682,4.628,4.4197,1484
58897,6.2213,4.209,6.3877,1491
58902,14.0444,-2.0566,17.7291,1493
58907,-9.3996,-0.0658,15.3588,1493
58912,-15.2989,3.9181,4.8411,1497
58917,4.7082,4.7417,5.2589,1518
58922,14.4478,-1.2701,17.6141,1500
58927,-8.3534,-0.8799,16.4817,1495
58932,-15.4067,3.2513,5.357,1499
58937,3.1149,5.2816,4.3551,1509
58942,14.5017,-0.4968,17.2598,1483
58947,-6.8953,-1.7095,17.1964,1496
58952,-15.0212,2.6743,5.8275,1507
58957,1.3204,5.7401,3.6787,1487
58962,14.2419,0.1652,16.6146,1483
58967,-4.7872,-2.6097,17.8284,1501
58972,-13.9845,2.1727,6.4368,1489
58977,-0.7434,6.0609,3.2645,1496
58982,13.5296,0.7051,15.761,1518
58987,-2.1835,-3.3435,18.0403,1491
58992,-13.0915,1.8196,7.0785,1501
58997,-2.7952,6.2896,3.0311,1493
59002,12.7934,1.3024,14.686,1497
59007,0.8152,-3.984,18.1193,1487
59012,-11.874,1.6161,7.9116,1497
59017,-5.1272,6.3686,2.903,1491
59022,11.7472,1.7777,13.4219,1494
59027,3.8199,-4.3191,17.9793,1499
59032,-11.1977,1.3671,8.8945,1513
59037,-7.2999,6.3303,3.067,1481
59042,10.8637,2.2637,11.983,1483
59047,6.7804,-4.3886,17.9326,1499
59052,-10.5441,1.4018,10.0604,1490
59057,-9.5517,6.0908,3.1747,1499
59062,9.6893,2.7869,10.4244,1499
59067,9.3697,-4.1719,18.0236,1487
59072,-10.234,1.2198,11.2719,1498
59077,-11.5173,5.7042,3.4524,1533
59082,8.5641,3.2765,8.9854,1491
59087,11.5903,-3.5961,18.0607,1481
59092,-10.0521,0.9888,12.6414,1511
59097,-13.4051,5.266,3.8403,1497
59102,7.331,3.7733,7.4974,1491
59107,13.1813,-2.8551,18.0978,1487
59112,-9.8078,0.5052,14.0695,1517
59117,-14.7543,4.6783,4.2689,1493
59122,6.0214,4.3275,6.2357,1496
59127,14.2144,-2.0482,17.9146,1491
59132,-9.3781,-0.1401,15.378,1486
59137,-15.5324,3.9828,4.7202,1495
59142,4.5993,4.786,5.1691,1507
59147,14.6992,-1.1564,17.7087,1499
59152,-8.3845,-0.9062,16.5727,1500
59157,-15.5611,3.2322,5.3175,1498
59162,2.976,5.2672,4.2988,1493
59167,14.6489,-0.4286,17.2275,1495
59172,-6.8091,-1.81,17.3352,1501
59177,-14.9793,2.6109,5.8119,1501
59182,1.2234,5.697,3.7278,1491
59187,14.2766,0.249,16.6517,1500
59192,-4.6747,-2.6839,17.7997,1512
59197,-14.024,2.0913,6.4356,1503
59202,-0.7721,6.0442,3.2549,1495
59207,13.538,0.7901,15.7299,1499
59212,-2.0123,-3.4333,17.9996,1484
59217,-12.8497,1.7765,7.1431,1493
59222,-2.9604,6.3698,3.0227,1493
59227,12.6905,1.2965,14.6741,1497
59232,0.9517,-3.9911,17.9972,1485
59237,-11.9243,1.5479,7.9787,1503
59242,-5.1763,6.4272,3.0155,1490
59247,11.7424,1.8591,13.3381,1495
59252,4.0689,-4.3383,17.9146,1500
59257,-11.0564,1.4257,8.9459,1515
59262,-7.5381,6.28,3.0514,1479
59267,10.6793,2.3487,11.9016,1487
59272,6.9061,-4.3778,17.9266,1503
59277,-10.6111,1.3012,10.1023,1494
59282,-9.6989,5.9699,3.2872,1495
59287,9.6474,2.9042,10.3657,1497
59292,9.6426,-4.0007,17.8488,1491
59297,-10.2735,1.1791,11.4994,1501
59302,-11.8848,5.6084,3.5733,1508
59307,8.5018,3.4321,8.8071,1500
59312,11.6286,-3.4165,17.905,1487
59317,-10.0521,0.8475,12.8856,1495
59322,-13.4662,5.0147,3.9684,1499
59327,7.3897,3.8487,7.4005,1498
59332,13.2507,-2.5869,17.9122,1491
59337,-9.8234,0.3998,14.3185,1513
59342,-14.8309,4.3958,4.4448,1496
59347,5.9675,4.3551,6.098,1449
59352,14.115,-1.7131,17.8488,1495
59357,-9.256,-0.2957,15.5791,1491
59362,-15.4869,3.7529,4.8662,1497
59367,4.5358,4.8291,5.0434,1511
59372,14.5747,-0.8811,17.5435,1500
59377,-8.2899,-1.0858,16.7462,1509
59382,-15.6401,3.0574,5.29,1502
59387,2.9401,5.2565,4.1336,1494
59392,14.5974,-0.0946,17.1545,1486
59397,-6.6894,-1.9166,17.6728,1512
59402,-15.1242,2.4241,5.8083,1509
59407,1.0798,5.6982,3.5111,1493
59412,14.2563,0.5794,16.5056,1485
59417,-4.5526,-2.7833,18.2259,1499
59422,-14.2802,1.9118,6.4224,1497
59427,-0.8871,5.9245,3.1077,1493
59432,13.6469,1.2737,15.6054,1511
59437,-1.7897,-3.5841,18.4617,1484
59442,-12.973,1.5778,7.1144,1495
59447,-3.0873,6.1603,2.8192,1507
59452,12.6689,1.7909,14.388,1499
59457,1.251,-4.1934,18.4138,1483
59462,-11.9052,1.3168,7.9667,1508
59467,-5.363,6.189,2.8132,1493
59472,11.6909,2.2266,13.0999,1468
59477,4.3874,-4.44,18.3228,1499
59482,-11.0875,1.2737,9.0381,1491
59487,-7.6902,6.195,2.9149,1493
59492,10.6027,2.6025,11.582,1497
59497,7.2149,-4.4317,18.2139,1507
59502,-10.5381,1.2246,10.1945,1493
59507,-9.918,6.013,3.213,1497
59512,9.5241,2.9473,10.1586,1507
59517,9.669,-4.0594,18.1409,1497
59522,-10.2304,1.0977,11.4862,1498
59527,-11.8441,5.6036,3.5303,1511
59532,8.4503,3.3866,8.6814,1481
59537,11.6191,-3.4441,17.9817,1479
59542,-10.0724,0.8368,12.979,1501
59547,-13.4518,5.0853,4.0306,1487
59552,7.3598,3.8343,7.4065,1493
59557,12.9873,-2.6659,17.82,1490
59562,-9.8761,0.3819,14.2874,1511
59567,-14.552,4.3826,4.4712,1498
59572,6.1076,4.2904,6.201,1498
59577,13.9175,-1.7609,17.6321,1491
59582,-9.3925,-0.2322,15.542,1493
59587,-15.1074,3.7026,4.9919,1497
59592,4.707,4.792,5.1308,1517
59597,14.3018,-0.9301,17.437,1487
59602,-8.4515,-1.0223,16.5236,1495
59607,-15.1984,3.0418,5.4576,1497
59612,3.1975,5.2696,4.3981,1493
59617,14.4047,-0.085,17.0359,1542
59622,-6.9743,-1.81,17.3795,1503
59627,-14.7758,2.4505,5.9089,1503
59632,1.4174,5.691,3.6631,1491
59637,14.0252,0.5734,16.4649,1491
59642,-4.8542,-2.6659,17.9577,1511
59647,-14.1186,1.9417,6.4236,1507
59652,-0.5112,5.9903,3.2753,1493
59657,13.4913,1.1504,15.603,1517
59662,-2.2769,-3.3698,18.2546,1499
59667,-12.9694,1.5969,7.0521,1495
59672,-2.6516,6.1507,2.9329,1495
59677,12.6354,1.652,14.5137,1503
59682,0.6764,-3.9588,18.3121,1491
59687,-11.9315,1.3982,7.865,1508
59692,-4.8554,6.256,2.9078,1493
59697,11.7591,2.059,13.3381,1497
59702,3.6895,-4.2952,18.2283,1493
59707,-11.1606,1.3982,8.8765,1512
59712,-7.1646,6.2429,2.9389,1485
59717,10.8206,2.3343,11.8788,1469
59722,6.5398,-4.3886,18.1564,1495
59727,-10.5441,1.3647,9.985,1493
59732,-9.4463,6.0681,3.2346,1486
59737,9.7432,2.7234,10.4315,1497
59742,9.0644,-4.0833,17.996,1493
59747,-10.3741,1.2486,11.1965,1492
59752,-11.3605,5.7748,3.5578,1501
59757,8.7269,3.134,9.0944,1491
59762,11.2336,-3.6176,17.9601,1471
59767,-10.1897,1.063,12.6055,1501
59772,-13.1035,5.2864,3.899,1503
59777,7.5788,3.5901,7.6579,1483
59782,12.8844,-2.9772,17.9493,1483
59787,-9.991,0.6716,13.9283,1508
59792,-14.3508,4.7477,4.2605,1499
59797,6.3171,4.1384,6.5134,1487
59802,14.0815,-2.1979,17.8955,1496
59807,-9.6055,0.1628,15.2379,1503
59812,-15.3935,4.0773,4.5921,1529
59817,4.9165,4.6771,5.3247,1509
59822,14.8129,-1.3755,17.8655,1499
59827,-8.7436,-0.6512,16.4338,1485
59832,-15.7203,3.3734,5.0566,1501
59837,3.3172,5.1272,4.44,1494
59842,14.9374,-0.5351,17.4896,1485
59847,-7.3179,-1.5766,17.2802,1497
59852,-15.4462,2.7342,5.5569,1499
59857,1.6245,5.5055,3.7314,1497
59862,14.6693,0.2957,16.848,1481
59867,-5.217,-2.557,18.0559,1513
59872,-14.4107,2.1213,6.2082,1497
59877,-0.395,5.8909,3.1771,1484
59882,13.9019,0.9541,15.9167,1511
59887,-2.636,-3.3686,18.3025,1498
59892,-13.3668,1.7202,6.8366,1501
59897,-2.4588,6.1723,2.9497,1498
59902,13.0197,1.4712,14.8943,1493
59907,0.261,-3.9899,18.3958,1483
59912,-12.1027,1.5012,7.671,1495
59917,-4.7621,6.3195,2.788,1501
59922,12.0285,1.8064,13.5859,1493
59927,3.292,-4.3455,18.2199,1493
59932,-11.2551,1.4054,8.6131,1499
59937,-6.948,6.3075,2.8814,1495
59942,11.078,2.2206,12.2643,1484
59947,6.2369,-4.4903,18.1528,1515
59952,-10.7069,1.4425,9.675,1499
59957,-9.2117,6.1687,3.037,1487
59962,9.9359,2.6911,10.7524,1508
59967,9.0345,-4.3251,18.2175,1487
59972,-10.4483,1.3467,10.9379,1515
59977,-11.3246,5.9017,3.3232,1507
59982,8.8454,3.2154,9.3529,1503
59987,11.4826,-3.9037,18.1516,1485
59992,-10.2999,1.1205,12.2703,1492
59997,-13.2052,5.4504,3.5769,1501
60002,7.5884,3.7397,7.8087,1500
60007,13.3249,-3.1687,18.2306,1478
60012,-10.0281,0.6967,13.8086,1515
60017,-14.8165,4.8387,3.9109,1485
60022,6.2836,4.2581,6.4715,1547
60027,14.4466,-2.2182,18.0918,1493
60032,-9.5541,0.0239,15.1936,1499
60037,-15.7431,4.1264,4.3826,1493
60042,4.8914,4.7082,5.2876,1501
60047,15.038,-1.1983,17.9194,1485
60052,-8.7891,-0.8595,16.5451,1481
60057,-15.9669,3.2753,4.9548,1485
60062,3.3866,5.0601,4.2988,1499
60067,14.9805,-0.237,17.431,1489
60072,-7.3993,-1.7609,17.5124,1487
60077,-15.4618,2.5582,5.5545,1495
60082,1.6472,5.4564,3.6799,1491
60087,14.6417,0.6452,16.7283,1483
60092,-5.46,-2.5774,18.233,1509
60097,-14.5663,1.9393,6.2189,1497
60102,-0.1856,5.7233,3.1807,1487
60107,13.9654,1.3515,15.8209,1509
60112,-2.8874,-3.3651,18.5395,1502
60117,-13.3357,1.4808,6.8654,1503
60122,-2.2829,5.9711,2.9149,1499
60127,13.0568,1.9836,14.7495,1543
60132,-0.0323,-3.9935,18.6377,1487
60137,-12.2655,1.1193,7.5765,1499
60142,-4.4616,6.1196,2.8371,1486
60147,12.0799,2.4385,13.4494,1482
60152,3.0394,-4.3096,18.4868,1484
60157,-11.0504,1.0487,8.6395,1512
60162,-6.7349,6.098,2.8479,1487
60167,10.9583,2.7031,12.141,1496
60172,5.7018,-4.2748,18.2474,1494
60177,-10.5357,0.9433,9.7396,1503
60182,-8.8442,5.9268,3.1711,1485
60187,10.0688,3.0215,10.6961,1485
60192,8.3582,-4.0378,18.0176,1491
60197,-10.1706,0.9768,11.0887,1497
60202,-10.9128,5.5952,3.5183,1495
60207,8.9328,3.3064,9.2883,1507
60212,10.3453,-3.4692,17.8392,1491
60217,-10.1562,0.7781,12.3649,1499
60222,-12.2787,5.0589,4.0211,1503
60227,7.9487,3.7062,7.9847,1465
60232,12.2439,-2.7378,17.7231,1489
60237,-10.0114,0.5375,13.8086,1509
60242,-13.7559,4.5238,4.4125,1495
60247,6.6655,4.0151,6.5577,1499
60252,13.1322,-1.913,17.6824,1491
60257,-9.6833,0.012,14.9805,1498
60262,-14.4729,3.9576,4.8914,1491
60267,5.4959,4.5753,5.7042,1490
60272,14.2563,-1.1732,17.4501,1499
60277,-9.0309,-0.5327,16.2351,1485
60282,-15.0069,3.316,5.2218,1493
60287,3.8583,5.0087,4.5813,1497
60292,14.0588,-0.5088,17.3412,1507
60297,-7.7009,-1.3192,16.9186,1491
60302,-14.9554,2.7521,5.7042,1507
60307,2.3044,5.5354,4.1192,1491
60312,14.5005,0.1784,16.702,1494
60317,-5.958,-2.2206,17.6429,1511
60322,-14.1078,2.2266,6.2345,1499
60327,0.2598,5.8562,3.3303,1491
60332,13.5524,0.7937,16.1621,1501
60337,-3.4249,-2.9939,17.9828,1499
60342,-13.6074,1.8112,6.8151,1499
60347,-1.6616,6.1327,3.1987,1496
60352,13.3573,1.3803,15.1326,1493
60357,-0.5782,-3.7553,18.105,1497
60362,-12.226,1.6293,7.5118,1495
60367,-4.0139,6.2501,2.9125,1503
60372,12.0309,1.7765,13.8924,1492
60377,2.4062,-4.1408,18.1576,1492
60382,-11.497,1.385,8.4396,1503
60387,-6.1699,6.2752,3.0143,1480
60392,11.3102,2.1656,12.4666,1492
60397,5.3858,-4.391,18.0607,1496
60402,-10.8062,1.3515,9.4978,1511
60407,-8.5186,6.0837,3.1639,1497
60412,10.1418,2.6252,11.0852,1495
60417,8.1618,-4.1899,18.0307,1497
60422,-10.4052,1.2246,10.7236,1499
60427,-10.6722,5.8251,3.4788,1499
60432,9.1231,3.1184,9.5565,1503
60437,10.4375,-3.7649,17.8536,1468
60442,-10.2699,1.0127,12.1254,1500
60447,-12.4606,5.3067,3.8475,1513
60452,8.0385,3.6057,8.1762,1486
60457,12.293,-3.0801,17.7913,1485
60462,-10.0808,0.7195,13.5332,1519
60467,-13.9283,4.7453,4.2174,1493
60472,6.7995,4.0366,6.869,1481
60477,13.453,-2.2733,17.7315,1498
60482,-9.7528,0.1592,14.8752,1500
60487,-14.8596,4.1049,4.707,1498
60492,5.4025,4.5777,5.7054,1508
60497,14.2898,-1.4593,17.583,1493
60502,-9.074,-0.5902,15.9693,1485
60507,-15.2702,3.3651,5.1882,1496
60512,3.8786,5.0494,4.7716,1499
60517,14.4346,-0.5854,17.2658,1492
60522,-7.6866,-1.397,16.8624,1497
60527,-14.9051,2.7043,5.7916,1499
60532,2.1668,5.5186,4.1096,1490
60537,14.2335,0.1927,16.6182,1491
60542,-5.7664,-2.3008,17.4226,1515
60547,-14.1785,2.0925,6.3482,1494
60552,0.2274,5.9221,3.5757,1495
60557,13.714,0.9086,15.8795,1513
60562,-3.3028,-3.1101,17.7374,1471
60567,-13.0759,1.6556,7.0078,1511
60572,-1.901,6.1555,3.225,1494
60577,12.9239,1.4796,14.9482,1496
60582,-0.6584,-3.7026,17.7997,1493
60587,-12.2571,1.4174,7.7728,1507
60592,-4.0618,6.3279,3.1556,1491
60597,12.1434,1.9513,13.799,1485
60602,2.3176,-4.1887,17.753,1494
60607,-11.2815,1.3503,8.685,1502
60612,-6.3422,6.2788,3.2118,1479
60617,11.1342,2.1919,12.4271,1493
60622,5.035,-4.2341,17.6943,1497
60627,-10.8733,1.2845,9.7396,1509
60632,-8.43,6.1663,3.5027,1490
60637,10.3525,2.5534,11.0564,1491
60642,7.8266,-4.0929,17.6129,1490
60647,-10.4519,1.2977,10.8637,1501
60652,-10.3956,5.7832,3.7302,1495
60657,9.1889,2.9521,9.6019,1495
60662,10.0329,-3.5901,17.6285,1485
60667,-10.319,1.0989,12.1242,1503
60672,-11.9495,5.2828,4.0929,1511
60677,8.2001,3.4285,8.3175,1500
60682,12.1051,-3.0347,17.5698,1471
60687,-10.1502,0.8871,13.5667,1525
60692,-13.6086,4.7226,4.3682,1492
60697,6.754,3.9193,6.8606,1496
60702,13.3106,-2.3188,17.7482,1499
60707,-9.7648,0.2263,14.8261,1497
60712,-14.6022,4.1707,4.725,1495
60717,5.4672,4.5466,5.7413,1499
60722,14.3365,-1.5969,17.6189,1479
60727,-9.1363,-0.4417,16.0232,1491
60732,-15.1565,3.5123,5.1595,1497
60737,3.8511,5.0254,4.695,1499
60742,14.3868,-0.8212,17.4621,1486
60747,-7.7452,-1.2498,16.7977,1491
60752,-15.0619,2.9054,5.6348,1505
60757,2.2541,5.5162,4.063,1487
60762,14.5579,-0.1257,16.8432,1491
60767,-5.9376,-2.1787,17.6333,1499
60772,-14.4095,2.3355,6.1184,1499
60777,0.3208,5.855,3.4477,1491
60782,13.8217,0.7015,16.1932,1499
60787,-3.4848,-3.0418,18.0451,1495
60792,-13.629,1.8148,6.8031,1497
60797,-1.64,6.1339,3.1268,1497
60802,13.1681,1.4629,15.0907,1507
60807,-0.6776,-3.8307,18.3109,1490
60812,-12.2823,1.4533,7.4831,1501
60817,-3.972,6.1986,2.8395,1491
60822,12.1398,2.0794,13.8636,1493
60827,2.1703,-4.2473,18.2702,1493
60832,-11.4263,1.1013,8.4455,1503
60837,-6.098,6.1699,2.9928,1480
60842,11.303,2.5474,12.5205,1457
60847,5.1032,-4.3922,18.2283,1514
60852,-10.6267,1.136,9.4858,1511
60857,-8.3378,5.9711,3.158,1485
60862,10.1849,2.8934,11.0265,1491
60867,7.6447,-4.1252,18.0403,1497
60872,-10.3238,1.008,10.641,1495
60877,-10.1766,5.6623,3.4584,1486
60882,9.2141,3.2621,9.5984,1496
60887,10.0485,-3.6536,17.9421,1495
60892,-10.0389,0.9074,12.0009,1503
60897,-12.0117,5.217,3.796,1511
60902,8.0792,3.5578,8.1451,1494
60907,11.746,-2.9628,17.9374,1477
60912,-9.9491,0.5459,13.3573,1525
60917,-13.3872,4.6495,4.2832,1497
60922,7.039,4.0486,6.9599,1494
60927,13.1142,-2.2218,17.7087,1491
60932,-9.8007,0.1365,14.7674,1501
60937,-14.4694,3.9995,4.7106,1487
60942,5.6982,4.4544,5.7604,1499
60947,13.8193,-1.3671,17.5387,1495
60952,-9.1877,-0.5375,15.949,1483
60957,-14.8919,3.3267,5.2505,1503
60962,4.3383,4.9584,4.8566,1509
60967,14.1856,-0.4729,17.1485,1485
60972,-8.1151,-1.2737,16.86,1501
60977,-14.9542,2.6755,5.6994,1507
60982,2.7174,5.4025,4.1216,1485
60987,14.1222,0.3484,16.7666,1481
60992,-6.3985,-2.1727,17.601,1512
60997,-14.3544,2.0638,6.2022,1495
61002,0.8966,5.7569,3.4512,1491
61007,13.6625,1.075,16.04,1495
61012,-4.1468,-2.9197,18.0247,1503
61017,-13.6015,1.6616,6.7672,1495
61022,-1.1313,6.0717,3.1927,1487
61027,13.0855,1.6688,15.1709,1502
61032,-1.5407,-3.6428,18.2211,1491
61037,-12.5372,1.3575,7.3478,1503
61042,-3.2741,6.1782,2.9676,1507
61047,12.1877,2.0937,14.0324,1486
61052,1.3599,-4.0079,18.3276,1491
61057,-11.6538,1.1899,8.2109,1523
61062,-5.4384,6.1962,2.97,1481
61067,11.4012,2.4181,12.7802,1527
61072,4.2976,-4.2605,18.1828,1509
61077,-10.8864,1.1636,9.1171,1503
61082,-7.5896,6.0873,3.0849,1497
61087,10.4387,2.6719,11.406,1493
61092,7.1862,-4.203,18.1576,1495
61097,-10.3801,1.2234,10.3058,1461
61102,-9.6462,5.8478,3.3351,1481
61107,9.4116,2.982,9.9898,1493
61112,9.5565,-3.8439,18.0427,1494
61117,-10.2604,1.1121,11.5951,1501
61122,-11.4263,5.4576,3.6224,1506
61127,8.4013,3.3483,8.5317,1498
61132,11.71,-3.3495,18.0499,1499
61137,-10.0832,0.8547,12.9778,1517
61142,-13.2555,5.0194,3.9552,1499
61147,7.1239,3.796,7.1431,1491
61152,13.0891,-2.6576,18.002,1491
61157,-9.8857,0.3424,14.3449,1497
61162,-14.4801,4.4017,4.3706,1501
61167,5.9867,4.3215,6.0801,1509
61172,14.2419,-1.6867,17.8368,1497
61177,-9.4463,-0.3041,15.7802,1496
61182,-15.5288,3.6631,4.7932,1497
61187,4.5825,4.7812,4.9476,1517
61192,14.4311,-0.6548,17.5794,1491
61197,-8.3689,-1.1732,16.8229,1493
61202,-15.4414,2.8695,5.3391,1497
61207,3.1161,5.2852,4.203,1495
61212,14.3544,0.2693,16.9653,1499
61217,-6.8642,-2.0171,17.6153,1499
61222,-14.8417,2.2134,5.9592,1511
61227,1.3372,5.6252,3.5446,1499
61232,13.8792,1.0116,16.2878,1485
61237,-4.7321,-2.8299,17.9864,1495
61242,-13.7846,1.7238,6.669,1493
61247,-0.5818,6.0214,3.1999,1484
61252,13.2184,1.4988,15.4677,1503
61257,-2.4205,-3.4764,18.1061,1495
61262,-13.0041,1.3719,7.2053,1499
61267,-2.5833,6.2034,3.1101,1495
61272,12.6438,1.9932,14.4191,1505
61277,0.3699,-4.0103,18.2295,1485
61282,-11.8537,1.3096,7.9464,1501
61287,-4.701,6.2572,3.0035,1494
61292,11.6095,2.3032,13.216,1491
61297,3.1783,-4.227,18.2019,1495
61302,-11.3342,1.1468,8.7783,1503
61307,-6.6535,6.1459,3.1232,1493
61312,10.9319,2.6504,11.9435,1487
61317,6.2608,-4.2832,18.1253,1491
61322,-10.5117,1.2522,9.9168,1495
61327,-8.8573,5.958,3.1663,1493
61332,9.6666,2.8802,10.4172,1501
61337,8.6945,-4.0294,18.1385,1487
61342,-10.3801,1.0834,11.0756,1495
61347,-10.5943,5.5964,3.5207,1499
61352,8.8681,3.3112,9.159,1490
61357,11.1259,-3.6272,18.0188,1470
61362,-10.2292,1.0199,12.469,1499
61367,-12.815,5.2002,3.7302,1501
61372,7.4903,3.6775,7.6614,1494
61377,12.7455,-2.9221,18.0918,1471
61382,-10.0724,0.5758,13.8122,1513
61387,-14.1904,4.7441,4.1815,1499
61392,6.4643,4.1946,6.5996,1493
61397,14.0109,-2.1787,17.8248,1493
61402,-9.8234,0.0383,15.0966,1487
61407,-15.3133,4.0282,4.6172,1499
61412,5.0901,4.6412,5.4827,1517
61417,14.6274,-1.2809,17.7087,1493
61422,-8.9783,-0.7183,16.3716,1501
61427,-15.4953,3.3172,5.0996,1496
61432,3.7134,5.0829,4.5526,1506
61437,14.631,-0.407,17.2454,1483
61442,-7.6674,-1.5311,17.188,1491
61447,-15.2642,2.6312,5.6072,1507
61452,2.071,5.4851,3.9205,1483
61457,14.4682,0.5028,16.7187,1487
61462,-5.7533,-2.5067,17.9062,1499
61467,-14.2431,2.0016,6.2596,1499
61472,0.2011,5.843,3.3267,1481
61477,13.6517,1.1696,15.9059,1501
61482,-3.4608,-3.2022,18.1157,1507
61487,-13.4662,1.5419,6.8785,1512
61492,-1.8232,6.0908,3.0765,1491
61497,13.0568,1.7011,14.929,1498
61502,-0.7326,-3.8367,18.2546,1492
61507,-12.2404,1.3336,7.5357,1493
61512,-3.9325,6.2261,2.9293,1491
61517,12.0608,2.1069,13.7307,1481
61522,2.0806,-4.1839,18.2809,1492
61527,-11.5017,1.1468,8.4036,1509
61532,-5.9807,6.2189,3.0263,1481
61537,11.2456,2.4792,12.4283,1485
61542,4.9883,-4.3227,18.1636,1499
61547,-10.7188,1.2079,9.3709,1491
61552,-8.0924,6.0262,3.1556,1496
61557,10.1658,2.7617,11.0456,1497
61562,7.6614,-4.1204,18.1157,1498
61567,-10.3669,1.1193,10.5931,1502
61572,-9.9096,5.7186,3.4477,1509
61577,9.2524,3.1436,9.7157,1495
61582,10.0245,-3.7541,18.0295,1481
61587,-10.1406,1.0606,11.8944,1499
61592,-11.8082,5.3271,3.6679,1507
61597,8.0876,3.5147,8.3139,1501
61602,11.9746,-3.1173,18.0343,1485
61607,-10.0844,0.7697,13.1861,1524
61612,-13.4806,4.8351,4.0151,1487
61617,6.9839,3.948,6.9839,1491
61622,13.453,-2.4792,17.911,1493
61627,-9.9012,0.3508,14.6058,1501
61632,-14.8716,4.2772,4.4831,1487
61637,5.6683,4.4388,5.8562,1498
61642,14.3209,-1.6783,17.8907,1497
61647,-9.3458,-0.3017,15.8305,1493
61652,-15.4641,3.6775,4.8495,1490
61657,4.3299,4.9213,4.9057,1511
61662,14.7231,-0.9098,17.6046,1489
61667,-8.2791,-1.0989,16.8971,1492
61672,-15.4977,3.0335,5.3331,1507
61677,2.7306,5.3594,4.0965,1495
61682,14.6465,-0.0802,17.158,1485
61687,-6.7505,-1.9848,17.6932,1509
61692,-14.9745,2.3966,5.8466,1501
61697,1.0786,5.7138,3.4919,1481
61702,14.2359,0.6237,16.4972,1501
61707,-4.5969,-2.8024,18.1911,1498
61712,-13.9546,1.9465,6.4248,1497
61717,-0.9182,6.0394,3.0622,1479
61722,13.5021,1.1205,15.6162,1509
61727,-2.1057,-3.5015,18.324,1493
61732,-12.9478,1.634,7.0521,1502
61737,-2.9473,6.1711,2.9281,1494
61742,12.7958,1.5514,14.552,1485
61747,0.7973,-4.0546,18.3396,1483
61752,-11.8848,1.4736,7.8039,1509
61757,-5.0925,6.2369,2.8144,1490
61762,11.7998,1.9884,13.2651,1480
61767,3.7924,-4.373,18.2761,1500
61772,-11.2276,1.4066,8.746,1507
61777,-7.2317,6.2513,2.9856,1494
61782,10.8948,2.4505,11.9614,1491
61787,6.7289,-4.4472,18.233,1507
61792,-10.6817,1.3886,9.8761,1499
61797,-9.4703,6.128,3.067,1497
61802,9.73,2.8264,10.5201,1500
61807,9.2967,-4.2593,18.1026,1489
61812,-10.4028,1.2378,11.1151,1507
61817,-11.5017,5.7928,3.4488,1515
61822,8.7245,3.2753,9.1638,1496
61827,11.2934,-3.7924,18.0379,1477
61832,-10.2615,1.0427,12.4989,1506
61837,-13.1394,5.3091,3.7649,1495
61842,7.61,3.7038,7.7428,1492
61847,12.8138,-3.0861,17.9781,1482
61852,-10.0245,0.6668,13.8864,1513
61857,-14.3281,4.7297,4.3024,1487
61862,6.4536,4.1911,6.4883,1500
61867,13.7691,-2.2972,17.8667,1502
61872,-9.5828,0.0994,15.0775,1491
61877,-15.0224,4.0486,4.7345,1495
61882,5.1631,4.6938,5.4169,1502
61887,14.4514,-1.4545,17.6991,1491
61892,-8.8334,-0.5974,16.2758,1478
61897,-15.2858,3.3806,5.2433,1501
61902,3.5769,5.1799,4.4712,1497
61907,14.4251,-0.6189,17.4178,1481
61912,-7.4974,-1.4808,17.1197,1459
61917,-15.1828,2.7378,5.703,1496
61922,1.962,5.5905,3.8858,1484
61927,14.4275,0.1712,16.8288,1485
61932,-5.6515,-2.399,17.8584,1499
61937,-14.3808,2.1117,6.1854,1493
61942,0.0072,5.9424,3.2513,1482
61947,13.6266,0.8332,16.0292,1513
61952,-3.1975,-3.1819,18.2091,1490
61957,-13.5248,1.7107,6.8606,1499
61962,-1.9118,6.1351,2.9987,1503
61967,13.0699,1.4186,14.9494,1495
61972,-0.4274,-3.8571,18.2881,1485
61977,-12.2918,1.4641,7.6411,1500
61982,-4.0977,6.3219,2.8599,1485
61987,11.9866,1.8232,13.6781,1483
61992,2.4241,-4.221,18.233,1503
61997,-11.4132,1.3659,8.6084,1501
62002,-6.2177,6.3782,2.9592,1490
62007,11.151,2.1548,12.4271,1497
62012,5.0637,-4.3562,18.0559,1496
62017,-10.9259,1.3216,9.5756,1487
62022,-8.2612,6.1818,3.2813,1489
62027,10.1825,2.4397,10.9666,1546
62032,7.5525,-4.13,17.9697,1491
62037,-10.4914,1.251,10.7787,1499
62042,-10.1167,5.9101,3.6009,1487
62047,9.2596,2.806,9.566,1491
62052,9.5684,-3.7326,17.7805,1481
62057,-10.4531,1.0965,11.9638,1495
62062,-11.5269,5.3702,4.0522,1501
62067,8.4288,3.2932,8.3354,1439
62072,11.4539,-3.2154,17.6429,1491
62077,-10.1993,0.9134,13.3525,1507
62082,-12.9275,4.8435,4.464,1487
62087,7.2053,3.7362,6.9851,1503
62092,12.6988,-2.4433,17.6345,1491
62097,-9.9132,0.3867,14.5915,1485
62102,-13.8026,4.1922,4.9033,1503
62107,6.0669,4.3179,5.9831,1468
62112,13.7487,-1.6628,17.5124,1495
62117,-9.335,-0.243,15.791,1479
62122,-14.5795,3.5063,5.3044,1489
62127,4.4939,4.8231,4.8542,1499
62132,13.8636,-0.7554,17.3675,1484
62137,-8.1618,-1.1049,16.5858,1493
62142,-14.6381,2.9137,5.8083,1491
62147,3.0418,5.4025,4.3048,1509
62152,14.1174,-0.0587,16.7738,1492
62157,-6.5924,-1.9644,17.2646,1511
62162,-14.2886,2.399,6.2525,1502
62167,1.16,5.8215,3.5614,1497
62172,13.5177,0.6321,16.2387,1498
62177,-4.4987,-2.7725,17.7087,1500
62182,-13.8684,1.9393,6.7564,1489
62187,-0.7518,6.2381,3.3555,1501
62192,13.3285,1.1157,15.3025,1515
62197,-1.9597,-3.541,18.0068,1491
62202,-12.6797,1.6807,7.2796,1493
62207,-2.9365,6.377,3.0155,1495
62212,12.2236,1.47,14.3688,1493
62217,0.7458,-3.9121,18.0236,1484
62222,-12.1518,1.4808,8.09,1511
62227,-4.9955,6.5038,3.0682,1481
62232,11.7843,1.8028,13.1597,1483
62237,3.6404,-4.276,17.9541,1491
62242,-11.0397,1.5598,9.0788,1501
62247,-7.2173,6.359,3.128,1491
62252,10.4471,2.0853,11.8106,1497
62257,6.2034,-4.1934,17.9469,1497
62262,-10.9104,1.385,10.0545,1493
62267,-8.9723,6.0908,3.4333,1495
62272,9.9527,2.5869,10.3896,1491
62277,8.989,-4.0881,17.7482,1487
62282,-10.3956,1.4365,11.3497,1503
62287,-11.1618,5.7557,3.6859,1503
62292,8.5054,2.964,9.0058,1515
62297,10.7619,-3.5614,17.9194,1478
62302,-10.4124,0.9792,12.4941,1512
62307,-12.3792,5.199,4.0941,1496
62312,7.9236,3.6129,7.7991,1493
62317,12.7455,-3.0394,17.7003,1490
62322,-10.2113,0.7602,14.0516,1493
62327,-14.0923,4.6005,4.4843,1485
62332,6.3434,4.0426,6.3782,1500
62337,13.2363,-2.1644,17.7853,1491
62342,-9.5708,0.0491,15.0583,1485
62347,-14.4538,4.0426,4.9045,1492
62352,5.4061,4.707,5.5534,1517
62357,14.5591,-1.3467,17.4118,1487
62362,-8.9507,-0.5962,16.447,1449
62367,-14.9817,3.3016,5.3079,1496
62372,3.5937,5.0542,4.3203,1501
62377,13.9259,-0.5363,17.4621,1485
62382,-7.4292,-1.4605,16.9809,1509
62387,-15.0631,2.8036,5.794,1507
62392,2.1715,5.6922,3.9576,1491
62397,14.6669,0.1844,16.6624,1483
62402,-5.7545,-2.4433,17.9613,1495
62407,-13.9163,2.2051,6.213,1509
62412,-0.006,5.9017,3.055,1497
62417,13.1621,0.759,16.0603,1548
62422,-3.3962,-3.0813,18.075,1455
62427,-13.872,1.7777,6.7995,1493
62432,-1.749,6.3243,3.2106,1507
62437,13.4734,1.4114,14.9087,1453
62442,-0.5974,-3.9253,18.3982,1545
62447,-12.0117,1.6484,7.4531,1403
62452,-4.0965,6.268,2.7342,1491
62457,11.6969,1.7909,13.7703,1478
62462,2.2505,-4.1946,18.3875,1495
62467,-11.7902,1.2594,8.4336,1515
62472,-5.9664,6.347,2.9951,1499
62477,11.5221,2.3571,12.5025,1470
62482,5.3678,-4.5298,18.154,1512
62487,-10.6434,1.4234,9.4008,1495
62492,-8.43,6.128,2.9868,1485
62497,9.8869,2.6468,10.9846,1544
62502,7.8171,-4.2042,18.2522,1489
62507,-10.4052,1.1253,10.6291,1503
62512,-10.1335,5.8586,3.4488,1511
62517,9.3458,3.0765,9.6391,1501
62522,10.1406,-3.8918,17.9697,1482
62527,-10.1586,1.0546,11.9782,1497
62532,-12.1194,5.3463,3.8199,1507
62537,8.0218,3.4788,8.1187,1523
62542,11.7675,-3.1556,18.0212,1467
62547,-10.0389,0.6273,13.2699,1507
62552,-13.3189,4.8016,4.2916,1493
62557,7.1216,3.9804,6.9204,1499
62562,13.1346,-2.4445,17.7518,1491
62567,-9.8725,0.2011,14.6777,1487
62572,-14.5184,4.1216,4.7214,1487
62577,5.7616,4.4927,5.8251,1565
62582,13.8636,-1.5227,17.6249,1495
62587,-9.2093,-0.4561,15.8424,1495
62592,-14.9231,3.4297,5.1392,1493
62597,4.4149,5.0003,4.81,1514
62602,14.2096,-0.662,17.3041,1479
62607,-8.1894,-1.1959,16.7774,1499
62612,-14.8895,2.8192,5.6862,1495
62617,2.7557,5.4839,4.0713,1497
62622,14.0564,-0.0215,16.9749,1483
62627,-6.6104,-2.0171,17.3436,1499
62632,-14.4023,2.3008,6.1483,1507
62637,0.9816,5.9053,3.5889,1485
62642,13.9103,0.5782,16.3093,1511
62647,-4.5155,-2.824,17.7195,1492
62652,-13.5189,1.9597,6.6822,1503
62657,-0.9768,6.1986,3.1532,1491
62662,13.1849,1.0714,15.4558,1496
62667,-2.0494,-3.4943,18.0403,1485
62672,-12.9191,1.6053,7.2042,1503
62677,-2.9353,6.3841,3.0526,1494
62682,12.6785,1.5095,14.3927,1485
62687,0.8475,-4.0151,18.1504,1499
62692,-11.7687,1.4904,8.0074,1506
62697,-5.1104,6.3949,2.9281,1479
62702,11.5329,1.9237,13.1298,1491
62707,3.6404,-4.2186,18.1361,1507
62712,-11.2839,1.2713,8.9244,1514
62717,-7.0868,6.2704,3.055,1486
62722,8.5545,3.3112,8.5617,1484
62727,6.4835,-4.3287,18.0212,1485
62732,-10.1885,0.8978,13.1142,1497
62737,-9.3398,6.0166,3.2657,1491
62742,7.3358,3.7876,7.2245,1503
62747,12.6581,-2.63,17.8619,1481
62752,-9.912,0.3424,14.2802,1493
62757,-14.1246,4.3574,4.6256,1506
62762,6.3015,4.3299,6.1531,1499
62767,13.7679,-1.8507,17.5567,1477
62772,-9.4703,-0.2167,15.5396,1509
62777,-14.8488,3.6859,5.1296,1499
62782,4.8135,4.8219,5.041,1497
62787,13.8971,-0.972,17.4657,1491
62792,-8.3665,-1.0235,16.3356,1507
62797,-14.8237,3.0777,5.6659,1486
62802,3.3938,5.3486,4.4592,1490
62807,14.2275,-0.2191,16.8707,1497
62812,-7.0138,-1.81,17.1485,1496
62817,-14.2994,2.4337,6.0717,1487
62822,1.5203,5.7245,3.6536,1507
62827,13.5296,0.4106,16.508,1492
62832,-5.0554,-2.5055,17.5387,1480
62837,-14.024,2.0027,6.6499,1500
62842,-0.2693,6.1196,3.4596,1497
62847,13.6673,0.9864,15.5479,1496
62852,-2.7869,-3.2908,17.8895,1487
62857,-12.6294,1.6939,7.1635,1502
62862,-2.4385,6.28,3.0789,1491
62867,12.4115,1.4664,14.765,1496
62872,-0.2131,-3.6966,17.9338,1499
62877,-12.5827,1.4305,7.8243,1493
62882,-4.3562,6.3758,3.1556,1483
62887,12.3864,1.9273,13.4901,1497
62892,2.9437,-4.3072,17.9649,1491
62897,-10.9451,1.5299,8.7053,1493
62902,-6.7169,6.28,2.9904,1491
62907,10.6841,2.2087,12.1637,1496
62912,5.3786,-4.1994,17.9948,1483
62917,-11.2839,1.1121,9.6678,1500
62922,-8.2624,6.1004,3.3758,1497
62927,10.5465,2.7557,10.92,1481
62932,8.5018,-4.209,17.8452,1492
62937,-10.3848,1.3827,11.0049,1507
62942,-10.9678,5.8012,3.4405,1492
62947,8.7951,3.0059,9.244,1483
62952,10.0114,-3.5614,18.0702,1499
62957,-10.3585,0.7769,12.153,1484
62962,-11.8226,5.2337,3.9361,1491
62967,8.5102,3.5805,8.1139,1503
62972,12.3565,-3.1232,17.6836,1487
62977,-10.1801,0.7566,13.7559,1502
62982,-14.0061,4.6675,4.3239,1499
62987,6.7109,3.9349,6.5278,1501
62992,12.7683,-2.1608,17.9445,1469
62997,-9.681,0.0395,14.7375,1500
63002,-14.1497,4.0151,4.9021,1498
63007,5.9915,4.5454,5.8407,1485
63012,14.382,-1.4257,17.4346,1471
63017,-9.2991,-0.413,16.2662,1519
63022,-14.9985,3.3315,5.2505,1483
63027,4.0055,4.8674,4.4245,1499
63032,13.7619,-0.4453,17.5519,1491
63037,-7.865,-1.2821,16.7893,1487
63042,-15.0703,2.8335,5.764,1501
63047,2.7737,5.4899,4.2485,1500
63052,14.7615,0.2777,16.6876,1479
63057,-6.4033,-2.2446,17.8284,1493
63062,-14.1366,2.1584,6.0908,1496
63067,0.559,5.7197,3.2286,1514
63072,13.2627,0.9481,16.2494,1491
63077,-4.0007,-2.8994,17.9912,1480
63082,-14.1246,1.7298,6.7409,1510
63087,-1.1013,6.2094,3.3387,1494
63092,13.7284,1.5275,15.0954,1492
63097,-1.336,-3.7972,18.2833,1503
63102,-12.1961,1.567,7.4053,1496
63107,-3.4848,6.2165,2.7641,1497
63112,11.886,1.9106,14.0983,1501
63117,1.3132,-4.0582,18.2486,1492
63122,-12.1817,1.1504,8.2827,1499
63127,-5.2469,6.3219,3.0215,1483
63132,11.8896,2.3882,12.7934,1509
63137,4.5191,-4.4305,18.1061,1497
63142,-10.6889,1.3886,9.2488,1497
63147,-7.8673,6.1555,2.9724,1487
63152,10.1215,2.5391,11.3294,1491
63157,6.863,-4.1252,18.1792,1481
63162,-10.7715,0.9996,10.3657,1515
63167,-9.3709,5.8814,3.4153,1483
63172,9.845,3.0167,10.0161,1481
63177,9.6606,-3.9624,17.8667,1507
63182,-10.2951,1.2175,11.7232,1499
63187,-11.8202,5.4588,3.6476,1491
63192,8.2145,3.286,8.4372,1500
63197,11.1666,-3.2346,18.0319,1481
63202,-10.2185,0.6764,12.9047,1495
63207,-12.7838,4.9368,4.221,1495
63212,7.7309,3.8547,7.3801,1509
63217,13.1011,-2.7066,17.674,1471
63222,-10.1107,0.5183,14.4957,1493
63227,-14.4753,4.385,4.555,1513
63232,6.0549,4.2186,6.0609,1495
63237,13.4698,-1.8172,17.8428,1485
63242,-9.432,-0.237,15.3696,1521
63247,-14.7279,3.7302,5.0218,1501
63252,4.9799,4.8028,5.3127,1493
63257,14.6082,-1.0175,17.3388,1480
63262,-8.6766,-0.9301,16.678,1511
63267,-14.9793,2.9939,5.4779,1485
63272,3.0897,5.2553,4.0773,1506
63277,13.9582,-0.1844,17.243,1485
63282,-6.9611,-1.7466,17.1485,1497
63287,-14.9111,2.496,5.94,1493
63292,1.5395,5.7628,3.8654,1515
63297,14.5388,0.5279,16.3883,1477
63302,-4.9847,-2.7665,17.9314,1487
63307,-13.5584,1.9788,6.5062,1496
63312,-0.5902,5.9664,3.0765,1481
63317,13.0113,1.1169,15.6952,1484
63322,-2.4936,-3.3351,18.0032,1507
63327,-13.5404,1.5945,7.1431,1508
63332,-2.4157,6.3315,3.1532,1499
63337,13.1537,1.6903,14.5687,1495
63342,0.4848,-4.0845,18.2271,1501
63347,-11.5963,1.5263,7.8937,1499
63352,-4.883,6.3051,2.8048,1481
63357,11.4263,1.998,13.3249,1508
63362,3.0825,-4.197,18.1349,1481
63367,-11.7029,1.1384,8.8083,1491
63372,-6.7349,6.2728,3.1627,1495
63377,11.3365,2.5331,12.0668,1499
63382,6.256,-4.385,17.8631,1491
63387,-10.4806,1.3815,10.0377,1516
63392,-9.2536,6.0202,3.1963,1479
63397,9.5253,2.6827,10.4076,1491
63402,8.2205,-3.9468,17.9876,1499
63407,-10.6829,0.9876,11.1857,1507
63412,-10.501,5.6228,3.7936,1497
63417,9.3529,3.2729,9.2273,1491
63422,10.9499,-3.6667,17.6632,1497
63427,-10.3537,1.172,12.6019,1494
63432,-12.8317,5.1404,4.0019,1491
63437,7.5262,3.5123,7.5597,1507
63442,11.971,-2.7378,18.0068,1484
63447,-10.1167,0.4585,13.702,1492
63452,-13.3309,4.5765,4.4843,1503
63457,7.0054,4.1779,6.6475,1509
63462,13.9199,-2.1272,17.5315,1481
63467,-9.9216,0.1568,15.3253,1519
63472,-14.8237,3.8487,4.8315,1499
63477,5.1188,4.5274,5.211,1493
63482,13.5584,-1.1576,17.8224,1481
63487,-8.7376,-0.7207,15.9586,1501
63492,-14.7519,3.2561,5.4061,1495
63497,3.9923,5.2098,4.7956,1497
63502,14.8297,-0.4453,16.9521,1493
63507,-7.7656,-1.5167,17.2718,1497
63512,-14.3125,2.5702,5.8323,1493
63517,1.8986,5.436,3.6129,1507
63522,13.4949,0.3017,16.8935,1483
63527,-5.7162,-2.2541,17.3975,1491
63532,-14.6346,2.1548,6.3853,1494
63537,0.3436,6.0035,3.6739,1496
63542,14.4023,0.9948,15.7096,1491
63547,-3.3088,-3.3028,18.1528,1494
63552,-12.5743,1.8052,6.93,1507
63557,-2.1117,6.1375,2.8323,1483
63562,12.2547,1.4389,15.0033,1499
63567,-0.674,-3.6212,18.1002,1508
63572,-13.2495,1.3623,7.6028,1499
63577,-3.7852,6.3542,3.1831,1489
63582,12.864,2.0123,13.6781,1499
63587,2.6851,-4.3574,18.2127,1499
63592,-10.8864,1.5383,8.5772,1501
63597,-6.6295,6.1998,2.7198,1487
63602,10.4842,2.1979,12.2858,1495
63607,4.9835,-4.1887,18.2737,1485
63612,-11.3904,0.9768,9.6055,1507
63617,-8.005,6.092,3.3243,1483
63622,10.8326,2.8204,11.0373,1486
63627,8.266,-4.2689,17.8105,1490
63632,-10.3489,1.4246,10.9032,1503
63637,-10.9511,5.7485,3.3184,1492
63642,8.7077,2.9784,9.2261,1497
63647,9.7624,-3.5829,18.1241,1493
63652,-10.4411,0.7602,12.0548,1503
63657,-11.5939,5.2122,3.9863,1491
63662,8.6862,3.6631,8.254,1517
63667,12.2404,-3.1915,17.6309,1493
63672,-10.2256,0.8571,13.6326,1496
63677,-13.9163,4.7525,4.2437,1511
63682,6.6427,3.8439,6.4871,1502
63687,12.5133,-2.1895,18.1504,1487
63692,-9.6654,0.0132,14.5687,1497
63697,-13.793,4.0773,4.9045,1509
63702,6.116,4.5801,5.8969,1487
63707,14.4358,-1.5969,17.3747,1493
63712,-9.3793,-0.3172,16.1345,1523
63717,-14.7902,3.3818,5.2241,1481
63722,3.9433,4.8626,4.5095,1493
63727,13.5105,-0.6345,17.6596,1490
63732,-7.8063,-1.2677,16.6481,1495
63737,-14.8883,2.8311,5.7712,1491
63742,2.824,5.5186,4.2976,1515
63747,14.9195,0.091,16.6038,1481
63752,-6.4392,-2.2206,17.7446,1493
63757,-13.7367,2.2254,6.1699,1499
63762,0.4549,5.7126,3.2082,1507
63767,13.0257,0.8428,16.3739,1519
63772,-3.9804,-2.8754,17.7398,1497
63777,-14.1856,1.798,6.8474,1507
63782,-1.1265,6.189,3.3902,1497
