timestamp_ms,ax,ay,az,acs_adc
15006,10.064,-7.0832,16.0435,1557
15011,-11.2516,-0.1856,11.4694,1545
15016,-12.7779,3.2453,4.1623,1546
15021,7.3478,8.6191,8.0397,1551
15026,14.6477,-2.6157,14.4035,1544
15031,-12.1733,-1.4712,18.4138,1549
15036,-15.2343,0.6871,5.1739,1541
15041,0.9732,7.0773,4.9033,1544
15046,15.0751,4.2581,13.9594,1554
15051,-0.6752,-6.3674,19.4313,1533
15056,-10.9822,-0.4202,7.1096,1532
15061,-7.7907,5.4492,3.2406,1543
15066,11.7064,8.2684,12.1147,1543
15071,10.3537,-6.2106,15.8688,1530
15076,-12.706,-0.832,12.7419,1555
15081,-12.6079,3.3399,3.8391,1543
15086,6.0394,8.2672,8.3378,1533
15091,16.2578,-1.1384,13.5823,1528
15096,-10.7308,-2.4983,20.0766,1516
15101,-13.5584,0.1472,5.6551,1557
15106,-1.0918,6.9899,3.3411,1543
15111,14.3544,5.0996,14.5807,1563
15116,0.5411,-5.8083,18.8867,1528
15121,-13.5919,-1.5479,7.9224,1555
15126,-6.8797,5.3786,3.1603,1529
15131,10.5512,8.8741,12.3505,1553
15136,13.8313,-6.0897,14.8249,1531
15141,-12.2906,-0.2071,14.5974,1560
15146,-14.0552,2.223,4.5945,1543
15151,4.8387,7.9535,5.7209,1551
15156,14.4191,0.1269,14.7172,1528
15161,-9.7695,-2.6384,19.757,1541
15166,-14.3676,-0.431,5.7353,1547
15171,-1.0774,6.5649,3.9217,1529
15176,14.4143,6.6056,13.9821,1549
15181,4.3682,-7.5896,18.3755,1541
15186,-10.7476,-0.2993,8.2528,1555
15191,-9.9084,4.4341,3.1292,1543
15196,9.2404,8.7891,10.1179,1557
15201,12.6869,-4.6962,15.2666,1533
15206,-12.7575,-1.2785,15.5503,1571
15211,-13.5955,1.9992,4.4676,1545
15216,4.1492,7.8578,6.6906,1571
15221,16.083,1.2977,13.4123,1525
15226,-7.835,-4.4257,20.8822,1563
15231,-12.815,-0.4286,6.092,1544
15236,-3.8702,6.1818,3.0203,1532
15241,12.8617,7.2233,13.617,1532
15246,5.3642,-6.4943,17.6692,1554
15251,-12.6905,-1.6424,9.8114,1549
15256,-9.6043,4.5191,3.4608,1549
15261,8.7736,8.9759,10.7009,1533
15266,15.1613,-4.1444,13.6936,1526
15271,-12.8353,-1.008,17.5459,1565
15276,-14.5244,1.0307,5.2373,1531
15281,2.49,7.853,4.7609,1554
15286,14.8297,2.1691,14.2635,1520
15291,-5.6252,-4.2557,20.1017,1553
15296,-14.5927,-1.1899,6.5158,1545
15301,-4.1803,6.0944,3.4764,1557
15306,12.4175,7.8853,13.5177,1527
15311,8.9938,-7.191,16.271,1559
15316,-11.0397,-0.2729,10.9164,1551
15321,-12.5121,3.5326,4.2306,1557
15326,8.5078,8.8693,8.6179,1549
15331,14.3532,-3.4453,14.3018,1526
15336,-12.2068,-1.0738,17.9529,1549
15341,-15.8568,0.8392,5.0542,1577
15346,1.5718,7.3658,5.1451,1545
15351,15.0595,3.4776,13.8469,1541
15356,-2.5175,-5.4719,19.745,1543
15361,-11.2372,-0.7063,6.7876,1545
15366,-6.7912,5.8275,3.3279,1519
15371,12.5145,7.8434,12.7539,1529
15376,9.1399,-6.5924,16.2602,1549
15381,-12.202,-0.6656,11.6119,1549
15386,-12.2858,3.6009,3.6356,1557
15391,6.7852,8.6562,9.0357,1541
15396,16.2339,-2.2529,13.6853,1546
15401,-11.7579,-1.6987,19.399,1531
15406,-13.9211,0.3795,5.4827,1553
15411,0.085,7.2772,3.8678,1529
15416,14.7902,4.063,14.5567,1549
15421,-1.6879,-5.3929,19.4912,1547
15426,-14.0552,-1.318,7.2628,1555
15431,-5.8634,5.6575,3.1065,1523
15436,11.2851,8.5904,12.9514,1545
15441,12.5324,-6.7325,15.2882,1533
15446,-12.068,0.0144,13.1561,1567
15451,-13.5476,2.6791,4.3012,1533
15456,5.9747,8.2995,6.669,1545
15461,14.9063,-1.2534,14.6741,1532
15466,-11.3533,-1.9513,19.2147,1549
15471,-14.9255,0.1484,5.2936,1557
15476,-0.0766,6.7696,4.3682,1533
15481,14.8057,5.5186,13.9845,1533
15486,2.1141,-7.2365,18.8998,1527
15491,-10.9164,-0.2251,7.5765,1565
15496,-8.9687,4.8698,3.1999,1525
15501,10.5237,8.6155,11.1881,1562
15506,11.8597,-5.7126,15.6066,1527
15511,-13.2974,-0.9098,14.1509,1561
15516,-13.1035,2.8168,3.9289,1543
15521,5.047,8.0553,7.6172,1508
15526,16.3811,0.0503,13.4853,1523
15531,-9.3122,-3.5482,20.6823,1547
15536,-13.1059,-0.0263,5.7593,1543
15541,-2.7174,6.6415,3.2034,1526
15546,13.787,6.0573,14.2144,1551
15551,3.3028,-6.5182,18.318,1547
15556,-12.9191,-1.2198,8.655,1549
15561,-8.7616,4.9692,3.0801,1541
15566,9.3194,8.9028,11.6574,1548
15571,14.7219,-5.1356,14.3449,1523
15576,-12.5935,-0.4956,16.1226,1567
15581,-14.358,1.6245,4.8507,1528
15586,3.7745,8.0445,5.217,1566
15591,15.1996,0.9313,14.6693,1527
15596,-7.7907,-3.5099,20.2813,1554
15601,-15.3061,-0.7183,5.952,1542
15606,-2.8096,6.2979,3.4895,1545
15611,13.1059,7.3095,14.0611,1527
15616,7.2592,-7.4723,17.1724,1533
15621,-10.6039,-0.2586,9.487,1543
15626,-11.2743,4.045,3.7553,1548
15631,9.0621,8.6036,9.3757,1531
15636,13.8481,-4.0917,14.9913,1531
15641,-13.1537,-0.8068,16.8121,1557
15646,-14.6202,1.6532,4.3658,1543
15651,2.8886,7.3694,5.8861,1547
15656,15.9406,2.794,13.787,1545
15661,-5.0182,-5.3247,20.7051,1557
15666,-11.8226,-0.5004,6.2405,1544
15671,-5.2684,5.8526,2.9772,1559
15676,12.548,7.7859,13.2004,1545
15681,7.3634,-6.4691,17.1796,1555
15686,-13.1238,-1.6029,10.7883,1541
15691,-10.1766,4.0259,3.3722,1565
15696,7.8219,8.825,9.9359,1533
15701,16.1142,-2.9544,13.6314,1517
15706,-12.6725,-1.561,19.1692,1543
15711,-14.5591,0.5279,5.3319,1529
15716,1.2067,7.2796,3.8666,1531
15721,14.3652,3.9397,14.4071,1531
15726,-3.7062,-4.6998,20.0347,1545
15731,-14.0324,-1.737,7.0198,1581
15736,-4.8291,5.8143,3.3339,1542
15741,11.8298,8.6993,13.1537,1549
15746,11.1235,-7.0378,15.6988,1543
15751,-11.4515,-0.2753,12.1518,1547
15756,-13.1502,2.8228,4.2353,1547
15761,6.9168,8.6012,7.2281,1544
15766,14.6286,-1.9261,14.3951,1545
15771,-12.0416,-1.6149,19.0171,1547
15776,-15.2654,0.4082,5.108,1547
15781,0.8152,6.9815,4.859,1529
15786,14.8381,5.0123,13.7272,1547
15791,0.0934,-6.6547,19.5427,1543
15796,-10.8529,-0.5758,7.118,1565
15801,-8.0218,5.1439,3.1472,1541
15806,11.3126,8.6179,11.7328,1542
15811,10.8086,-6.1076,15.8855,1541
15816,-13.0855,-1.0163,13.1729,1545
15821,-12.6007,3.1029,3.7984,1531
15826,5.782,8.3857,8.254,1543
15831,16.3907,-0.7997,13.3465,1529
15836,-10.6015,-2.7869,20.553,1531
15841,-13.5488,-0.0682,5.6695,1559
15846,-1.3503,6.8654,3.383,1530
15851,14.1306,5.5809,14.2455,1549
15856,0.984,-5.9843,18.98,1547
15861,-13.6888,-1.7933,8.0936,1559
15866,-7.2125,5.1571,3.1496,1545
15871,10.3777,9.1459,12.1578,1497
15876,13.8588,-5.9867,14.4945,1529
15881,-12.4834,-0.3184,15.1014,1565
15886,-14.1809,1.8759,4.8363,1543
15891,5.023,8.2768,5.8646,1555
15896,15.0308,0.0622,14.2551,1527
15901,-9.5828,-2.6252,20.0562,1530
15906,-15.6712,-0.656,5.7473,1541
15911,-1.3563,6.4236,3.8906,1555
15916,13.7966,6.7971,13.7487,1544
15921,4.7453,-7.2975,17.9697,1519
15926,-10.3465,-0.6009,8.7233,1557
15931,-10.4339,4.3431,3.6547,1541
15936,10.2963,9.001,10.1418,1545
15941,12.7336,-4.9081,14.941,1519
15946,-12.7814,-0.82,15.53,1561
15951,-14.5759,1.9549,4.2964,1525
15956,4.0366,7.8697,6.6978,1557
15961,15.931,1.4664,13.3273,1533
15966,-7.3406,-4.0857,20.8188,1561
15971,-12.3349,-0.6979,6.1256,1498
15976,-3.7433,6.262,3.1675,1528
15981,13.5392,7.1168,13.5021,1547
15986,4.8866,-6.3973,17.8009,1531
15991,-12.7575,-1.6017,9.5565,1541
15996,-9.3733,4.3503,3.2657,1548
16001,8.7831,9.3027,10.8302,1529
16006,15.1373,-4.1803,13.6721,1531
16011,-12.457,-0.8906,17.5543,1553
16016,-14.4322,0.9852,5.3211,1543
16021,3.1603,7.7584,4.6831,1553
16026,14.8297,2.1859,14.2407,1553
16031,-6.6008,-3.5362,20.2945,1549
16036,-15.0871,-1.3934,6.444,1532
16041,-3.1591,5.8981,3.4884,1557
16046,12.8066,8.2744,13.4183,1525
16051,8.4934,-7.3334,16.4996,1557
16056,-10.8038,-0.504,10.6877,1548
16061,-11.9878,3.3746,4.1168,1568
16066,8.6287,8.8849,8.6155,1551
16071,13.6362,-3.3208,14.2551,1571
16076,-12.9071,-1.0523,17.6369,1545
16081,-14.6238,1.008,4.8746,1531
16086,2.5654,7.191,5.6599,1530
16091,15.4594,3.6344,13.1956,1527
16096,-3.6524,-5.4181,20.4692,1554
16101,-11.4754,-0.917,6.6355,1548
16106,-6.0274,5.63,3.1149,1546
16111,12.2823,8.254,12.6246,1575
16116,8.0601,-6.3183,16.5152,1545
16121,-13.0664,-1.561,11.5113,1558
16126,-10.92,3.8128,3.5781,1554
16131,7.4388,8.8573,9.5696,1544
16136,16.04,-2.5007,13.3285,1554
16141,-12.3098,-1.6328,19.6037,1553
16146,-14.2311,0.5495,5.4241,1533
16151,0.5447,7.2688,3.7421,1547
16156,14.5963,4.0654,14.5532,1501
16161,-2.7605,-4.9907,19.5487,1545
16166,-14.1916,-1.4856,7.1503,1541
16171,-5.2002,5.8598,3.2166,1525
16176,11.5568,8.6479,13.198,1528
16181,12.0644,-7.0294,15.4139,1533
16186,-11.898,0.1137,12.5911,1541
16191,-13.2411,2.9437,4.0761,1557
16196,6.3386,8.2803,6.8929,1549
16201,14.3688,-1.658,14.8177,1533
16206,-11.9794,-1.8364,18.9525,1543
16211,-14.2862,0.5136,5.0554,1547
16216,0.723,6.9025,4.689,1525
16221,15.3277,5.0458,14.1497,1544
16226,0.6117,-7.2796,19.5056,1541
16231,-11.4682,-0.1185,6.9815,1561
16236,-7.8913,5.2589,2.6983,1523
16241,10.2424,8.4898,11.6011,1545
16246,11.5377,-6.0334,16.0866,1527
16251,-13.2747,-1.0846,13.5799,1549
16256,-12.0392,3.2154,3.7457,1528
16261,5.6204,8.1163,7.944,1555
16266,16.945,-0.6752,13.854,1529
16271,-11.1067,-3.1831,20.7936,1551
16276,-14.5532,0.3112,5.3702,1547
16281,-1.5107,6.7193,3.1017,1531
16286,13.8193,6.1734,14.5963,1550
16291,2.2398,-6.7732,19.0698,1533
16296,-13.4327,-1.3036,8.1618,1561
16301,-7.1216,5.3558,3.0011,1547
16306,9.9874,8.9256,11.9902,1559
16311,14.2623,-6.1112,14.9123,1520
16316,-12.5995,-0.3352,14.8859,1573
16321,-14.5639,2.1404,4.2449,1546
16326,4.1372,7.9583,5.8,1565
16331,15.4977,0.7039,14.6118,1523
16336,-9.3709,-3.3734,20.4501,1559
16341,-15.0128,-0.6057,5.5976,1531
16346,-1.4449,6.6499,3.7984,1515
16351,13.6888,6.8378,13.7547,1545
16356,4.6232,-7.695,18.3887,1531
16361,-10.5776,-0.4621,8.3713,1545
16366,-9.8605,4.3718,3.3471,1531
16371,9.42,9.1566,10.2795,1547
16376,12.8461,-4.8662,14.9255,1531
16381,-13.1226,-1.2845,15.7275,1567
16386,-13.5907,1.9956,4.3179,1527
16391,4.2174,8.1547,6.8905,1565
16396,15.5743,1.403,13.0879,1543
16401,-7.6986,-4.543,21.1791,1555
16406,-12.572,-0.6081,6.0478,1549
16411,-3.559,6.3662,3.0849,1495
16416,12.9119,7.2688,13.4518,1525
16421,5.1104,-6.5446,17.8105,1542
16426,-12.7479,-1.8651,9.5672,1531
16431,-9.1794,4.4269,3.3686,1553
16436,8.6838,9.3685,11.0373,1532
16441,14.9195,-4.1492,13.5895,1541
16446,-12.4139,-1.2019,17.6189,1555
16451,-14.613,0.9242,5.284,1532
16456,3.3519,8.1606,4.8315,1547
16461,14.4119,2.138,13.7942,1531
16466,-6.4715,-3.8571,20.6871,1559
16471,-15.2116,-1.6053,6.426,1547
16476,-3.1699,6.1136,3.5614,1544
16481,12.2775,8.1211,13.3142,1527
16486,8.4336,-7.1216,16.7486,1550
16491,-10.2328,-0.8691,10.4244,1531
16496,-12.0668,3.5195,4.0749,1565
16501,9.0022,9.2093,8.8059,1549
16506,13.7164,-3.3938,14.2275,1531
16511,-12.1051,-1.2534,17.8057,1541
16516,-15.9813,0.9002,4.8447,1523
16521,2.3296,7.6614,5.4312,1547
16526,14.71,3.5159,13.313,1545
16531,-3.3555,-5.3331,20.3782,1544
16536,-11.1318,-1.1109,6.7828,1563
16541,-6.1531,5.8778,3.1568,1547
16546,12.6366,8.0589,12.7467,1534
16551,8.0685,-6.4608,16.6146,1554
16556,-11.1498,-1.1504,11.2994,1540
16561,-12.7503,3.6009,3.7158,1548
16566,7.513,9.068,8.9914,1547
16571,14.7076,-2.3451,13.5691,1529
16576,-11.2348,-1.6783,19.0088,1547
16581,-14.0719,0.1293,5.7197,1541
16586,1.172,7.756,4.2078,1467
16591,13.9378,3.6236,13.9738,1555
16596,-2.5953,-5.0338,19.7893,1527
16601,-11.9303,-1.5239,7.1371,1541
16606,-6.5302,5.8023,3.1424,1483
16611,11.467,8.5078,12.8174,1543
16616,9.9311,-6.2549,15.755,1525
16621,-10.823,-0.8571,12.3493,1533
16626,-13.1382,2.9616,4.5059,1519
16631,7.4939,9.0297,8.3354,1554
16636,13.8002,-2.2218,13.4171,1541
16641,-10.6386,-1.974,18.5934,1541
16646,-14.9374,-0.1041,5.5569,1556
16651,0.9325,7.9547,5.0793,1527
16656,12.8018,3.802,13.7643,1563
16661,-0.5602,-5.5294,19.0543,1533
16666,-10.7811,-1.2737,7.6327,1575
16671,-7.2257,5.794,3.4668,1545
16676,11.2839,7.7381,11.5676,1527
16681,10.1957,-5.5917,15.6593,1544
16686,-10.896,-0.8116,13.465,1517
16691,-13.7104,2.7749,4.4915,1545
16696,6.359,8.2313,7.1862,1547
16701,14.7363,-0.7817,13.9283,1551
16706,-10.2053,-2.326,19.8419,1515
16711,-13.7044,-0.4046,5.8407,1553
16716,-0.4776,7.0521,3.3878,1528
16721,13.5943,5.515,14.3832,1567
16726,0.492,-5.8167,19.2398,1525
16731,-11.4383,-1.5802,8.0254,1560
16736,-7.9607,5.2481,2.9592,1532
16741,10.659,8.8035,11.7124,1559
16746,11.5676,-5.4672,15.0895,1527
16751,-10.9702,-1.0092,14.2024,1555
16756,-14.1485,2.2386,4.9153,1532
16761,6.292,8.4635,6.4799,1544
16766,14.0192,-0.492,14.1246,1532
16771,-9.4224,-2.5223,19.8372,1559
16776,-14.7483,-0.6033,6.0071,1545
16781,-1.0116,6.699,3.4524,1529
16786,13.0496,6.0238,13.9917,1551
16791,2.4636,-6.0561,18.6053,1533
16796,-10.0341,-1.6017,8.4946,1553
16801,-9.6534,5.0494,3.4405,1530
16806,11.0804,8.7496,11.0241,1561
16811,11.315,-5.0314,15.0009,1531
16816,-11.3569,-1.075,14.6358,1560
16821,-14.7196,2.1057,4.7609,1525
16826,5.2469,8.2732,6.4775,1559
16831,14.1749,0.4884,13.7619,1528
16836,-8.1606,-3.067,20.1676,1557
16841,-12.8688,-0.9828,6.4033,1544
16846,-2.15,6.918,3.2741,1533
16851,13.2723,6.0322,13.8002,1547
16856,2.8168,-5.9161,18.0786,1531
16861,-10.5489,-1.6867,8.9124,1557
16866,-9.9276,4.8339,3.5219,1531
16871,10.2149,8.7759,11.0217,1555
16876,12.1051,-4.6531,14.534,1525
16881,-11.2228,-1.1061,15.5803,1560
16886,-14.4023,1.7298,5.1607,1541
16891,5.1691,8.1163,5.6276,1555
16896,13.7523,0.5387,14.194,1543
16901,-7.6136,-3.1101,19.9808,1565
16906,-13.3058,-0.7314,6.3446,1533
16911,-2.6863,6.8761,3.1244,1528
16916,12.785,6.0633,14.1892,1525
16921,4.5502,-6.1878,17.4932,1545
16926,-10.2197,-0.9445,9.2859,1533
16931,-10.8781,5.1882,3.4764,1547
16936,9.9683,7.8817,10.2173,1549
16941,12.4451,-4.3886,15.1936,1529
16946,-11.5568,-0.8188,15.8077,1566
16951,-15.0679,2.2841,4.6352,1527
16956,4.0139,7.5956,5.2062,1563
16961,14.5041,1.0403,15.2547,1542
16966,-6.1579,-3.8032,19.6229,1560
16971,-12.3577,-0.249,6.3135,1547
16976,-3.7745,7.1407,2.7354,1541
16981,13.1729,5.5282,14.5053,1547
16986,4.9763,-6.3231,17.3843,1531
16991,-11.309,-0.7386,9.5445,1547
16996,-10.4303,5.0961,3.1663,1533
17001,8.8837,7.6567,10.0018,1546
17006,13.538,-4.0989,15.3181,1531
17011,-11.0325,-1.057,16.4266,1559
17016,-14.3353,2.0267,5.0937,1544
17021,3.869,7.6602,4.3431,1561
17026,14.2515,1.0798,15.6868,1532
17031,-6.128,-3.8331,19.3799,1567
17036,-15.2882,-0.3998,6.3877,1543
17041,-3.2717,6.7038,2.903,1555
17046,12.5408,6.377,14.2335,1529
17051,6.8091,-6.5625,17.2155,1547
17056,-10.0365,-0.7482,10.1562,1548
17061,-11.8836,4.8926,3.5602,1545
17066,9.9515,7.7728,8.7951,1551
17071,12.5983,-3.9325,15.5707,1525
17076,-11.4527,-1.2582,16.4326,1544
17081,-15.9957,1.9022,4.5909,1547
17086,3.0311,7.5166,5.0996,1544
17091,14.8632,2.2829,14.8189,1542
17096,-4.6831,-4.5765,19.9162,1547
17101,-11.7352,-0.7458,6.7708,1553
17106,-4.689,6.8522,2.5917,1549
17111,13.3154,6.5038,13.5979,1529
17116,5.521,-6.1986,17.5256,1561
17121,-11.5796,-1.3539,10.1754,1544
17126,-10.6722,4.2114,3.1867,1565
17131,8.0337,8.3725,9.4846,1543
17136,14.4287,-3.304,14.613,1543
17141,-10.9535,-1.5921,17.5423,1547
17146,-14.54,1.1959,5.5198,1544
17151,3.3674,7.8326,4.0127,1543
17156,14.3365,2.0638,14.9087,1527
17161,-5.5833,-4.148,19.8671,1557
17166,-14.5484,-1.063,6.7026,1532
17171,-4.2138,6.2584,2.9102,1555
17176,12.0105,7.4591,13.5584,1529
17181,7.8985,-6.4224,16.7355,1553
17186,-10.1801,-1.0965,11.1737,1545
17191,-12.7647,4.385,4.0869,1565
17196,9.5469,8.2133,8.2791,1543
17201,12.8976,-3.371,15.0464,1533
17206,-11.1857,-1.5012,17.4286,1544
17211,-15.524,1.3635,5.2601,1553
17216,2.2936,7.6686,4.2413,1547
17221,13.939,2.6683,14.9111,1533
17226,-3.1783,-4.9021,19.0854,1557
17231,-11.4156,-0.7614,7.1706,1547
17236,-6.2369,7.0832,2.8838,1553
17241,12.6546,6.1723,13.2064,1546
17246,7.0892,-6.0885,16.6289,1557
17251,-10.7093,-0.8763,11.5508,1532
17256,-13.0436,4.7776,3.9181,1555
17261,8.7053,7.5142,8.1846,1532
17266,12.8928,-2.9521,15.3696,1529
17271,-10.3597,-1.883,17.4142,1549
17276,-14.1306,1.549,5.4815,1543
17281,1.9142,7.7476,3.7673,1543
17286,13.6565,2.0267,15.6006,1533
17291,-2.3284,-4.8507,18.3049,1557
17296,-11.2563,-0.4441,7.5693,1550
17301,-7.0964,7.5381,2.7234,1527
17306,12.6749,5.5677,13.2399,1533
17311,7.4543,-5.7162,16.253,1545
17316,-11.1953,-0.8823,12.0811,1543
17321,-13.6745,5.0601,4.0115,1554
17326,9.1423,7.3119,7.6567,1543
17331,12.9873,-2.8,15.5898,1532
17336,-9.6247,-1.8328,17.5148,1544
17341,-13.9043,1.3755,5.788,1547
17346,1.8507,7.847,3.1017,1547
17351,13.3477,2.083,15.9346,1533
17356,-2.575,-4.549,18.2175,1526
17361,-12.5588,-0.759,7.8829,1545
17366,-6.6523,7.3023,2.818,1533
17371,13.9642,6.2764,12.961,1533
17376,8.3031,-6.3159,16.4817,1542
17381,-10.0042,-0.5866,12.4917,1545
17386,-14.8105,4.4807,4.3155,1544
17391,8.5928,6.8007,5.9783,1551
17396,12.4618,-2.0937,16.5403,1532
17401,-10.4878,-2.4277,17.5866,1549
17406,-14.4334,1.1444,5.6695,1541
17411,1.7119,7.768,3.5901,1533
17416,15.0308,2.6468,15.5432,1561
17421,-1.2881,-5.1559,18.4581,1533
17426,-10.3441,-0.8128,7.7476,1553
17431,-8.6802,7.0138,2.6504,1529
17436,12.232,5.8227,11.8884,1541
17441,8.1989,-5.1858,16.7235,1543
17446,-11.1558,-1.3515,12.6402,1533
17451,-13.5751,4.3287,3.9205,1551
17456,7.9033,7.2808,7.0773,1549
17461,13.5739,-1.749,15.5563,1545
17466,-9.6343,-2.1524,18.251,1530
17471,-13.9438,0.7542,5.7712,1551
17476,0.6512,7.6243,3.0574,1543
17481,13.3166,3.2789,15.5204,1559
17486,-0.826,-5.0877,18.4832,1542
17491,-11.1498,-1.1983,7.9416,1563
17496,-8.0134,6.8139,2.788,1517
17501,12.2296,6.8666,12.3589,1555
17506,8.9986,-5.5569,15.9478,1515
17511,-10.8206,-1.1887,13.1322,1561
17516,-14.0552,3.7541,4.458,1533
17521,7.8027,7.6962,6.766,1542
17526,12.9957,-1.3599,15.0595,1543
17531,-9.341,-2.3834,18.5587,1533
17536,-13.9474,0.1556,6.0837,1549
17541,0.5806,7.5046,3.134,1545
17546,13.3393,4.1001,14.8584,1545
17551,-0.583,-5.0996,18.6436,1547
17556,-10.7667,-1.7011,8.2085,1555
17561,-8.3665,6.2944,3.0311,1529
17566,12.0225,7.5824,12.0249,1543
17571,9.2021,-5.1619,15.694,1542
17576,-10.6135,-1.5083,13.3525,1554
17581,-14.2108,3.2657,4.6136,1543
17586,7.7309,8.0613,6.6978,1543
17591,13.0879,-0.9972,14.5951,1548
17596,-9.5241,-2.3966,19.0794,1547
17601,-13.8672,-0.0778,6.1304,1545
17606,0.146,7.507,3.1819,1546
17611,13.3225,4.4939,14.5783,1561
17616,-0.0491,-5.193,18.6999,1514
17621,-10.5082,-1.5826,8.2109,1563
17626,-8.5736,6.2441,3.0514,1544
17631,11.7591,7.6579,11.7855,1543
17636,9.6738,-5.0793,15.767,1545
17641,-10.6207,-1.4988,13.5536,1529
17646,-13.9773,3.0861,4.5789,1551
17651,7.118,7.9559,6.3829,1541
17656,13.4015,-0.5315,14.6812,1544
17661,-9.3254,-2.6312,19.3847,1549
17666,-14.1126,-0.2658,6.2572,1561
17671,-0.0192,7.428,3.0562,1529
17676,13.2507,5.0458,14.4861,1555
17681,0.2586,-5.3905,18.7777,1542
17686,-10.9678,-1.9537,8.3486,1557
17691,-8.2396,5.8335,3.1161,1543
17696,11.3078,8.0433,11.5556,1559
17701,10.1287,-4.9632,15.6425,1527
17706,-10.307,-1.7071,13.969,1561
17711,-14.37,2.7869,4.8495,1529
17716,7.1682,8.023,5.9664,1533
17721,13.1525,-0.3089,14.6142,1469
17726,-9.1183,-2.6492,19.3978,1544
17731,-15.1134,-0.4094,6.2489,1553
17736,-0.4752,7.2413,3.2872,1530
17741,13.5284,5.4636,14.1557,1563
17746,1.4892,-5.5988,18.7059,1555
17751,-9.9802,-1.8543,8.5844,1563
17756,-9.4104,5.6814,3.0849,1533
17761,11.716,8.1582,10.8613,1565
17766,10.1478,-4.7621,15.7634,1549
17771,-11.1007,-1.7645,14.1797,1571
17776,-14.03,2.4217,4.4365,1531
17781,5.8945,8.078,6.3782,1567
17786,14.2958,0.3627,14.1318,1528
17791,-8.4611,-3.2621,20.0802,1498
17796,-13.5105,-0.7087,6.5278,1544
17801,-1.0738,7.3861,2.7581,1532
17806,13.6529,5.5115,14.1354,1545
17811,1.1444,-5.5569,18.7251,1577
17816,-11.1737,-2.0865,8.6658,1553
17821,-9.0477,5.2589,3.0801,1531
17826,10.5728,8.442,11.0732,1545
17831,11.4347,-4.5717,15.184,1544
17836,-10.6841,-1.6855,14.9889,1560
17841,-14.7854,2.3296,5.1224,1532
17846,6.4979,8.2552,5.5162,1563
17851,13.5907,0.1221,14.4777,1546
17856,-8.7616,-2.9652,19.8228,1558
17861,-13.9426,-0.808,6.3877,1544
17866,-1.7406,7.3095,3.0047,1531
17871,13.2411,5.8191,14.1964,1545
17876,2.4708,-5.8718,18.2211,1545
17881,-10.222,-1.8124,8.8502,1551
17886,-10.2017,5.515,3.4524,1527
17891,11.1761,8.2241,10.7967,1560
17896,11.1989,-4.7154,15.2235,1533
17901,-11.0828,-1.4401,14.9817,1559
17906,-14.7423,2.2003,5.0147,1545
17911,5.9699,8.0541,5.6156,1549
17916,13.7918,0.3962,14.4526,1533
17921,-8.3414,-2.9485,19.8695,1555
17926,-13.6697,-0.8607,6.4081,1541
17931,-1.7765,7.1323,2.9712,1554
17936,13.113,5.8921,14.133,1501
17941,2.7461,-5.7425,18.2007,1547
17946,-10.2113,-1.974,8.9579,1555
17951,-10.3286,5.2984,3.3327,1553
17956,11.1271,8.3139,10.6578,1562
17961,11.2504,-4.5741,15.1182,1523
17966,-11.2025,-1.4724,15.2606,1563
17971,-14.8261,1.9405,5.0769,1529
17976,5.63,8.0529,5.4456,1557
17981,13.7846,0.6177,14.4239,1527
17986,-7.8793,-3.0742,19.9485,1571
17991,-12.8856,-0.917,6.5254,1547
17996,-2.3858,7.1527,2.7964,1533
18001,13.4075,5.861,14.1964,1531
18006,2.9916,-5.709,18.0236,1547
18011,-10.2951,-1.6915,9.0202,1553
18016,-10.4124,5.2744,3.3243,1530
18021,10.6925,8.1271,10.4363,1541
18026,11.7232,-4.2401,15.2163,1519
18031,-11.1486,-1.4664,15.4797,1565
18036,-14.8668,2.0111,5.047,1541
18041,5.5234,7.8626,5.1068,1555
18046,13.8564,0.8978,14.7243,1528
18051,-7.8302,-3.1687,19.9102,1563
18056,-13.465,-0.9194,6.4524,1529
18061,-2.4648,7.0114,2.8264,1531
18066,13.2292,6.1998,14.2311,1541
18071,3.5997,-5.8885,17.9098,1553
18076,-10.2029,-1.7298,9.2404,1545
18081,-10.8134,5.2337,3.395,1533
18086,10.8146,8.2253,10.2101,1547
18091,11.7651,-4.2916,15.1972,1525
18096,-11.3449,-1.3336,15.5815,1558
18101,-14.947,2.0207,5.0194,1526
18106,5.114,7.8566,5.1224,1564
18111,14.1126,1.0714,14.7567,1525
18116,-7.525,-3.2956,19.9605,1557
18121,-12.888,-0.9708,6.5182,1545
18126,-2.6576,7.0976,2.7162,1544
18131,13.4626,6.195,14.2599,1543
18136,3.4309,-5.8466,18.0104,1531
18141,-10.6171,-1.7573,9.1889,1519
18146,-10.2173,4.9632,3.2645,1517
18151,10.3022,8.3378,10.3034,1531
18156,12.3098,-4.2509,15.0727,1525
18161,-11.1031,-1.4293,15.7826,1555
18166,-14.8883,1.8124,5.193,1548
18171,5.3379,7.8733,4.9321,1557
18176,14.0671,1.0762,14.7878,1517
18181,-7.9164,-3.1376,20.0993,1549
18186,-14.9829,-0.9182,6.3458,1544
18191,-2.3343,6.7708,2.9066,1549
18196,13.2794,6.675,14.103,1531
18201,4.5262,-6.1375,17.9924,1547
18206,-9.9204,-1.6352,9.3194,1545
18211,-11.1809,5.0673,3.401,1541
18216,11.0768,8.2564,9.7049,1555
18221,12.0249,-4.3203,15.4558,1531
18226,-11.6454,-1.3132,15.6401,1559
18231,-15.621,2.0554,4.5645,1527
18236,4.2844,7.8434,5.3103,1553
18241,15.0631,1.4353,14.7231,1528
18246,-6.9983,-3.7613,20.3555,1557
18251,-12.6546,-0.8619,6.462,1529
18256,-3.158,7.106,2.4828,1558
18261,14.0085,6.2333,14.1665,1529
18266,3.5506,-6.0741,18.2306,1545
18271,-11.5245,-1.7837,9.0968,1547
18276,-9.7659,4.7154,2.9664,1543
18281,9.5062,8.5509,10.2819,1543
18286,13.6577,-4.1934,15.0416,1527
18291,-11.1498,-1.5287,16.1668,1554
18296,-14.9674,1.725,5.1667,1529
18301,5.1104,7.8697,4.4137,1555
18306,14.455,1.2186,15.1373,1529
18311,-7.9236,-3.4333,20.2537,1561
18316,-16.1393,-0.9397,6.2525,1512
18321,-2.4014,6.5565,2.9509,1559
18326,13.2878,7.1084,14.0264,1527
18331,5.3822,-6.274,17.9972,1547
18336,-9.6702,-1.658,9.4691,1531
18341,-11.4694,4.9273,3.5111,1545
18346,11.0768,8.3498,9.4044,1526
18351,12.0811,-4.1899,15.536,1523
18356,-11.7184,-1.5155,15.7203,1560
18361,-16.0412,1.8806,4.4568,1529
18366,4.0342,7.8075,5.4013,1554
18371,15.4618,1.9405,14.4275,1573
18376,-6.7864,-3.9169,20.7805,1561
18381,-12.5432,-1.0977,6.5637,1548
18386,-3.3064,6.9587,2.4289,1555
18391,14.1497,6.6499,13.8936,1544
18396,3.6655,-6.0154,18.3551,1551
18401,-11.8561,-1.9609,9.1889,1549
18406,-9.8438,4.4005,2.9377,1543
18411,9.2225,8.9184,10.1191,1543
18416,14.2359,-4.0426,14.8237,1542
18421,-11.1713,-1.5766,16.6756,1547
18426,-15.1158,1.482,5.2924,1543
18431,4.8111,8.0864,4.1228,1563
18436,14.7004,1.2857,15.0523,1527
18441,-7.695,-3.4477,20.3699,1556
18446,-15.378,-1.0139,6.3339,1542
18451,-3.0059,6.4153,2.6743,1544
18456,13.0197,7.2736,14.0695,1541
18461,5.8359,-6.3398,17.7051,1549
18466,-9.7229,-1.6604,9.7037,1543
18471,-11.8178,4.8854,3.5937,1555
18476,10.7392,8.2624,9.1662,1528
18481,12.4917,-3.9983,15.5108,1525
18486,-11.6143,-1.5024,16.174,1526
18491,-16.2435,1.7681,4.7333,1531
18496,3.729,7.7333,5.0075,1544
18501,15.2415,2.0578,14.613,1543
18506,-6.2608,-4.0977,20.3938,1561
18511,-12.305,-1.0463,6.5769,1533
18516,-4.0498,6.9623,2.5869,1557
18521,13.9594,6.5912,13.8038,1529
18526,4.5011,-6.0035,17.99,1527
18531,-11.3234,-1.6807,9.5265,1541
18536,-10.5489,4.4807,3.0849,1553
18541,9.1818,8.5473,9.7803,1531
18546,14.0097,-3.8343,14.9243,1508
18551,-11.3892,-1.5562,16.757,1541
18556,-14.9889,1.4952,5.296,1546
18561,4.4281,7.92,4.2473,1555
18566,14.7531,1.403,15.2104,1524
18571,-7.1479,-3.62,20.1436,1565
18576,-14.5424,-0.929,6.4117,1547
18581,-3.2789,6.4679,2.6743,1547
18586,13.1095,7.0366,14.0827,1531
18591,5.7365,-6.2896,17.583,1551
18596,-10.1107,-1.5167,9.8318,1545
18601,-11.8501,4.9057,3.5674,1553
18606,10.5345,8.0278,9.153,1545
18611,12.5133,-3.9828,15.4701,1545
18616,-11.6849,-1.403,16.2542,1545
18621,-15.8065,1.7789,4.8507,1553
18626,3.8583,7.6938,4.8399,1546
18631,14.9482,1.8364,14.9183,1541
18636,-6.3123,-3.9229,20.0622,1548
18641,-12.3074,-0.9469,6.5314,1544
18646,-4.0103,7.0366,2.5917,1549
18651,13.9007,6.3542,13.9355,1541
18656,4.3467,-5.9843,17.8368,1547
18661,-10.8445,-1.5826,9.6223,1555
18666,-10.9176,4.7154,3.2944,1555
18671,9.76,8.2983,9.7348,1547
18676,13.1202,-3.9181,15.1505,1527
18681,-11.4084,-1.3767,16.4003,1550
18686,-14.8464,1.6316,5.302,1544
18691,4.5717,7.7524,4.4448,1557
18696,14.3796,1.3922,15.1541,1527
18701,-7.1192,-3.4381,19.8934,1555
18706,-13.6697,-0.978,6.5314,1533
18711,-3.3255,6.8151,2.6899,1544
18716,13.4446,6.6307,14.1509,1532
18721,4.7262,-6.1004,17.6058,1555
18726,-10.2472,-1.6424,9.6199,1543
18731,-11.6167,5.029,3.5506,1545
18736,10.823,8.1056,9.6953,1525
18741,12.0811,-4.142,15.3612,1530
18746,-11.5412,-1.4138,15.943,1564
18751,-15.263,1.7897,5.0147,1531
18756,4.6783,7.7129,4.8902,1544
18761,14.5005,1.2186,14.9063,1543
18766,-7.3251,-3.4393,19.9916,1557
18771,-12.7228,-0.9732,6.4991,1544
18776,-3.1927,7.0366,2.66,1548
18781,13.7954,6.2058,14.2946,1545
18786,3.6799,-5.8598,17.9146,1553
18791,-10.6015,-1.5886,9.2332,1553
18796,-10.6734,5.1344,3.1496,1545
18801,10.4076,8.0852,10.0161,1545
18806,12.481,-4.1911,15.3588,1531
18811,-11.5472,-1.2641,15.7754,1563
18816,-14.9195,2.0375,5.0721,1545
18821,5.1451,7.6722,4.7309,1555
18826,14.5627,0.8535,15.3241,1547
18831,-7.9751,-3.1472,19.8539,1571
18836,-13.7703,-0.6393,6.2261,1550
18841,-2.5307,6.9037,2.6528,1541
18846,13.7583,6.2549,14.5735,1531
18851,3.6919,-6.0178,18.0918,1533
18856,-10.3837,-1.4569,9.0118,1532
18861,-10.6698,5.3522,3.1807,1548
18866,11.0768,8.0397,10.2244,1557
18871,11.8681,-4.5286,15.6461,1541
18876,-11.5999,-1.2989,15.1433,1553
18881,-15.1828,2.2924,4.5334,1541
18886,5.0961,7.8494,5.5174,1557
18891,14.965,0.8799,14.874,1528
18896,-8.1846,-3.3303,20.2059,1571
18901,-13.2986,-0.844,6.274,1549
18906,-2.2194,7.0294,2.5426,1533
18911,14.2335,6.0561,14.4179,1545
18916,2.15,-5.8442,18.5431,1541
18921,-11.4024,-1.8651,8.6323,1545
18926,-9.2931,4.9608,2.9521,1543
18931,10.5896,8.6467,10.8601,1544
18936,12.5348,-4.7621,15.2738,1525
18941,-11.1127,-1.4317,15.0248,1567
18946,-15.0392,2.132,4.9847,1526
18951,6.2261,8.096,5.1427,1557
18956,14.4825,0.2119,14.9159,1529
18961,-9.4116,-2.8395,20.0802,1567
18966,-15.5839,-0.6871,6.1004,1545
18971,-1.4724,6.8402,2.8718,1513
18976,13.9247,6.3087,14.437,1519
18981,2.6755,-5.9915,18.5802,1531
18986,-10.0676,-1.8076,8.5449,1541
18991,-10.2496,5.4312,3.1819,1527
18996,12.1362,8.4731,10.7284,1553
19001,11.0361,-5.0051,15.6449,1530
19006,-11.4084,-1.5095,14.2922,1564
19011,-15.2259,2.4062,4.4173,1543
19016,5.8466,8.0936,6.0059,1561
19021,14.9877,0.3364,14.4239,1541
19026,-9.2428,-2.8359,20.1783,1561
19031,-13.6912,-0.8499,6.256,1549
19036,-1.1372,7.1934,2.727,1529
19041,14.3616,5.7018,14.4957,1555
19046,0.5555,-5.4827,19.1153,1546
19051,-11.8573,-2.0973,8.0349,1555
19056,-8.2277,5.0482,2.7857,1547
19061,11.1019,8.9411,11.5963,1553
19066,12.0213,-5.2301,15.4294,1511
19071,-10.8769,-1.4928,14.2024,1567
19076,-14.9219,2.4181,4.8351,1541
19081,7.0617,8.2325,5.6144,1560
19086,14.5544,-0.492,14.8321,1528
19091,-10.3106,-2.399,19.9341,1553
19096,-16.1261,-0.3879,5.861,1549
19101,-0.5243,6.8893,3.1173,1544
19106,14.2192,5.946,14.5699,1553
19111,1.0367,-5.8215,19.1668,1542
19116,-10.2819,-1.8112,8.0541,1559
19121,-9.2344,5.6467,2.8862,1524
19126,12.536,8.4096,11.382,1547
19131,10.2089,-5.4133,16.0483,1532
19136,-11.2695,-1.5048,13.3608,1565
19141,-14.7016,2.7761,4.1108,1544
19146,6.4739,8.2923,6.6702,1557
19151,15.044,-0.5519,14.437,1529
19156,-10.1227,-2.5702,19.921,1549
19161,-14.0276,-0.4549,6.049,1544
19166,-0.1951,7.3538,2.8994,1545
19171,14.6441,5.0075,14.6609,1548
19176,-0.9373,-5.3079,19.4649,1533
19181,-11.7196,-1.9609,7.6986,1565
19186,-7.8195,5.4504,2.7438,1542
19191,11.7567,8.6335,12.1661,1561
19196,10.7871,-5.6371,15.8376,1528
19201,-10.8637,-1.4042,13.1035,1561
19206,-14.4227,2.9892,4.4987,1525
19211,7.6782,8.2923,6.5386,1543
19216,14.4131,-1.2617,14.8429,1533
19221,-11.0672,-2.0758,19.4002,1549
19226,-15.7586,-0.0204,5.6431,1551
19231,0.4657,7.0976,3.3495,1527
19236,14.5843,5.0206,14.7579,1543
19241,-0.8428,-5.4791,19.5594,1524
19246,-10.7883,-1.6939,7.4831,1560
19251,-8.0661,5.9652,2.8611,1529
19256,12.7719,8.2145,12.2009,1563
19261,9.481,-5.8323,16.3464,1544
19266,-11.2168,-1.409,12.3541,1565
19271,-13.9606,3.31,3.869,1525
19276,7.3514,8.4216,7.3562,1531
19281,15.0559,-1.4449,14.6202,1542
19286,-10.9188,-2.0758,19.3559,1533
19291,-14.5352,-0.0455,5.8071,1549
19296,0.9469,7.4974,3.1244,1533
19301,14.8907,4.227,14.9314,1559
19306,-2.6396,-4.9536,19.7893,1547
19311,-12.9083,-1.7885,7.2544,1560
19316,-6.4248,5.6994,2.6635,1542
19321,12.1625,8.5162,12.797,1531
19326,10.0521,-6.2369,16.2794,1519
19331,-10.6087,-1.2761,12.1482,1555
19336,-13.8397,3.3998,4.2329,1515
19341,8.5988,8.3474,7.0114,1531
19346,14.2048,-2.1763,15.0116,1533
19351,-11.5389,-1.7825,18.6472,1549
19356,-16.5308,0.6213,5.3486,1556
19361,1.3743,7.2113,3.7433,1541
19366,14.947,4.3227,14.7734,1529
19371,-2.3547,-5.2313,19.897,1545
19376,-11.2061,-1.4509,7.0832,1566
19381,-7.0605,6.3386,2.6252,1528
19386,13.4039,7.7835,12.7288,1529
19391,8.1259,-6.1555,16.8983,1545
19396,-11.2815,-1.4114,11.4263,1554
19401,-13.1813,3.8032,3.5207,1542
19406,7.7764,8.4922,8.102,1529
19411,15.1194,-2.3834,14.7052,1544
19416,-11.5029,-1.828,18.6257,1533
19421,-14.5484,0.4166,5.5354,1547
19426,1.7933,7.7021,3.4884,1531
19431,15.1936,3.2142,15.0799,1553
19436,-4.2246,-4.6866,19.9353,1531
19441,-12.9694,-1.5311,6.8654,1549
19446,-5.7006,6.0298,2.5809,1529
19451,12.7515,8.0744,13.2926,1545
19456,8.5808,-6.462,16.672,1541
19461,-10.6781,-1.2486,11.2719,1533
19466,-13.1322,3.9588,4.0127,1543
19471,9.0968,8.351,7.9691,1545
19476,13.9654,-2.8898,15.014,1547
19481,-11.8621,-1.5598,17.8188,1532
19486,-16.0423,0.9038,5.2026,1579
19491,2.3595,7.3849,4.1863,1543
19496,15.1888,3.389,14.7722,1545
19501,-4.2509,-4.7297,20.1436,1554
19506,-11.7256,-1.4198,6.8486,1549
19511,-5.8873,6.5314,2.7258,1531
19516,13.708,7.5166,13.2124,1529
19521,6.8666,-6.2309,17.1724,1545
19526,-11.0433,-1.4988,10.6614,1533
19531,-12.5097,4.1899,3.486,1560
19536,8.7843,8.5353,8.8178,1546
19541,14.4083,-3.1556,14.7674,1543
19546,-11.7352,-1.4365,17.8105,1527
19551,-14.9326,0.8487,5.3941,1549
19556,2.8443,7.6974,3.8403,1543
19561,15.0799,2.5798,15.1146,1545
19566,-5.5629,-4.1563,20.1508,1545
19571,-13.4267,-1.3503,6.6116,1550
19576,-4.7429,6.2584,2.7031,1528
19581,13.277,7.6579,13.72,1541
19586,7.2089,-6.6559,17.1329,1555
19591,-10.4974,-1.2234,10.4124,1541
19596,-12.5313,4.2629,3.7338,1557
19601,9.7923,8.3953,8.6215,1548
19606,13.5979,-3.5626,15.208,1545
19611,-12.074,-1.318,17.1377,1549
19616,-16.028,1.4018,4.9416,1531
19621,3.1388,7.5429,4.5502,1546
19626,15.3001,2.6109,14.7794,1548
19631,-5.5091,-4.3706,20.2549,1545
19636,-12.159,-1.2234,6.5469,1556
19641,-4.9309,6.699,2.6073,1543
19646,13.9953,7.1072,13.7176,1523
19651,5.7533,-6.2824,17.5052,1548
19656,-11.2001,-1.5107,9.9742,1531
19661,-11.5915,4.4448,3.2992,1553
19666,9.2332,8.6275,9.4559,1533
19671,14.3149,-3.7553,14.929,1547
19676,-11.8944,-1.2941,17.2131,1548
19681,-14.9123,1.2282,5.2876,1549
19686,3.6021,7.8243,4.1587,1531
19691,15.1984,1.8866,15.111,1532
19696,-6.7624,-3.9073,20.1664,1547
19701,-14.1916,-1.1241,6.3949,1547
19706,-3.7912,6.3686,2.7054,1545
19711,13.4339,7.4472,14.0181,1529
19716,6.347,-6.6164,17.407,1549
19721,-10.3813,-1.2929,9.8964,1530
19726,-12.0668,4.628,3.565,1561
19731,10.3729,8.3438,9.0812,1549
19736,13.1142,-4.063,15.3301,1549
19741,-12.0225,-1.2785,16.4984,1543
19746,-15.9382,1.6676,4.8195,1543
19751,3.6571,7.5872,4.8542,1531
19756,15.3815,2.0004,14.8237,1531
19761,-6.5003,-3.9887,20.2705,1553
19766,-12.4678,-1.1432,6.4033,1542
19771,-4.142,6.8079,2.6492,1555
19776,14.2192,6.8773,13.9355,1544
19781,4.6184,-6.1962,17.8512,1494
19786,-11.1953,-1.6233,9.481,1547
19791,-10.9307,4.5789,3.1256,1561
19796,9.7516,8.7245,9.9671,1541
19801,13.8337,-4.148,14.8859,1529
19806,-11.7495,-1.1851,16.5775,1531
19811,-15.0332,1.415,5.2098,1608
19816,4.4137,7.8554,4.4341,1541
19821,15.0919,1.4569,15.0488,1525
19826,-7.6435,-3.4429,20.3028,1559
19831,-14.8788,-1.0499,6.2309,1544
19836,-3.0347,6.341,2.7426,1547
19841,13.7714,7.3035,14.1773,1515
19846,5.5246,-6.6738,17.7638,1549
19851,-10.2352,-1.3467,9.3889,1543
19856,-11.5544,4.7812,3.4034,1553
19861,10.9152,8.4827,9.4763,1547
19866,12.7791,-4.373,15.5288,1545
19871,-12.1338,-1.1875,15.9178,1528
19876,-16.0555,2.0518,4.4125,1595
19881,4.0737,7.6674,5.2577,1546
19886,15.8041,1.7119,14.7255,1527
19891,-7.4136,-3.8714,20.5877,1561
19896,-12.6785,-0.923,6.2501,1553
19901,-3.4704,6.918,2.5127,1559
19906,14.5615,6.5673,14.2611,1529
19911,3.5698,-6.256,18.3288,1550
19916,-12.0165,-1.7538,8.9423,1526
19921,-9.833,4.6866,2.8371,1549
19926,9.7205,9.0046,10.5034,1547
19931,14.1162,-4.6232,14.9781,1531
19936,-11.7424,-1.245,16.2207,1542
19941,-15.0344,1.6484,5.0326,1543
19946,5.0601,7.9416,4.5191,1541
19951,15.202,0.9026,15.123,1527
19956,-8.7376,-3.1951,20.3926,1559
19961,-15.9969,-0.8655,5.9687,1555
19966,-2.1679,6.3566,2.9185,1547
19971,13.9905,7.3011,14.3281,1527
19976,4.6268,-6.675,18.2259,1561
19981,-10.0293,-1.4952,8.9076,1547
19986,-10.9379,4.9321,3.3076,1557
19991,11.412,8.5581,9.7767,1548
19996,12.1985,-4.6998,15.7227,1525
20001,-12.0716,-1.3479,15.1637,1554
20006,-15.8077,2.2458,4.1755,1545
20011,4.4855,7.9499,5.8682,1555
20016,16.0423,1.2067,14.4598,1544
20021,-8.3246,-3.6488,20.7936,1573
20026,-13.0472,-0.8547,6.1244,1527
20031,-2.7713,7.0402,2.4888,1555
20036,14.8093,6.3303,14.3604,1543
20041,2.4768,-6.1292,18.7646,1560
20046,-12.0823,-1.8232,8.5724,1547
20051,-9.4415,4.8147,2.7414,1591
20056,10.1849,9.1231,10.9331,1533
20061,13.6805,-5.102,15.1194,1527
20066,-11.6681,-1.1301,15.5096,1555
20071,-14.9793,1.9034,4.9644,1530
20076,5.6156,8.1906,4.9117,1555
20081,15.1888,0.3364,15.1601,1526
20086,-9.3458,-2.9197,20.3136,1553
20091,-16.0531,-0.723,5.8706,1549
20096,-1.7621,6.4332,2.9197,1551
20101,14.188,6.9683,14.4203,1545
20106,3.7709,-6.6367,18.4773,1555
20111,-10.1047,-1.5024,8.5437,1533
20116,-10.5632,5.114,3.2477,1555
20121,11.6837,8.5665,10.3441,1531
20126,12.0057,-5.0003,15.7754,1530
20131,-11.9782,-1.2893,14.7112,1561
20136,-15.4127,2.4361,4.0833,1530
20141,4.9368,7.9811,6.0262,1557
20146,16.0148,0.8499,14.358,1542
20151,-8.9172,-3.4058,20.7529,1561
20156,-13.2758,-0.7949,6.1435,1547
20161,-2.241,7.0485,2.6264,1561
20166,14.8249,6.1447,14.4346,1523
20171,1.7765,-6.0669,18.9106,1554
20176,-12.3876,-1.9166,8.327,1547
20181,-8.7903,4.8782,2.7318,1547
20186,10.4196,9.2512,11.2958,1543
20191,13.4937,-5.2744,15.1349,1523
20196,-11.6382,-1.1037,15.1337,1555
20201,-14.8895,1.998,4.804,1545
20206,5.9831,8.2049,5.1008,1557
20211,15.1457,0.1413,15.0057,1544
20216,-9.8641,-2.727,20.3543,1567
20221,-16.5296,-0.6129,5.8012,1548
20226,-1.2617,6.4835,3.1591,1547
20231,14.3532,6.8546,14.3461,1533
20236,3.0047,-6.596,18.7502,1544
20241,-10.1622,-1.5131,8.2839,1549
20246,-10.2065,5.1846,3.1376,1558
20251,12.0452,8.7173,10.5357,1485
20256,11.546,-5.2804,15.7694,1533
20261,-11.8752,-1.2258,14.4011,1563
20266,-15.4797,2.545,4.1444,1529
20271,5.2888,8.1762,6.1639,1557
20276,15.84,0.3843,14.3233,1527
20281,-9.3793,-2.9688,20.5458,1565
20286,-13.4422,-0.8236,6.0525,1541
20291,-1.7657,7.1371,2.745,1548
20296,14.8907,5.8694,14.5316,1547
20301,1.0582,-5.8538,19.1249,1549
20306,-11.9878,-1.9776,8.0888,1533
20311,-8.7568,4.9476,2.733,1547
20316,10.9846,9.2153,11.5401,1531
20321,12.7132,-5.4803,15.2547,1501
20326,-11.4838,-1.1001,14.6322,1553
20331,-14.7974,2.1488,4.8423,1527
20336,6.4189,8.3474,5.5641,1555
20341,15.0009,-0.3472,14.8381,1531
20346,-10.2855,-2.4565,20.0622,1561
20351,-15.9957,-0.4525,5.7317,1545
20356,-0.978,6.6415,3.1089,1530
20361,14.4777,6.3267,14.54,1544
20366,2.0231,-6.3327,18.9729,1545
20371,-10.3777,-1.4844,8.0637,1549
20376,-9.7001,5.4719,3.061,1526
20381,12.1566,8.491,11.1127,1531
20386,11.2444,-5.5246,15.9346,1527
20391,-11.8788,-1.1073,13.86,1568
20396,-14.9494,2.8467,3.9875,1525
20401,5.7892,8.1151,6.5721,1571
20406,15.8951,-0.2047,14.5759,1531
20411,-10.137,-2.7833,20.2897,1559
20416,-13.866,-0.4513,5.8215,1547
20421,-0.9697,7.179,2.7665,1547
20426,14.8967,5.4612,14.7914,1533
20431,0.1676,-5.7988,19.3308,1551
20436,-13.0161,-1.8507,7.768,1547
20441,-7.5465,5.2086,2.6983,1531
20446,11.218,9.1698,11.9531,1555
20451,12.5875,-5.9376,15.5204,1525
20456,-11.388,-1.0163,13.9582,1571
20461,-14.5699,2.4624,4.5861,1545
20466,6.9192,8.3175,5.6419,1563
20471,14.9578,-0.7362,15.1038,1529
20476,-10.8601,-2.3092,19.9114,1570
20481,-16.9498,-0.0551,5.4025,1529
20486,-0.164,6.7828,3.4429,1531
20491,14.8488,6.1076,14.5196,1544
20496,1.1037,-6.4715,19.3906,1528
20501,-10.4279,-1.4198,7.7093,1550
20506,-9.1195,5.5713,2.879,1545
20511,12.6474,8.594,11.3222,1559
20516,10.4339,-5.8359,16.3081,1541
20521,-11.813,-1.3001,13.2447,1571
20526,-14.7016,3.043,3.735,1542
20531,6.0585,8.4132,6.9599,1556
20536,15.9167,-0.65,14.4538,1543
20541,-10.3106,-2.6252,20.1281,1567
20546,-13.9666,-0.3663,5.8251,1550
20551,-0.5567,7.4639,2.8383,1541
20556,15.2056,4.9668,14.801,1532
20561,-0.9002,-5.6288,19.581,1553
20566,-12.5935,-1.8627,7.507,1549
20571,-7.6602,5.2756,2.6432,1531
20576,11.5652,9.1494,12.2535,1551
20581,11.7723,-6.1316,15.7886,1529
20586,-11.1977,-1.0822,13.4039,1559
20591,-14.358,2.6923,4.5035,1543
20596,7.446,8.4372,6.2393,1565
20601,14.8476,-1.2306,14.8776,1527
20606,-11.1342,-2.1799,19.5702,1565
20611,-16.5739,-0.0587,5.4456,1545
20616,0.2071,6.8259,3.468,1541
20621,14.8608,5.6312,14.5555,1533
20626,-0.0371,-6.0262,19.6863,1549
20631,-10.6518,-1.6113,7.501,1555
20636,-8.4611,5.7269,2.8623,1545
20641,12.7791,8.5102,11.8309,1563
20646,10.0066,-5.9125,16.3105,1527
20651,-11.6298,-1.3527,12.6941,1565
20656,-13.9797,3.1975,3.6727,1527
20661,6.5733,8.4803,7.4148,1557
20666,15.8209,-1.1301,14.2611,1529
20671,-10.9331,-2.3427,20.0024,1549
20676,-14.303,-0.2478,5.7664,1528
20681,0.1772,7.4412,2.982,1543
20686,15.117,4.7525,14.7758,1553
20691,-1.6951,-5.3858,19.8312,1548
20696,-13.1561,-1.8723,7.3466,1557
20701,-6.8606,5.3666,2.6444,1549
20706,11.8046,9.1051,12.5504,1561
20711,11.3198,-6.3805,15.864,1525
20716,-11.0696,-1.0918,12.8724,1573
20721,-14.2251,2.8455,4.391,1555
20726,7.8422,8.5832,6.5362,1557
20731,14.6932,-1.6771,14.8524,1541
20736,-11.4503,-1.9201,19.4301,1545
20741,-16.5032,0.067,5.4229,1549
20746,0.5531,6.9216,3.5721,1543
20751,14.9314,5.2828,14.5184,1553
20756,-0.8308,-5.8969,19.7701,1531
20761,-10.7631,-1.6221,7.3334,1555
20766,-8.0948,5.8012,2.8754,1527
20771,13.0532,8.4743,12.1625,1561
20776,9.487,-6.0741,16.3931,1531
20781,-11.4575,-1.3707,12.2823,1561
20786,-14.0157,3.2789,3.7302,1529
20791,7.0856,8.6263,7.6124,1564
20796,15.4773,-1.5275,14.267,1531
20801,-11.2132,-2.0027,19.6492,1545
20806,-14.3868,-0.1915,5.7461,1545
20811,0.4812,7.4939,3.2585,1527
20816,15.1577,4.3646,14.7471,1549
20821,-2.375,-5.1332,19.8024,1545
20826,-12.6677,-1.7813,7.2496,1557
20831,-6.7792,5.5426,2.6396,1529
20836,12.2056,8.8957,12.8066,1543
20841,10.4866,-6.3734,16.0723,1527
20846,-10.9822,-1.087,12.3553,1560
20851,-13.9067,3.1089,4.2713,1529
20856,8.1391,8.515,7.0557,1531
20861,14.6501,-2.0231,14.7411,1532
20866,-11.6885,-1.7394,19.0746,1553
20871,-16.2303,0.2574,5.381,1547
20876,1.0487,7.0342,3.7601,1530
20881,15.0655,4.6914,14.6106,1555
20886,-1.8794,-5.515,19.9006,1544
20891,-11.1079,-1.5838,7.0689,1561
20896,-7.3454,5.9711,2.8156,1545
20901,13.1729,8.272,12.5408,1551
20906,8.9148,-6.1423,16.5559,1533
20911,-11.3737,-1.3982,11.8405,1559
20916,-13.4087,3.541,3.5865,1541
20921,7.5166,8.5952,7.9021,1551
20926,15.4043,-2.0087,14.3772,1546
20931,-11.5209,-1.7777,19.2147,1544
20936,-14.619,0.1173,5.6312,1559
20941,1.2043,7.5477,3.3184,1533
20946,15.2463,3.8678,14.9614,1557
20951,-3.3818,-4.8614,20.085,1547
20956,-13.4327,-1.6676,6.9384,1544
20961,-5.9065,5.6491,2.5786,1528
20966,12.4822,8.7293,12.9933,1555
20971,9.8869,-6.5745,16.3297,1527
20976,-10.7691,-1.0858,11.7855,1559
20981,-13.5177,3.3782,4.1348,1541
20986,8.6538,8.5246,7.3263,1548
20991,14.4526,-2.5115,15.0488,1545
20996,-11.9926,-1.5083,18.5383,1543
21001,-16.7175,0.6716,5.0326,1547
21006,1.5874,7.1,4.0127,1531
21011,15.4821,4.4053,14.5819,1547
21016,-2.8802,-5.3331,20.2681,1545
21021,-11.2085,-1.4257,6.8809,1555
21026,-6.8247,6.098,2.6671,1515
21031,13.6206,8.0852,12.7479,1557
21036,7.9727,-6.2728,17.0216,1529
21041,-11.6119,-1.4808,11.145,1555
21046,-12.6462,3.7936,3.3435,1531
21051,7.7333,8.77,8.4839,1547
21056,15.6353,-2.5247,14.4813,1529
21061,-11.8465,-1.7083,18.8627,1553
21066,-14.7938,0.4166,5.5174,1555
21071,1.9034,7.683,3.3698,1545
21076,15.4366,3.3052,15.1349,1559
21081,-4.6388,-4.5657,20.3088,1530
21086,-14.1749,-1.5993,6.7062,1557
21091,-5.1439,5.7425,2.6217,1531
21096,12.7407,8.6119,13.453,1545
21101,9.1722,-6.7816,16.7008,1529
21106,-10.4806,-1.154,11.1378,1553
21111,-13.2208,3.6488,3.9947,1544
21116,9.2751,8.6239,7.75,1545
21121,14.1485,-2.9987,15.0954,1533
21126,-12.2104,-1.4641,18.1026,1555
21131,-16.8121,0.9553,4.9847,1561
21136,2.217,7.2832,4.2844,1515
21141,15.5791,3.7733,14.5747,1549
21146,-3.9277,-5.0434,20.4608,1547
21151,-11.5628,-1.4341,6.76,1566
21156,-6.049,6.3339,2.636,1526
21161,13.9402,7.8302,13.1142,1545
21166,7.0222,-6.3578,17.2215,1515
21171,-11.376,-1.5514,10.6757,1557
21176,-12.4451,3.972,3.2753,1529
21181,8.4072,8.8981,8.8765,1553
21186,15.038,-3.043,14.5448,1541
21191,-11.8178,-1.4461,18.257,1543
21196,-14.9075,0.6261,5.5019,1531
21201,2.6887,7.7716,3.6787,1528
21206,15.2846,2.7366,15.0296,1557
21211,-5.6443,-4.2569,20.4309,1532
21216,-14.194,-1.5658,6.5936,1553
21221,-4.5466,5.873,2.6085,1533
21226,13.131,8.3653,13.6673,1529
21231,7.9523,-6.8151,17.0551,1529
21236,-10.3609,-1.3408,10.4555,1549
21241,-12.7395,3.9768,3.8152,1549
21246,9.9132,8.7747,8.4144,1541
21251,13.7559,-3.5662,15.0188,1549
21256,-12.2104,-1.312,17.4753,1545
21261,-16.3943,1.1995,4.9129,1545
21266,2.8635,7.4496,4.4951,1531
21271,15.5096,3.0969,14.4981,1560
21276,-5.4049,-4.5705,20.5674,1533
21281,-12.044,-1.3755,6.5481,1559
21286,-5.1188,6.5505,2.6396,1526
21291,14.0995,7.5453,13.4758,1546
21296,5.9005,-6.3422,17.5902,1490
21301,-11.1701,-1.6676,10.0161,1543
21306,-11.7483,4.197,3.2429,1543
21311,9.238,9.0453,9.4032,1545
21316,14.4167,-3.7026,14.5951,1551
21321,-12.0045,-1.3396,17.4418,1547
21326,-15.0152,0.929,5.3091,1533
21331,3.6368,7.8925,4.0965,1533
21336,15.1493,2.1117,14.8201,1557
21341,-6.9252,-3.8008,20.5913,1529
21346,-14.3772,-1.3838,6.4368,1553
21351,-3.6679,6.1339,2.6959,1529
21356,13.5248,7.9128,13.86,1530
21361,6.3279,-6.675,17.4813,1557
21366,-10.2939,-1.4868,9.8761,1543
21371,-12.0153,4.4101,3.638,1557
21376,10.568,8.7029,9.1375,1523
21381,13.1334,-4.1192,15.1098,1555
21386,-12.1183,-1.2617,16.6146,1523
21391,-16.2028,1.6269,4.7297,1543
21396,3.8235,7.6447,4.9416,1541
21401,15.5324,2.1883,14.4981,1553
21406,-6.7828,-3.9037,20.6656,1532
21411,-12.6115,-1.2821,6.4512,1545
21416,-3.9552,6.772,2.5941,1541
21421,14.4598,7.0617,13.957,1545
21426,4.3347,-6.2728,18.0523,1553
21431,-11.5724,-1.7801,9.2931,1543
21436,-10.489,4.4915,2.9808,1561
21441,9.7863,9.1291,10.2328,1554
21446,14.0899,-4.4616,14.8285,1545
21451,-11.8669,-1.1899,16.5068,1533
21456,-15.1074,1.3982,5.1822,1545
21461,4.792,8.0385,4.5334,1529
21466,15.2187,1.1875,14.8201,1527
21471,-8.3989,-3.2777,20.5315,1557
21476,-15.5827,-1.1432,6.1411,1558
21481,-2.5007,6.2261,2.8575,1544
21486,13.9606,7.5693,14.1437,1527
21491,4.8626,-6.7756,18.148,1549
21496,-10.1861,-1.5634,9.1255,1544
21501,-11.2671,4.7285,3.4321,1563
21506,11.5233,8.9208,9.9359,1531
21511,12.3074,-4.8028,15.3468,1547
21516,-12.1099,-1.233,15.5527,1545
21521,-15.9334,2.0494,4.4568,1543
21526,4.7681,7.9392,5.6455,1553
21531,15.5683,1.1983,14.2814,1529
21536,-8.4874,-3.3603,20.6632,1562
21541,-13.1262,-1.1073,6.201,1543
21546,-2.6324,6.8821,2.7485,1543
21551,14.6441,6.5637,14.2611,1518
21556,2.4684,-6.0645,18.6257,1553
21561,-11.5784,-1.9249,8.576,1553
21566,-9.7025,4.7621,2.9437,1557
21571,10.6901,9.3087,11.0385,1533
21576,13.1597,-5.1667,14.9015,1541
21581,-11.9135,-1.1025,15.4115,1559
21586,-14.9925,1.7549,4.9692,1529
21591,5.7557,8.2791,5.284,1561
21596,15.0703,0.2239,14.6358,1527
21601,-9.4834,-2.6959,20.3519,1561
21606,-14.7351,-0.9206,6.0849,1541
21611,-1.7849,6.6092,2.9856,1548
21616,14.3137,6.6655,14.3987,1527
21621,2.6576,-6.3087,18.4078,1544
21626,-10.5979,-1.6783,8.4623,1549
21631,-10.1861,5.1427,3.2836,1547
21636,11.74,8.7975,10.9762,1525
21641,11.6861,-5.278,15.2942,1530
21646,-11.9052,-1.0367,14.5735,1545
21651,-15.0595,2.2721,4.5693,1529
21656,5.7604,8.1319,6.0849,1543
21661,15.2259,0.1197,14.303,1527
21666,-9.5864,-2.5905,20.2478,1555
21671,-13.7367,-0.8152,6.0537,1515
21676,-1.7166,6.9935,3.037,1558
21681,14.6824,5.8287,14.5041,1542
21686,1.4078,-5.9472,18.6915,1556
21691,-11.3306,-1.7214,8.1618,1542
21696,-9.3051,5.2577,3.0406,1546
21701,11.6179,8.8765,11.558,1531
21706,11.8561,-5.5378,15.2666,1529
21711,-11.8645,-0.9014,14.3939,1557
21716,-14.5795,2.3128,4.6591,1540
21721,6.3973,8.0996,6.0394,1555
21726,14.8871,-0.3448,14.54,1532
21731,-10.1131,-2.2853,19.9473,1605
21736,-14.6489,-0.6081,5.8838,1554
21741,-0.9541,6.8785,3.1735,1561
21746,14.6202,5.7593,14.5567,1527
21751,1.0523,-5.9137,18.7921,1528
21756,-10.8936,-1.6376,8.0792,1531
21761,-9.3182,5.3762,3.1184,1541
21766,12.2906,8.6024,11.564,1525
21771,10.9295,-5.5282,15.5456,1525
21776,-11.734,-1.0451,13.8529,1554
21781,-14.5508,2.7054,4.3934,1525
21786,6.7457,8.0469,6.4775,1555
21791,14.9111,-0.6871,14.5244,1543
21796,-10.5058,-2.0961,19.812,1567
21801,-14.3927,-0.4597,5.855,1549
21806,-0.3819,6.9875,3.0981,1542
21811,14.7148,5.3115,14.8381,1530
21816,-0.2251,-5.436,19.235,1547
21821,-11.6514,-1.7514,7.6734,1545
21826,-8.1439,5.4971,2.8527,1532
21831,12.1434,8.6335,12.141,1556
21836,10.9068,-5.8191,15.7359,1541
21841,-11.3701,-1.0331,13.2268,1565
21846,-14.2048,2.8084,4.3694,1529
21851,7.3502,8.1726,6.5697,1557
21856,14.7196,-1.227,14.8093,1526
21861,-11.0002,-1.8806,19.4804,1567
21866,-15.8496,-0.0239,5.5617,1530
21871,0.3687,6.9324,3.3136,1549
21876,14.8117,5.1619,14.8141,1523
21881,-0.6009,-5.5593,19.4948,1527
21886,-10.9666,-1.6723,7.5334,1549
21891,-8.4108,5.8215,2.8563,1543
21896,13.125,8.3606,12.1769,1559
21901,9.5229,-6.0561,16.1752,1531
21906,-11.5305,-1.2055,12.6965,1573
21911,-14.2419,3.2621,4.0318,1524
21916,7.3909,8.2492,7.1239,1565
21921,14.8836,-1.5706,14.7124,1525
21926,-10.9439,-1.804,19.2278,1555
21931,-14.3868,0.0335,5.7054,1547
21936,0.6201,7.3143,3.1544,1529
21941,14.9578,4.2258,15.0823,1565
21946,-2.1943,-4.9548,19.4146,1529
21951,-12.1769,-1.652,7.288,1560
21956,-7.0713,5.8323,2.6671,1526
21961,12.6605,8.2708,12.9311,1549
21966,9.6845,-6.1794,16.1884,1531
21971,-11.0373,-1.1444,12.1398,1567
21976,-13.7966,3.4285,4.1503,1541
21981,8.4096,8.2253,7.2269,1563
21986,14.3604,-2.15,14.9961,1523
21991,-11.6238,-1.6364,18.7047,1545
21996,-16.2111,0.4585,5.3283,1549
22001,-2.891,6.2979,2.7019,1533
22006,15.105,4.2964,14.8285,1555
22011,4.974,-6.3602,17.9888,1531
22016,-11.497,-1.6867,7.0569,1554
22021,-11.2635,4.7046,3.3603,1542
22026,13.5404,8.2193,12.9095,1547
22031,12.5277,-4.3886,15.2834,1527
22036,-11.4646,-1.6484,11.3066,1559
22041,-15.8412,1.907,4.4784,1543
22046,8.0709,8.7005,8.4192,1554
22051,15.761,1.5574,14.3868,1541
22056,-11.5436,-1.7729,18.7897,1543
22061,-12.9933,-1.0882,6.3315,1557
22066,2.3092,7.6052,3.2884,1530
22071,14.9063,6.7469,14.4011,1550
22076,-4.938,-4.2509,20.3567,1529
22081,-11.9171,-2.0135,8.7388,1557
22086,-4.9572,5.6707,2.5259,1525
22091,10.3118,9.232,10.8613,1533
22096,8.6838,-6.4727,16.7905,1525
22101,-11.4287,-1.2893,15.5875,1555
22106,-13.3022,3.7924,3.9744,1527
22111,5.8838,8.1044,4.871,1544
22116,13.6254,-3.1963,15.1314,1544
22121,-9.5325,-2.7461,20.3435,1544
22126,-17.0778,0.9589,4.9919,1533
22131,-1.585,6.3518,2.982,1527
22136,15.4641,3.474,14.4514,1557
22141,3.304,-6.4165,18.5084,1555
22146,-11.7148,-1.7107,6.8474,1565
22151,-10.5919,5.0182,3.2513,1531
22156,12.3493,8.8466,10.4627,1533
22161,11.2647,-5.035,15.5994,1527
22166,-11.6981,-1.4102,14.5579,1555
22171,-15.7407,2.2446,4.3227,1555
22176,5.4995,8.2217,6.1387,1531
22181,15.5192,0.5136,14.1318,1527
22186,-9.0285,-2.8359,20.3818,1541
22191,-13.4674,-1.0391,6.3171,1548
22196,-1.7322,7.0473,2.7114,1543
22201,15.0511,5.9508,14.4275,1563
22206,0.8679,-5.5318,18.901,1543
22211,-11.7543,-2.0482,8.3282,1593
22216,-8.8454,4.9105,2.8204,1529
22221,11.297,9.1674,11.485,1529
22226,12.1374,-5.2337,15.269,1541
22231,-11.2132,-1.245,14.4694,1557
22236,-14.8129,2.3463,4.853,1555
22241,6.8642,8.0661,5.5749,1541
22246,14.6346,-0.346,14.8345,1529
22251,-10.3825,-2.326,19.915,1553
22256,-16.9102,-0.4417,5.8131,1543
22261,-0.4202,6.6679,3.298,1525
22266,14.8417,6.2022,14.4346,1558
22271,1.4832,-6.0717,19.089,1531
22276,-10.3741,-1.8435,8.1343,1545
22281,-9.4463,5.3534,2.9928,1545
22286,13.0089,8.8597,11.2108,1529
22291,10.149,-5.5222,15.8783,1493
22296,-11.6885,-1.573,13.5512,1543
22301,-14.9314,2.5762,4.033,1555
22306,6.3973,8.4898,6.8905,1529
22311,15.4067,-0.498,13.9355,1548
22316,-10.094,-2.3248,20.1293,1524
22321,-14.0336,-0.735,6.2656,1544
22326,-0.328,7.2951,2.9078,1525
22331,15.2008,5.0925,14.4921,1547
22336,-1.0594,-5.0063,19.3009,1547
22341,-11.7843,-2.1272,7.9116,1533
22346,-8.1104,5.2493,2.7904,1547
22351,12.1422,9.0309,12.1937,1545
22356,10.586,-5.6491,15.5647,1547
22361,-11.0696,-1.3551,13.3788,1548
22366,-14.4311,2.9137,4.5538,1548
22371,7.7524,8.2121,6.4979,1543
22376,14.3389,-1.2617,14.7555,1555
22381,-10.8589,-1.8411,19.1764,1541
22386,-15.6102,-0.0168,5.7796,1545
22391,0.3436,7.1096,3.3208,1543
22396,14.9781,4.9033,14.9338,1541
22401,-0.8116,-5.4528,19.1093,1559
22406,-11.0792,-1.5311,7.5657,1533
22411,-8.2504,5.9687,2.8886,1544
22416,13.052,8.0637,12.3002,1528
22421,9.4463,-5.9376,16.2123,1559
22426,-11.6454,-1.2294,12.5085,1532
22431,-13.8181,3.4704,3.8355,1562
22436,7.3562,8.2708,7.4208,1527
22441,15.36,-1.6819,14.6118,1524
22446,-11.0061,-2.0027,19.1847,1548
22451,-14.4322,0.0718,5.7808,1543
22456,0.753,7.44,3.1208,1546
22461,15.36,4.0582,15.1457,1519
22466,-2.6205,-4.9955,19.5403,1547
22471,-13.6422,-1.652,7.3119,1544
22476,-6.2453,5.6144,2.6659,1557
22481,12.5073,8.5533,12.8928,1531
22486,10.2125,-6.3506,16.1238,1548
22491,-10.8625,-1.2031,12.3828,1541
22496,-13.9319,3.383,4.2629,1553
22501,8.8286,8.3653,6.9133,1543
22506,14.1605,-2.2972,15.0799,1528
22511,-11.6167,-1.7035,18.5646,1543
22516,-17.2023,0.589,5.2912,1546
22521,1.476,7.0749,3.948,1545
22526,15.3792,4.4592,14.5891,1527
22531,-2.0782,-5.2373,19.7402,1561
22536,-11.0864,-1.6975,7.3825,1543
22541,-7.2592,6.1363,2.7833,1547
22546,14.1856,8.1247,12.6941,1527
22551,7.5609,-6.0178,16.7343,1551
22556,-11.3701,-1.7657,11.5125,1548
22561,-13.1166,3.3806,3.5997,1557
22566,8.1151,8.8717,8.3558,1529
22571,15.0093,-2.3619,14.1162,1519
22576,-11.3162,-1.6676,18.8077,1549
22581,-14.9841,0.0838,5.9209,1547
22586,2.1596,7.598,3.3842,1555
22591,15.1924,3.4249,14.6585,1529
22596,-4.5334,-4.1635,20.0275,1557
22601,-13.2758,-1.895,7.0509,1542
22606,-5.7832,5.6731,2.6719,1533
22611,13.1334,8.6634,13.3872,1548
22616,8.5341,-6.4236,16.2901,1560
22621,-10.7272,-1.3587,11.4407,1553
22626,-13.4399,3.717,4.203,1542
22631,9.6067,8.5724,7.9452,1531
22636,13.9271,-2.9317,14.8141,1507
22641,-11.9052,-1.2378,17.9709,1557
22646,-16.259,0.8499,5.3008,1530
22651,2.3343,7.2065,4.0725,1559
22656,15.4258,3.6571,14.7818,1543
22661,-4.0546,-4.4879,19.9257,1555
22666,-11.7663,-1.5419,6.9468,1558
22671,-5.8682,6.3446,2.6635,1557
22676,13.963,7.8434,13.3166,1527
22681,6.8031,-6.0825,17.1257,1547
22686,-12.5336,-1.8878,10.6698,1542
22691,-10.92,4.0498,3.2358,1503
22696,8.5305,8.8011,9.165,1531
22701,15.6497,-3.0993,14.3975,1515
22706,-12.1793,-1.585,18.3252,1553
22711,-15.2343,0.6895,5.454,1531
22716,2.879,7.531,3.4345,1553
22721,15.3181,3.1639,15.1278,1525
22726,-6.2237,-4.0642,20.2633,1556
22731,-16.0938,-1.6077,6.6068,1554
22736,-3.784,5.9137,2.9796,1547
22741,13.5919,8.6347,13.6086,1545
22746,8.3306,-7.2461,16.8276,1547
22751,-10.6051,-1.1349,10.7631,1547
22756,-13.1059,3.893,3.9037,1545
22761,10.331,8.9028,8.0409,1548
22766,13.3608,-3.6679,15.1912,1525
22771,-12.1829,-1.5311,17.4884,1566
22776,-16.9438,1.2426,4.9297,1528
22781,2.958,7.6255,4.5023,1565
22786,15.2295,2.8419,14.5903,1541
22791,-4.8231,-4.4448,20.0634,1573
22796,-11.9542,-1.4126,6.7876,1554
22801,-5.5486,6.8486,2.642,1544
22806,14.5532,7.0964,13.6242,1524
22811,5.6826,-6.2728,17.3041,1549
22816,-10.9678,-1.561,10.2173,1545
22821,-12.5205,4.5167,3.4884,1541
22826,9.7205,8.7532,9.3122,1545
22831,13.8517,-3.814,14.8201,1523
22836,-12.1111,-1.1504,17.1173,1573
22841,-14.88,1.3791,5.2146,1529
22846,3.3902,7.6854,4.2856,1559
22851,15.2032,2.0758,15.2989,1529
22856,-6.2812,-3.887,20.0131,1556
22861,-13.5177,-0.9673,6.4392,1555
22866,-4.0294,6.6463,2.557,1531
22871,13.8576,7.1503,14.2395,1523
22876,6.2656,-6.6164,17.358,1544
22881,-10.7655,-1.0499,9.8402,1547
22886,-11.7663,5.0194,3.3938,1529
22891,9.9683,7.9667,8.989,1547
22896,13.6206,-4.0103,15.8987,1522
22901,-12.566,-1.166,16.2303,1557
22906,-15.3157,2.4576,4.1743,1519
22911,3.6512,7.2461,4.9333,1560
22916,16.7546,2.0291,15.5503,1545
22921,-6.9983,-4.5071,20.571,1543
22926,-12.803,-0.4932,6.1495,1549
22931,-3.9456,6.8594,2.1811,1545
22936,14.3437,6.7253,14.2503,1541
22941,3.9097,-6.4141,18.1983,1553
22946,-14.0851,-2.0375,9.4367,1560
22951,-8.819,5.1535,2.8455,1544
22956,9.6893,8.7724,10.495,1557
22961,15.3839,-5.0326,15.0823,1529
22966,-13.0879,-1.0798,16.8504,1565
22971,-14.9314,1.7621,4.7142,1532
22976,4.0869,7.8003,3.9133,1559
22981,15.4175,1.4126,15.7395,1531
22986,-8.4575,-3.8008,19.9916,1555
22991,-16.3189,-0.6093,5.958,1559
22996,-2.1392,6.4452,3.2178,1532
23001,14.37,7.4639,14.0791,1543
23006,5.6635,-7.6231,17.7542,1545
23011,-10.6398,-1.0283,9.4272,1556
23016,-11.8154,4.7417,3.4812,1547
23021,11.4371,8.6898,9.1506,1549
23026,12.2128,-4.8518,15.6138,1519
23031,-12.2535,-1.4497,15.9789,1573
23036,-16.0759,2.0255,4.7669,1529
23041,4.5011,8.0122,5.5366,1557
23046,15.1996,0.9852,14.3329,1531
23051,-7.3957,-3.6117,19.8707,1549
23056,-12.8353,-1.0116,6.4177,1561
23061,-3.4967,7.1599,3.0239,1531
23066,14.7507,6.0478,14.03,1545
23071,3.1879,-6.195,17.941,1543
23076,-11.1773,-1.6293,9.1411,1555
23081,-11.0385,5.1427,3.4022,1526
23086,11.4287,8.7927,10.7009,1556
23091,12.4139,-5.1763,14.8117,1549
23096,-12.5205,-0.8535,15.5779,1565
23101,-14.68,1.9884,4.9608,1533
23106,5.3522,7.9799,5.7868,1555
23111,15.1349,0.4178,14.2886,1532
23116,-8.8358,-2.8287,20.0526,1543
23121,-13.5596,-0.8475,6.2165,1549
23126,-2.2098,6.9707,3.0143,1542
23131,14.7124,6.1363,14.1701,1556
23136,2.4122,-6.1339,18.0391,1545
23141,-11.3114,-1.658,8.7999,1567
23146,-10.1359,5.2122,3.4129,1523
23151,11.7627,8.6814,11.0672,1527
23156,11.8812,-5.3032,15.0188,1541
23161,-12.1194,-0.8176,14.9231,1533
23166,-14.5759,2.2338,4.81,1544
23171,6.1878,7.9655,5.8407,1541
23176,15.0595,-0.2119,14.4155,1544
23181,-9.6582,-2.2314,19.818,1541
23186,-14.267,-0.6009,6.031,1532
23191,-1.2629,6.8378,3.1065,1541
23196,14.868,5.764,14.5316,1500
23201,1.2617,-5.8311,18.4737,1549
23206,-11.1869,-1.5622,8.278,1547
23211,-9.493,5.5234,3.1149,1527
23216,12.2583,8.4013,11.4718,1547
23221,10.9439,-5.5294,15.5731,1543
23226,-11.9004,-0.8487,13.9893,1541
23231,-14.5603,2.8754,4.4233,1549
23236,6.6032,7.9308,6.3602,1546
23241,15.2092,-0.7673,14.7686,1547
23246,-10.2101,-2.0207,19.5522,1531
23251,-14.0516,-0.1844,5.8562,1549
23256,-0.6776,7.2018,2.9437,1527
23261,15.1733,4.8746,15.1613,1549
23266,-0.3388,-5.4444,18.8723,1545
23271,-12.2404,-1.3886,7.835,1548
23276,-8.0589,5.8275,2.7138,1543
23281,12.1494,8.0278,12.1398,1531
23286,10.963,-5.9616,15.9813,1547
23291,-11.5568,-0.6644,13.1944,1556
23296,-14.1725,3.4058,4.2306,1545
23301,7.4053,7.8171,6.2728,1533
23306,15.0021,-1.7119,15.7443,1531
23311,-11.0169,-1.7442,18.7705,1547
23316,-16.4972,0.7781,5.205,1557
23321,0.5339,6.9396,3.456,1544
23326,15.6198,4.6878,15.4486,1523
23331,-0.8236,-5.9185,19.4289,1529
23336,-11.1725,-1.0092,7.2077,1545
23341,-7.9188,6.195,2.5355,1533
23346,13.2148,7.6614,12.2607,1533
23351,9.2081,-6.268,16.9809,1565
23356,-13.2747,-1.4676,11.9183,1549
23361,-12.0416,3.9157,3.1316,1555
23366,7.0054,8.2265,8.1295,1548
23371,16.8193,-2.0566,14.8429,1541
23376,-12.0165,-2.1656,19.5127,1555
23381,-14.6537,0.5183,5.3714,1532
23386,1.075,7.428,2.7581,1545
23391,15.6784,4.0917,15.6377,1543
23396,-4.0115,-4.956,20.0874,1565
23401,-15.8089,-1.6819,6.8989,1555
23406,-4.8554,5.7784,2.6683,1544
23411,12.9646,9.0381,13.374,1528
23416,10.6374,-7.2975,16.5212,1555
23421,-10.884,-0.8176,11.5688,1531
23426,-13.5608,3.4524,3.899,1559
23431,8.7293,8.5281,6.7373,1527
23436,14.522,-2.5438,15.5922,1533
23441,-12.9814,-1.9225,18.1947,1533
23446,-15.9993,1.1181,4.5322,1531
23451,2.0363,7.106,4.6424,1541
23456,16.3608,4.3814,14.3712,1548
23461,-3.5578,-6.0729,20.8571,1561
23466,-11.4946,-1.1181,6.6283,1540
23471,-6.4129,6.0621,2.4517,1557
23476,13.7714,8.3103,12.6976,1530
23481,7.525,-6.3746,17.5244,1556
23486,-13.1789,-2.1296,10.9463,1544
23491,-11.3222,3.9289,3.0047,1559
23496,8.0445,9.1123,9.165,1530
23501,16.3249,-2.9437,14.2479,1531
23506,-12.3373,-1.907,18.992,1547
23511,-15.0404,0.6369,5.4492,1533
23516,2.247,7.7548,3.1376,1553
23521,15.6988,3.31,15.2283,1526
23526,-5.4456,-4.5131,20.6141,1551
23531,-16.2901,-1.646,6.5637,1548
23536,-4.2341,5.867,2.6228,1547
23541,13.3357,8.9854,13.5811,1548
23546,9.2596,-7.3119,16.9964,1545
23551,-10.386,-1.0546,10.7727,1533
23556,-13.0795,3.8523,3.7948,1547
23561,9.6199,8.7197,7.4663,1549
23566,14.1485,-3.3028,15.5922,1512
23571,-13.1023,-1.7083,17.4609,1553
23576,-15.8664,1.4904,4.3467,1543
23581,2.5845,7.3191,4.9775,1557
23586,16.7271,3.699,14.2287,1543
23591,-5.0661,-5.7317,21.1695,1573
23596,-11.8429,-0.9744,6.4308,1544
23601,-5.3367,6.2417,2.3906,1549
23606,13.9738,8.1139,13.0544,1543
23611,6.189,-6.377,18.0331,1559
23616,-13.8744,-2.5414,10.2292,1547
23621,-9.7348,4.3395,2.9664,1543
23626,8.7879,9.5158,9.9862,1532
23631,16.0364,-3.638,14.1425,1527
23636,-12.785,-1.8567,18.3312,1549
23641,-15.3504,0.9026,5.2241,1547
23646,3.2717,7.8111,3.4488,1563
23651,15.2032,3.0634,14.935,1525
23656,-7.5058,-4.0067,20.8978,1548
23661,-16.0028,-1.6783,6.3422,1531
23666,-2.9269,6.0525,3.0634,1555
23671,13.7487,8.8143,13.623,1525
23676,7.7776,-7.6243,17.4274,1543
23681,-10.2687,-1.3036,9.9383,1547
23686,-12.3433,3.8439,3.5901,1546
23691,10.3011,9.3805,8.3534,1541
23696,13.3513,-3.7098,14.9973,1532
23701,-12.5444,-1.7909,17.1461,1553
23706,-16.3572,1.2929,4.5047,1544
23711,3.4644,7.9308,5.4336,1549
23716,16.0196,2.8347,13.55,1527
23721,-6.3566,-4.6627,21.3826,1605
23726,-12.2966,-1.4916,6.5541,1549
23731,-4.6172,6.5194,2.563,1549
23736,14.619,7.8195,13.4351,1548
23741,4.9249,-6.4153,17.9445,1555
23746,-11.3485,-2.2146,9.7432,1543
23751,-11.8561,4.1599,3.2334,1523
23756,9.7097,9.8521,10.0545,1555
23761,14.0576,-4.13,14.0671,1528
23766,-12.0273,-1.4018,17.3053,1559
23771,-15.2056,0.8882,5.4085,1546
23776,4.1635,8.4731,4.5897,1557
23781,15.1649,1.3731,14.1773,1543
23786,-7.3071,-3.5135,20.5674,1567
23791,-13.1226,-1.4593,6.4883,1531
23796,-4.2234,6.7325,2.715,1547
23801,14.1054,7.4819,13.9546,1545
23806,5.1164,-6.5733,17.4334,1545
23811,-11.1701,-1.5802,9.584,1553
23816,-11.3713,4.6603,3.5422,1542
23821,10.404,9.0477,10.0628,1553
23826,13.4087,-4.3215,14.613,1541
23831,-12.1733,-1.0678,16.5439,1565
23836,-15.0978,1.4006,5.1631,1528
23841,4.6412,8.175,4.9847,1567
23846,15.1996,1.1432,14.3832,1531
23851,-7.7381,-3.4285,20.2502,1565
23856,-13.6553,-1.1827,6.2668,1549
23861,-3.304,6.6738,2.873,1545
23866,14.139,6.9803,14.0995,1551
23871,4.4999,-6.4751,17.8452,1543
23876,-11.0409,-1.4736,9.2021,1555
23881,-10.8314,4.9093,3.3291,1529
23886,10.8972,8.7855,10.3202,1553
23891,13.0233,-4.883,15.0021,1545
23896,-12.3541,-0.9744,15.7981,1567
23901,-15.0511,1.8699,4.7166,1531
23906,4.889,7.9763,5.5031,1561
23911,15.457,0.7709,14.4682,1525
23916,-8.5916,-3.207,20.3172,1543
23921,-13.5488,-0.905,6.0358,1531
23926,-2.6552,6.924,2.9293,1547
23931,14.6214,6.4584,14.2814,1548
23936,2.9939,-6.3291,18.2881,1541
23941,-11.3425,-1.6077,8.6538,1560
23946,-9.9311,5.0434,3.1077,1528
23951,11.1091,8.934,10.9654,1559
23956,12.7132,-5.2696,15.0811,1544
23961,-11.9267,-0.9565,15.0787,1565
23966,-14.8177,1.9788,4.7357,1543
23971,5.6647,8.1139,5.5713,1533
23976,15.3911,0.1317,14.6896,1531
23981,-9.6594,-2.66,20.2406,1554
23986,-15.4282,-0.7446,5.861,1554
23991,-1.5347,6.6714,3.1137,1532
23996,14.7794,6.505,14.3796,1561
24001,2.5283,-6.517,18.67,1531
24006,-10.7236,-1.4126,8.1798,1559
24011,-9.9084,5.1427,3.1268,1531
24016,12.1314,8.9148,11.0014,1547
24021,11.6418,-5.5869,15.7311,1524
24026,-12.1386,-1.0235,14.1402,1533
24031,-15.0619,2.7294,4.0019,1543
24036,5.7628,8.1858,6.4153,1545
24041,15.9633,-0.1281,14.4646,1544
24046,-9.9204,-2.8335,20.3148,1549
24051,-13.8445,-0.5483,5.8909,1557
24056,-1.4569,7.2053,2.7773,1529
24061,15.2331,5.5629,14.7136,1553
24066,0.4453,-5.9759,19.0602,1531
24071,-12.3146,-1.8723,7.9523,1563
24076,-8.5473,5.2696,2.7617,1533
24081,11.6274,9.1447,11.9423,1544
24086,12.0979,-5.9675,15.4199,1529
24091,-11.7172,-0.9553,14.0456,1559
24096,-14.552,2.4529,4.5729,1532
24101,7.0521,8.4946,6.1447,1532
24106,15.0392,-1.0798,14.6812,1528
24111,-10.8397,-2.2386,19.7917,1549
24116,-15.5132,-0.3412,5.6743,1551
24121,-0.346,6.8714,3.3148,1543
24126,14.8393,5.6587,14.6465,1555
24131,0.1951,-5.9891,19.1309,1529
24136,-11.145,-1.6209,7.6746,1543
24141,-8.7101,5.6479,2.9473,1525
24146,12.6809,8.6179,11.9566,1531
24151,10.4028,-5.9352,15.8819,1545
24156,-11.7364,-1.0918,13.1226,1555
24161,-14.2826,3.043,4.0725,1547
24166,7.033,8.3282,7.0533,1549
24171,15.2774,-1.3252,14.4909,1533
24176,-11.1007,-2.0279,19.581,1549
24181,-14.4646,-0.1317,5.6443,1553
24186,0.0587,7.2425,3.2729,1519
24191,15.1457,4.7262,14.9087,1555
24196,-1.4138,-5.436,19.4708,1547
24201,-12.3254,-1.5969,7.3322,1545
24206,-7.361,5.7533,2.6839,1525
24211,12.5181,8.5856,12.5935,1546
24216,10.4483,-6.426,16.0364,1544
24221,-11.4419,-0.9074,12.4929,1549
24226,-13.8193,3.1903,4.1468,1555
24231,7.8542,8.3773,7.021,1541
24236,14.8824,-2.0051,14.9386,1531
24241,-11.6382,-1.6735,19.0219,1545
24246,-16.1273,0.322,5.2625,1542
24251,0.9697,7.0282,3.729,1547
24256,15.4462,4.6352,14.7196,1530
24261,-1.986,-5.5761,19.8216,1547
24266,-11.3282,-1.4772,7.1407,1541
24271,-7.4986,5.9544,2.7797,1549
24276,13.623,8.3617,12.6881,1533
24281,8.7209,-6.3422,16.6517,1555
24286,-11.5532,-1.3324,11.6849,1543
24291,-13.4494,3.6332,3.547,1561
24296,7.8913,8.667,8.0337,1543
24301,15.3397,-2.2901,14.5352,1528
24306,-11.661,-1.7358,18.9465,1543
24311,-14.8033,0.2346,5.4959,1533
24316,1.67,7.5585,3.3423,1531
24321,15.4761,3.6512,15.0248,1533
24326,-4.2353,-4.6292,20.2801,1559
24331,-13.9714,-1.7166,6.8498,1551
24336,-5.3762,5.6683,2.5953,1549
24341,13.0161,8.8801,13.4075,1531
24346,9.0776,-6.6379,16.7127,1556
24351,-10.4483,-1.3372,11.1438,1533
24356,-13.295,3.5458,3.9253,1559
24361,9.4427,8.8047,7.774,1549
24366,14.1078,-2.9712,15.0272,1533
24371,-12.2416,-1.4724,18.0894,1553
24376,-16.8552,0.8871,4.8578,1546
24381,2.3834,7.2832,4.4185,1531
24386,15.8879,3.9193,14.3401,1519
24391,-4.4855,-4.8818,20.826,1533
24396,-11.8058,-1.5694,6.7026,1533
24401,-5.6814,6.1723,2.4253,1558
24406,14.267,8.3139,13.2639,1543
24411,6.5793,-6.3159,17.4717,1559
24416,-12.0488,-2.0363,10.3657,1543
24421,-11.4215,3.8188,3.0263,1549
24426,8.582,9.3134,9.329,1529
24431,15.4402,-3.2968,14.3329,1529
24436,-11.9566,-1.6484,18.2151,1546
24441,-15.3373,0.5555,5.4731,1544
24446,3.225,7.8865,3.535,1549
24451,15.5396,2.7258,14.9015,1543
24456,-6.3614,-3.9528,20.6811,1559
24461,-15.2989,-1.7095,6.5493,1555
24466,-4.027,5.7533,2.6755,1551
24471,13.4841,8.691,13.7834,1528
24476,7.4352,-6.8319,17.2921,1561
24481,-10.0604,-1.5862,10.222,1533
24486,-12.7467,4.0151,3.7733,1557
24491,10.7775,9.1901,8.6898,1533
24496,13.2232,-3.948,15.0691,1520
24501,-12.1613,-1.4042,16.9162,1559
24506,-16.848,1.2701,4.8291,1541
24511,3.31,7.6866,4.8231,1557
24516,15.5803,2.6767,14.2838,1497
24521,-6.1902,-4.1755,20.7302,1555
24526,-12.3385,-1.5275,6.5625,1553
24531,-4.6052,6.6499,2.6576,1553
24536,14.7555,7.4783,13.787,1533
24541,4.7309,-6.3686,17.8619,1553
24546,-11.163,-1.9166,9.5385,1531
24551,-11.5604,4.3515,3.2322,1547
24556,9.9683,9.3901,9.9922,1543
24561,13.9127,-4.2557,14.6178,1515
24566,-12.0548,-1.2234,16.6852,1497
24571,-15.1278,1.166,5.2014,1541
24576,4.3993,8.011,4.5789,1563
24581,15.2355,1.5012,14.5783,1533
24586,-8.0278,-3.3255,20.5782,1563
24591,-14.7459,-1.2713,6.2608,1549
24596,-2.8551,6.3183,2.8,1531
24601,14.1665,7.6459,14.1821,1544
24606,4.889,-6.6164,17.9709,1544
24611,-10.386,-1.6592,9.1267,1547
24616,-11.248,4.6675,3.3818,1529
24621,11.2108,9.0022,9.93,1555
24626,12.615,-4.6843,15.2116,1523
24631,-12.1613,-1.2414,15.6605,1560
24636,-15.8855,2.0303,4.4017,1525
24641,4.6938,7.9547,5.624,1555
24646,15.9322,1.2594,14.3089,1531
24651,-8.2636,-3.4261,20.7673,1565
24656,-13.2651,-1.0942,6.1938,1548
24661,-2.8347,6.9204,2.5414,1543
24666,14.929,6.7516,14.4047,1555
24671,2.6157,-6.1962,18.5718,1541
24676,-12.2368,-2.0542,8.5641,1555
24681,-9.3889,4.6471,2.8395,1541
24686,10.6877,9.4607,11.1031,1558
24691,13.4303,-5.2218,15.0176,1541
24696,-11.795,-1.2139,15.4222,1572
24701,-15.1218,1.7346,4.9644,1525
24706,5.9903,8.4013,5.0913,1560
24711,15.1457,0.1484,14.7028,1527
24716,-9.7648,-2.7342,20.3459,1549
24721,-15.7251,-0.8799,5.9053,1532
24726,-1.6233,6.4991,2.9772,1583
24731,14.467,6.8833,14.3832,1558
24736,2.7186,-6.4033,18.5958,1527
24741,-10.4866,-1.7526,8.4204,1563
24746,-10.4603,5.1571,3.2334,1528
24751,12.5588,9.0465,11.0097,1531
24756,11.3677,-5.5186,15.4977,1533
24761,-11.9267,-1.2737,14.3485,1559
24766,-15.1637,2.332,4.5454,1528
24771,6.1974,8.327,6.0442,1555
24776,14.9494,-0.2023,14.37,1543
24781,-10.1754,-2.5175,20.1592,1557
24786,-14.1904,-0.7422,5.879,1508
24791,-1.1959,7.0904,3.0658,1541
24796,14.625,5.6862,14.5496,1561
24801,0.662,-5.7844,19.0614,1531
24806,-11.0409,-1.8543,7.7596,1561
24811,-9.2428,5.521,2.9365,1532
24816,12.4786,8.9902,12.0596,1555
24821,11.1881,-5.8802,15.4941,1533
24826,-11.8381,-1.1289,13.4782,1551
24831,-14.6968,2.6552,4.397,1529
24836,6.9408,8.4599,6.6307,1545
24841,15.0069,-0.9708,14.4909,1597
24846,-10.9307,-2.1727,19.9509,1546
24851,-14.7387,-0.407,5.6886,1547
24856,-0.1975,7.2233,3.122,1541
24861,14.9231,5.187,14.8393,1561
24866,-0.4381,-5.6647,19.3595,1547
24871,-11.4622,-1.7083,7.3694,1573
24876,-8.3354,5.6922,2.7653,1541
24881,12.5983,8.8286,12.4343,1551
24886,10.7176,-6.0406,15.8496,1547
24891,-11.5017,-1.1217,12.8784,1549
24896,-14.2299,2.9939,4.1456,1544
24901,7.5633,8.4647,6.9839,1532
24906,14.9853,-1.3408,14.6669,1549
24911,-11.145,-1.913,19.5762,1542
24916,-15.3217,-0.091,5.5246,1553
24921,0.6189,7.1515,3.1915,1531
24926,15.038,5.0087,15.0871,1549
24931,-1.5838,-5.3977,19.97,1546
24936,-11.819,-1.7454,7.1551,1559
24941,-7.276,5.7664,2.4277,1524
24946,12.6689,8.6694,12.6462,1545
24951,10.0269,-6.1938,16.5655,1531
24956,-10.9678,-1.2977,11.9279,1533
24961,-13.7439,3.3543,3.6883,1549
24966,7.4998,8.4252,7.3646,1545
24971,15.4797,-1.816,14.9853,1529
24976,-11.6586,-2.059,19.2207,1544
24981,-15.3205,0.0766,5.3606,1553
24986,1.0163,7.2293,3.2729,1531
24991,15.3815,4.6555,15.1349,1560
24996,-3.3962,-5.369,20.5279,1546
25001,-13.392,-1.8028,6.839,1547
25006,-5.9963,5.6252,2.4852,1545
25011,12.7431,9.0465,13.0735,1527
25016,9.7025,-6.7469,16.8265,1559
25021,-10.4531,-1.391,11.2575,1547
25026,-13.5644,3.2429,3.9217,1559
25031,8.7113,8.9423,7.4304,1531
25036,14.5783,-2.6073,15.032,1543
25041,-12.062,-1.8064,18.5156,1553
25046,-16.9114,0.6788,4.8566,1543
25051,1.7059,7.2736,4.0235,1528
25056,15.5084,4.2976,14.631,1525
25061,-3.4931,-5.2577,20.7362,1554
25066,-11.5113,-1.5658,6.7469,1545
25071,-6.5697,6.213,2.4541,1533
25076,14.0133,8.3318,13.1071,1545
25081,7.5812,-6.4548,17.1449,1553
25086,-11.3066,-1.7729,10.9044,1545
25091,-12.9419,3.7266,3.2836,1565
25096,8.3007,8.9986,8.6371,1548
25101,15.1721,-2.806,14.4897,1549
25106,-11.6634,-1.7334,18.5395,1549
25111,-15.1314,0.2646,5.5593,1533
25116,2.648,7.756,3.4895,1531
25121,15.3636,3.2106,14.868,1531
25126,-5.6383,-4.2042,20.7625,1544
25131,-14.4682,-1.9213,6.6331,1549
25136,-4.6388,5.6515,2.4876,1553
25141,13.3596,8.9471,13.6398,1543
25146,7.9523,-6.6212,17.1628,1549
25151,-9.8916,-1.8208,10.4531,1547
25156,-13.0951,3.7338,3.8343,1557
25161,10.4076,9.1997,8.3641,1549
25166,13.4387,-3.3375,14.9003,1531
25171,-11.8693,-1.5838,17.516,1544
25176,-16.7929,0.9325,5.0566,1543
25181,3.0562,7.6112,4.288,1543
25186,15.2427,3.2884,14.4191,1532
25191,-5.6743,-4.2174,20.9253,1559
25196,-12.2727,-1.6364,6.6427,1541
25201,-4.9847,6.5493,2.3451,1558
25206,14.2994,7.8075,13.781,1523
25211,5.5378,-6.183,17.8931,1564
25216,-10.7799,-1.9812,9.7001,1549
25221,-11.9064,4.1587,3.1675,1555
25226,9.5445,9.1698,9.4583,1533
25231,14.1018,-3.8607,14.7519,1525
25236,-11.9459,-1.549,17.1425,1547
25241,-15.5037,0.899,5.2696,1545
25246,3.9911,8.0888,4.2318,1555
25251,15.1792,1.7538,14.7866,1530
25256,-7.3155,-3.7649,20.626,1557
25261,-13.149,-1.5012,6.353,1543
25266,-4.1623,6.5817,2.4876,1542
25271,14.115,7.5824,14.139,1544
25276,4.9237,-6.4153,17.8416,1544
25281,-10.4758,-1.743,9.3158,1545
25286,-11.6526,4.5957,3.3579,1542
25291,10.8529,9.0393,9.9563,1549
25296,12.9251,-4.2485,15.0236,1526
25301,-11.7795,-1.4246,16.0208,1561
25306,-15.5563,1.6029,4.9728,1528
25311,4.9847,7.9631,4.6843,1557
25316,15.038,1.3623,15.0104,1527
25321,-8.0529,-3.2346,20.6021,1563
25326,-13.8995,-0.9972,6.1435,1549
25331,-2.8216,6.7816,2.4038,1541
25336,14.2682,6.8295,14.7411,1524
25341,4.0737,-6.1782,18.3348,1549
25346,-10.5524,-1.506,8.6335,1558
25351,-10.8038,5.2553,2.8575,1548
25356,10.9283,8.3151,10.1562,1553
25361,12.815,-4.7704,15.8364,1519
25366,-11.9794,-1.0953,15.1721,1565
25371,-15.506,2.4098,4.2772,1531
25376,4.774,7.6459,5.1427,1562
25381,15.9645,0.8464,15.6365,1525
25386,-8.6179,-3.4285,20.4573,1547
25391,-13.5991,-0.5351,5.9256,1551
25396,-2.4277,7.1012,2.2158,1549
25401,14.9314,6.1184,15.1337,1556
25406,2.229,-6.2525,18.9369,1576
25411,-13.1537,-1.6963,8.2013,1559
25416,-8.4036,5.2038,2.4229,1532
25421,10.5261,8.6969,11.078,1557
25426,13.8193,-5.3307,16.0567,1527
25431,-11.2934,-1.1959,14.8081,1563
25436,-15.1828,2.3451,4.5262,1529
25441,5.9616,7.9487,4.3359,1557
25446,15.4282,0.1832,16.1872,1531
25451,-10.0616,-2.9712,20.0083,1550
25456,-17.5483,-0.237,5.3606,1541
25461,-1.1576,6.4811,3.0287,1542
25466,15.0727,6.875,14.8261,1548
25471,2.7186,-6.9264,19.3535,1543
25476,-10.1347,-1.5036,7.8937,1561
25481,-10.0437,5.1655,2.6971,1547
25486,12.5708,8.8693,10.6303,1549
25491,11.0804,-5.3882,16.4482,1541
25496,-11.6825,-1.8172,13.6386,1557
25501,-15.4522,2.5582,3.5889,1533
25506,5.6635,8.4922,6.6403,1531
25511,16.1824,0.1724,14.2994,1529
25516,-10.2065,-3.1544,20.8415,1543
25521,-14.4203,-0.7661,6.013,1553
25526,-0.6584,7.3717,2.3068,1532
25531,15.1445,5.7892,14.7363,1555
25536,-0.656,-5.4827,20.073,1531
25541,-11.9902,-2.2589,7.5022,1559
25546,-8.3258,5.0266,2.4349,1529
25551,11.5041,9.5577,12.0297,1550
25556,11.9327,-5.7604,15.6353,1529
25561,-10.9666,-1.494,13.5691,1560
25566,-15.0152,2.5414,4.5825,1541
25571,7.3933,8.5856,5.9316,1557
25576,14.9135,-0.9529,15.0811,1544
25581,-10.9415,-2.3367,19.988,1545
25586,-15.3636,-0.3819,5.6778,1557
25591,-0.2358,7.0282,2.7785,1549
25596,14.801,5.782,15.0978,1549
25601,-0.3412,-5.7868,19.6767,1543
25606,-11.2563,-1.883,7.3251,1557
25611,-8.345,5.7018,2.6348,1531
25616,12.3098,8.685,12.2284,1545
25621,10.5919,-5.8694,16.198,1547
25626,-11.0421,-1.4808,12.5013,1553
25631,-14.37,2.8922,4.0294,1545
25636,7.3909,8.5653,6.9887,1531
25641,15.0739,-1.4102,14.5687,1544
25646,-11.4539,-2.2039,19.7139,1551
25651,-15.0344,-0.4345,5.6599,1553
25656,0.2945,7.1575,3.2705,1546
25661,15.0057,5.0697,14.5783,1559
25666,-1.7154,-5.3534,20.0957,1547
25671,-11.5484,-2.0554,7.2113,1567
25676,-7.5058,5.5809,2.6839,1526
25681,12.8317,9.0656,12.5899,1528
25686,9.7875,-5.9053,16.2578,1545
25691,-10.8745,-1.6999,12.1171,1547
25696,-14.1557,2.9987,4.1492,1549
25701,8.1499,8.8262,7.3813,1549
25706,14.6094,-1.5598,14.2599,1523
25711,-11.552,-1.895,19.4313,1545
25716,-15.1637,-0.182,5.703,1555
25721,1.0702,7.3514,3.2501,1530
25726,14.965,4.5789,14.7626,1557
25731,-2.7952,-4.8375,20.1819,1549
25736,-11.8333,-1.8711,7.027,1547
25741,-7.0198,5.9532,2.5175,1543
25746,12.9885,8.5269,12.9263,1545
25751,9.2799,-6.0561,16.5691,1541
25756,-10.9283,-1.3084,11.552,1556
25761,-13.7152,3.6643,3.8199,1558
25766,8.333,8.3426,7.4903,1546
25771,14.7866,-2.1919,15.1936,1531
25776,-11.8812,-1.634,18.6209,1543
25781,-15.5515,0.5974,5.1092,1559
25786,1.4844,7.3203,3.4728,1531
25791,15.4869,3.8798,15.5515,1545
25796,-3.5123,-5.0218,20.1712,1543
25801,-12.1781,-1.3946,6.596,1551
25806,-6.4416,6.2728,2.4002,1527
25811,13.3991,7.926,13.3908,1541
25816,8.406,-6.5134,17.0683,1551
25821,-11.2492,-1.3396,10.89,1543
25826,-13.0292,3.8966,3.4273,1548
25831,8.4743,8.4575,8.2768,1533
25836,14.9566,-2.8754,15.099,1545
25841,-12.0093,-1.6017,18.1899,1543
25846,-15.1457,0.5195,5.2253,1531
25851,2.2661,7.5441,3.5422,1547
25856,15.3863,3.2633,15.1888,1530
25861,-5.047,-4.4724,20.5411,1541
25866,-13.0855,-1.7035,6.6056,1558
25871,-5.4552,6.1112,2.4493,1541
25876,13.4722,8.2444,13.6062,1525
25881,7.7249,-6.5122,17.1964,1546
25886,-10.495,-1.5838,10.4998,1544
25891,-13.1023,3.9061,3.6751,1567
25896,9.7624,8.7197,8.3474,1553
25901,13.9019,-3.2166,15.129,1525
25906,-11.9291,-1.4317,17.6285,1529
25911,-15.8771,0.8859,5.1763,1528
25916,2.988,7.3873,3.9851,1530
25921,15.2343,3.2166,14.9602,1527
25926,-5.6288,-4.1144,20.6667,1561
25931,-12.5193,-1.6771,6.6475,1544
25936,-4.9333,6.286,2.4816,1553
25941,13.9726,7.9739,13.8014,1523
25946,6.1603,-6.0944,17.6489,1558
25951,-10.7057,-1.9178,9.9395,1529
25956,-11.8657,4.0809,3.1927,1557
25961,9.5948,8.9076,9.1542,1531
25966,14.1437,-3.3567,14.935,1529
25971,-11.582,-1.5874,17.2394,1555
25976,-15.4809,0.826,5.3187,1551
25981,3.9325,7.5621,3.8199,1542
25986,15.1397,2.6528,15.0643,1545
25991,-7.0785,-3.559,20.8655,1555
25996,-15.6736,-1.5706,6.3925,1529
26001,-3.2441,5.9735,2.5498,1553
26006,13.7954,8.3558,13.8947,1531
26011,6.4153,-6.3339,18.0259,1556
26016,-9.6067,-1.9237,9.6247,1545
26021,-12.1937,4.2677,3.3734,1549
26026,10.9846,8.8526,8.5593,1548
26031,12.864,-3.7026,15.6258,1574
26036,-11.9159,-1.7358,16.3835,1545
26041,-16.6217,1.5359,4.3323,1548
26046,3.6236,7.5765,4.8734,1533
26051,16.1668,2.7485,14.698,1544
26056,-6.8558,-4.1767,21.2689,1565
26061,-12.7491,-1.3719,6.4919,1549
26066,-3.7781,6.5853,2.0542,1547
26071,14.9374,7.6243,13.9929,1531
26076,3.7362,-6.0346,18.658,1547
26081,-12.062,-2.3918,9.1578,1541
26086,-10.1227,4.1276,2.7318,1545
26091,9.5205,9.3972,10.1394,1531
26096,14.4765,-4.0905,15.0703,1519
26101,-11.2695,-1.8028,16.5164,1549
26106,-15.6952,1.336,5.2301,1529
26111,5.114,8.1451,3.9205,1559
26116,15.2092,1.4341,15.2989,1528
26121,-8.6036,-3.3674,20.8703,1565
26126,-15.9071,-1.2713,6.1363,1530
26131,-2.8072,6.189,2.4205,1544
26136,13.9043,7.7596,14.4239,1549
26141,4.7812,-6.4356,18.3911,1543
26146,-9.833,-1.9357,8.9459,1533
26151,-11.6993,4.9273,3.213,1543
26156,11.7076,8.8478,9.7971,1548
26161,12.2799,-4.5586,15.8819,1527
26166,-11.6921,-1.585,15.3636,1565
26171,-16.2363,2.0279,4.537,1543
26176,4.7321,7.9224,4.9476,1553
26181,15.4043,1.251,15.0176,1533
26186,-8.3067,-3.559,20.4166,1557
26191,-13.3142,-0.9218,6.0885,1559
26196,-2.879,7.112,2.4828,1523
26201,14.6226,6.3805,14.8105,1549
26206,2.9221,-6.0741,18.7574,1543
26211,-11.0875,-1.7406,8.4288,1557
26216,-10.0521,5.1368,2.6456,1533
26221,10.7536,8.661,10.7512,1555
26226,13.0245,-4.9297,15.706,1528
26231,-11.4467,-1.3731,14.8608,1558
26236,-15.1888,2.2817,4.525,1529
26241,5.6946,7.8913,4.883,1548
26246,15.2116,0.4465,15.7431,1528
26251,-9.56,-3.0586,20.3782,1571
26256,-16.5128,-0.4453,5.5773,1542
26261,-1.2989,6.7648,2.6276,1527
26266,14.7004,6.596,15.0308,1531
26271,2.8886,-6.4751,19.2314,1547
26276,-10.0987,-1.4605,7.9224,1553
26281,-10.0664,5.4289,2.5774,1545
26286,12.0213,8.4886,10.5417,1558
26291,11.6801,-5.2098,16.6325,1524
26296,-11.9471,-1.6185,13.8373,1541
26301,-14.8249,2.7366,3.5087,1530
26306,5.2122,8.0888,6.0992,1557
26311,16.6361,0.5818,15.1098,1523
26316,-9.5816,-3.5267,20.9301,1545
26321,-14.1342,-0.5195,5.9819,1543
26326,-1.2127,7.252,1.9513,1557
26331,15.2678,6.1818,15.0547,1555
26336,0.1269,-5.6982,20.1807,1546
26341,-13.6541,-2.2757,7.7093,1559
26346,-7.6662,4.8997,2.3415,1527
26351,10.8661,9.4188,11.655,1556
26356,13.1142,-5.551,15.8676,1541
26361,-10.5273,-1.7621,13.9378,1573
26366,-15.3001,2.4253,4.6136,1543
26371,7.2676,8.4144,4.9859,1553
26376,14.9865,-0.3208,15.5779,1530
26381,-10.7607,-2.8132,20.1628,1547
26386,-18.2989,-0.4286,5.4109,1553
26391,-0.5459,6.6104,2.9712,1542
26396,14.9542,6.8833,14.5316,1557
26401,1.5371,-6.3446,19.8826,1549
26406,-9.9467,-2.0339,7.8171,1553
26411,-9.4655,5.4229,2.6911,1543
26416,13.1813,9.0561,11.0145,1549
26421,10.3597,-5.4995,16.4278,1517
26426,-11.3988,-1.9429,13.0903,1561
26431,-15.0739,2.6755,3.5889,1547
26436,6.0274,8.5856,6.7528,1525
26441,16.1094,-0.1089,14.3425,1529
26446,-10.2999,-3.0083,20.5853,1545
26451,-14.4454,-0.7171,5.9903,1526
26456,-0.1401,7.3454,2.4505,1545
26461,15.3385,5.5019,14.7291,1553
26466,-1.3563,-5.3103,20.0814,1527
26471,-13.0388,-2.2063,7.5525,1561
26476,-7.3562,5.0961,2.375,1541
26481,11.57,9.572,12.2224,1553
26486,11.8477,-5.8778,16.04,1531
26491,-10.6434,-1.6137,13.1394,1587
26496,-14.789,2.7126,4.3814,1544
26501,7.9057,8.4922,5.867,1543
26506,14.7806,-1.1301,15.1768,1547
26511,-11.2659,-2.3463,19.7103,1549
26516,-17.4561,0.0108,5.3882,1555
26521,0.3747,6.9121,3.2801,1543
26526,15.2223,5.8275,14.7399,1547
26531,-0.4393,-5.9604,19.994,1545
26536,-10.6518,-1.8136,7.3658,1567
26541,-8.3534,5.8885,2.6145,1541
26546,13.4075,8.6359,11.9542,1531
26551,9.4415,-5.8933,16.8384,1528
26556,-11.2803,-1.731,12.1973,1549
26561,-14.2323,3.2429,3.4884,1531
26566,6.9623,8.6215,7.2149,1527
26571,15.8376,-1.2522,14.7172,1546
26576,-11.0875,-2.4229,19.7761,1549
26581,-14.777,-0.0886,5.7209,1545
26586,0.7554,7.598,2.7497,1532
26591,15.4366,4.5358,15.2211,1563
26596,-2.8311,-5.1894,20.2597,1528
26601,-13.5596,-1.8699,7.0306,1566
26606,-6.4488,5.5234,2.4038,1543
26611,12.305,9.0944,12.8449,1547
26616,10.659,-6.4476,16.5655,1525
26621,-10.568,-1.3803,12.056,1573
26626,-14.224,3.2956,4.0869,1529
26631,8.5952,8.5677,6.6427,1547
26636,14.6094,-2.0806,15.3708,1548
26641,-11.9004,-1.9776,19.1309,1547
26646,-17.1592,0.401,5.0889,1547
26651,1.3204,7.2185,3.5422,1545
26656,15.36,4.8028,14.856,1558
26661,-2.4313,-5.4648,20.5171,1544
26666,-11.1809,-1.6855,6.9599,1553
26671,-7.0641,6.2249,2.4253,1547
26676,13.7379,8.3917,12.7204,1546
26681,8.2013,-6.1172,17.1916,1553
26686,-11.2396,-1.8914,11.2001,1547
26691,-12.9287,3.6081,3.2322,1560
26696,7.8195,8.8226,8.0613,1545
26701,15.5204,-2.1261,14.7363,1531
26706,-11.3437,-2.247,18.9621,1587
26711,-15.3049,0.2777,5.6407,1555
26716,2.1799,7.7381,2.9521,1529
26721,15.3229,3.7948,15.2175,1553
26726,-4.7285,-4.6783,20.6392,1545
26731,-14.2766,-1.8699,6.7493,1598
26736,-5.1427,5.6946,2.326,1524
26741,12.8329,8.8813,13.4039,1545
26746,8.8909,-6.5446,16.9797,1553
26751,-10.1335,-1.7406,11.0073,1560
26756,-13.5907,3.796,3.8164,1560
26761,9.8294,8.7364,7.6447,1545
26766,13.8672,-2.9197,15.3456,1533
26771,-11.9542,-1.81,17.9445,1549
26776,-17.0491,0.9074,4.9752,1543
26781,2.3798,7.4412,3.9181,1544
26786,15.4067,3.8439,14.868,1548
26791,-4.4556,-4.9129,20.6931,1533
26796,-11.9327,-1.6484,6.7181,1541
26801,-5.8263,6.511,2.3679,1545
26806,14.1785,7.9476,13.4901,1543
26811,6.6319,-6.3506,17.6381,1550
26816,-10.9427,-1.8735,10.1538,1527
26821,-12.4235,4.0953,3.1556,1563
26826,9.0225,9.0489,8.9112,1541
26831,14.68,-3.1927,14.9099,1527
26836,-11.8214,-1.7992,17.8488,1549
26841,-15.3792,0.8188,5.3283,1545
26846,3.2753,7.7931,3.6344,1528
26851,15.2738,2.7174,15.1625,1525
26856,-6.4368,-4.1073,20.7936,1559
26861,-14.2826,-1.5227,6.4153,1533
26866,-4.203,6.1842,2.4277,1529
26871,13.5991,8.2552,14.0001,1544
26876,6.9276,-6.669,17.6644,1525
26881,-10.1562,-1.6305,9.833,1545
26886,-12.475,4.4089,3.5027,1567
26891,10.3118,8.7424,8.6407,1533
26896,13.4997,-3.796,15.5264,1543
26901,-12.0895,-1.5969,16.7822,1542
26906,-16.5559,1.5622,4.6029,1543
26911,3.4692,7.5956,4.5394,1527
26916,15.7957,2.575,15.0428,1529
26921,-6.5936,-4.3275,20.8391,1561
26926,-12.6976,-1.2941,6.3039,1555
26931,-4.1922,6.778,2.2637,1557
26936,14.5196,7.428,14.1785,1529
26941,4.7681,-6.3207,18.2714,1545
26946,-11.6107,-1.9333,9.2129,1533
26951,-10.635,4.4796,2.7952,1586
26956,9.6618,9.1662,9.9994,1523
26961,14.5951,-4.2018,15.1433,1528
26966,-11.8118,-1.5981,16.5667,1549
26971,-15.4797,1.3467,5.0769,1547
26976,4.6112,8.0158,3.9923,1560
26981,15.5108,1.6484,15.4055,1529
26986,-8.2636,-3.5566,20.8092,1554
26991,-16.277,-1.1636,6.0442,1555
26996,-2.624,6.2165,2.5893,1517
27001,14.1904,8.011,14.2551,1545
27006,5.2421,-6.7995,18.3623,1561
27011,-9.8653,-1.8292,9.0261,1553
27016,-11.6478,4.6795,3.2106,1532
27021,11.7795,9.0716,9.566,1533
27026,12.3098,-4.64,15.6665,1527
27031,-11.8788,-1.6424,15.4881,1533
27036,-16.5643,1.8962,4.3467,1525
27041,4.5466,7.9739,5.2481,1557
27046,15.6916,1.6628,14.534,1533
27051,-8.1894,-3.6332,20.972,1557
27056,-13.2866,-1.2881,6.2979,1547
27061,-2.9245,6.9623,2.332,1541
27066,15.0799,6.936,14.3173,1553
27071,2.5534,-6.0525,18.8711,1547
27076,-11.0624,-2.1727,8.5162,1545
27081,-10.3501,4.7956,2.7725,1528
27086,10.8828,9.4188,10.7919,1501
27091,12.9562,-4.8267,15.2882,1533
27096,-11.5915,-1.5071,15.1996,1561
27101,-15.2283,1.9453,4.8028,1529
27106,5.7712,8.1235,5.0135,1555
27111,15.178,0.5962,15.0284,1545
27116,-9.6953,-2.9987,20.6548,1565
27121,-15.6282,-0.7673,5.8993,1541
27126,-1.5383,6.6679,2.7378,1547
27131,14.6705,6.942,14.7411,1530
27136,2.7258,-6.3997,19.1249,1547
27141,-10.3334,-1.719,8.0756,1548
27146,-9.979,5.2996,2.7126,1545
27151,11.807,8.764,10.72,1549
27156,11.9028,-5.1571,16.1226,1532
27161,-12.0201,-1.5335,14.1186,1561
27166,-14.7219,2.7102,3.7409,1527
27171,5.375,8.0182,6.092,1561
27176,16.7079,0.4489,14.8345,1529
27181,-9.9838,-3.3232,20.9732,1566
27186,-14.133,-0.5088,5.8778,1549
27191,-1.2294,7.1335,2.1512,1531
27196,15.2966,6.2572,15.1541,1544
27201,0.1736,-5.7952,19.818,1533
27206,-14.7399,-2.2865,7.7919,1559
27211,-6.9468,5.1595,2.3894,1545
27216,11.2767,9.5744,11.8345,1570
27221,13.3297,-5.9807,15.9669,1525
27226,-11.1079,-1.391,13.8469,1559
27231,-14.9973,2.3858,4.3455,1547
27236,6.8426,8.2169,4.8483,1566
27241,15.1828,-0.1221,15.688,1525
27246,-11.7316,-2.6779,19.9605,1548
27251,-16.6241,-0.0994,5.0925,1551
27256,0.1173,6.5553,3.4692,1514
27261,15.5863,6.8283,14.3473,1546
27266,0.8308,-7.088,20.2526,1525
27271,-10.4591,-1.4509,7.4136,1560
27276,-9.0142,5.2337,2.5127,1479
27281,12.7755,9.1518,10.9798,1553
27286,10.2484,-5.7042,16.6217,1529
27291,-12.0524,-2.0686,13.2064,1567
27296,-14.2371,2.9161,3.474,1503
27301,6.3135,8.6826,7.2365,1553
27306,16.2901,-0.577,14.1521,1501
27311,-10.6183,-2.9161,20.5411,1550
27316,-14.5065,-0.4154,5.9388,1548
27321,-0.1149,7.4986,2.4972,1532
27326,15.5288,5.272,14.8919,1550
27331,-1.7226,-5.4372,20.1688,1543
27336,-13.0843,-2.1045,7.4065,1564
27341,-7.2724,5.1978,2.3679,1548
27346,11.8812,9.6067,12.4594,1499
27351,11.4958,-6.1363,16.0208,1533
27356,-10.7332,-1.5742,12.8066,1563
27361,-14.5184,2.8706,4.288,1541
27366,8.1056,8.7364,6.3363,1549
27371,14.7004,-1.482,14.9769,1527
27376,-11.4886,-2.2984,19.4816,1553
27381,-17.1916,0.0455,5.3163,1551
27386,0.7063,7.0545,3.4584,1544
27391,15.1828,5.4492,14.5388,1563
27396,-1.1935,-5.861,20.2071,1545
27401,-10.8984,-1.8292,7.1778,1567
27406,-7.9703,5.9723,2.6085,1531
27411,13.5632,8.758,12.3325,1541
27416,9.0633,-6.1471,16.7486,1531
27421,-11.2228,-1.7681,11.9447,1543
27426,-14.0396,3.3495,3.5171,1545
27431,7.5848,8.8969,7.592,1549
27436,15.2187,-1.7992,14.5065,1543
27441,-11.2444,-2.2158,19.3691,1545
27446,-14.9255,-0.0503,5.7018,1544
27451,1.1779,7.7297,3.1256,1543
27456,15.2415,3.9768,14.8644,1557
27461,-3.2753,-4.8961,20.2418,1553
27466,-12.3804,-1.9513,7.0162,1566
27471,-6.7457,5.8634,2.4361,1533
27476,13.0771,8.9112,13.1992,1527
27481,8.9495,-6.4799,16.5715,1529
27486,-10.963,-1.5,11.6119,1541
27491,-13.6673,3.535,3.9744,1547
27496,8.8813,8.7376,7.7345,1541
27501,14.2922,-2.5067,14.7818,1533
27506,-11.746,-1.7633,18.5874,1549
27511,-15.4941,0.3675,5.4133,1542
27516,2.0123,7.507,3.5243,1528
27521,15.0523,3.7996,14.8237,1545
27526,-4.0007,-4.7896,20.2633,1543
27531,-12.0931,-1.7154,6.8307,1545
27536,-6.195,6.2369,2.5355,1523
27541,13.5919,8.254,13.3752,1543
27546,7.7668,-6.2596,17.0168,1544
27551,-10.7763,-1.6819,10.8685,1553
27556,-13.0807,3.9444,3.5817,1546
27561,9.3122,8.7544,8.4958,1545
27566,14.2036,-2.9509,14.7363,1543
27571,-11.91,-1.6077,18.069,1549
27576,-15.3684,0.6321,5.375,1551
27581,2.8563,7.5298,3.6966,1519
27586,15.0978,3.1915,14.9901,1533
27591,-5.3714,-4.3084,20.4788,1545
27596,-13.2196,-1.6233,6.6475,1547
27601,-4.8231,6.1854,2.4505,1533
27606,13.635,8.2121,13.7882,1525
27611,7.0437,-6.3817,17.3472,1557
27616,-10.4399,-1.6723,10.2137,1545
27621,-12.5995,4.2258,3.4884,1559
27626,10.0137,8.7065,8.6706,1545
27631,13.5679,-3.4632,15.2068,1548
27636,-12.0345,-1.5263,17.2191,1549
27641,-16.3428,1.2905,4.8363,1553
27646,3.3459,7.4831,4.2868,1548
27651,15.5671,2.6995,15.0081,1543
27656,-5.9771,-4.2653,20.6644,1544
27661,-12.6258,-1.3372,6.5098,1553
27666,-4.6902,6.6762,2.2134,1557
27671,14.6405,7.452,14.1521,1527
27676,5.12,-6.3865,17.9781,1547
27681,-11.23,-1.8028,9.511,1541
27686,-11.4275,4.4113,2.8659,1557
27691,9.7001,8.8717,9.6139,1544
27696,14.0396,-3.9744,15.2666,1528
27701,-11.6634,-1.4533,16.7259,1547
27706,-15.4665,1.3408,5.0853,1545
27711,4.4209,7.9224,4.0282,1549
27716,15.3277,1.6436,15.4019,1544
27721,-7.7428,-3.565,20.4501,1555
27726,-14.9578,-1.2282,6.2716,1531
27731,-3.1651,6.3279,2.4457,1557
27736,14.1629,7.6375,14.5053,1541
27741,4.9763,-6.5505,18.1612,1562
27746,-10.1394,-1.7897,9.1435,1553
27751,-11.631,4.792,3.1699,1561
27756,11.485,8.8011,9.6618,1547
27761,12.4391,-4.5083,15.6868,1543
27766,-11.7687,-1.5479,15.5934,1547
27771,-16.2435,1.9728,4.4903,1529
27776,4.689,7.8326,4.9967,1557
27781,15.5803,1.476,14.9243,1531
27786,-8.1846,-3.5578,20.7015,1559
27791,-13.465,-1.1121,6.2908,1548
27796,-2.8515,6.9552,2.2853,1564
27801,14.953,6.7516,14.7184,1529
27806,2.6085,-6.0992,18.7646,1544
27811,-11.3593,-2.0099,8.497,1549
27816,-9.9766,4.8722,2.6743,1533
27821,10.896,9.1051,10.8793,1543
27826,12.9191,-4.9237,15.4234,1523
27831,-11.4718,-1.4688,15.0631,1555
27836,-15.3205,2.0698,4.7166,1529
27841,6.0406,8.1343,4.9129,1557
27846,15.0452,0.3184,15.3732,1529
27851,-9.7061,-2.9209,20.4106,1560
27856,-15.7862,-0.5986,5.8718,1541
27861,-1.4126,6.7253,2.5402,1530
27866,14.5951,6.6367,15.0093,1531
27871,2.375,-6.2608,18.9788,1549
27876,-10.4902,-1.7119,8.1092,1549
27881,-10.0832,5.5031,2.6947,1540
27886,12.2811,8.6706,11.0157,1547
27891,11.4335,-5.43,16.1142,1524
27896,-11.6574,-1.4449,13.9378,1567
27901,-15.378,2.8335,3.9875,1528
27906,5.964,8.0996,5.8466,1560
27911,15.5467,-0.0814,15.2523,1543
27916,-9.7731,-2.8335,20.0862,1565
27921,-14.1521,-0.3867,5.8035,1532
27926,-1.1001,7.3502,2.3786,1528
27931,15.1649,5.4911,15.445,1541
27936,0.1856,-5.7628,19.3176,1553
27941,-12.3445,-1.7502,7.6543,1555
27946,-8.023,5.5115,2.3655,1526
27951,11.5843,8.7305,11.9375,1553
27956,11.9363,-5.8095,16.3273,1533
27961,-10.9212,-1.2701,13.3453,1566
27966,-14.771,2.8623,4.2018,1530
27971,7.2532,8.0565,5.5593,1555
27976,15.0895,-0.9804,15.8077,1532
27981,-11.0349,-2.4588,19.4876,1543
27986,-17.3651,0.1077,5.2337,1546
27991,0.1377,6.7253,3.1963,1531
27996,15.5491,5.9807,14.9793,1553
28001,-0.1065,-6.347,20.1436,1533
28006,-10.6386,-1.6688,7.3753,1564
28011,-8.5485,5.6491,2.3894,1545
28016,13.3848,8.8262,11.6215,1557
28021,9.6067,-5.8586,16.8408,1543
28026,-11.8501,-1.9321,12.4762,1575
28031,-13.714,3.0837,3.3243,1529
28036,6.6882,8.5832,7.2963,1544
28041,16.2435,-0.9361,14.4586,1530
28046,-10.8469,-2.7234,20.1065,1559
28051,-14.8836,-0.2155,5.8873,1557
28056,0.8655,7.4591,2.3415,1543
28061,15.5539,4.9105,15.2331,1558
28066,-3.0406,-4.9787,20.4489,1540
28071,-14.3676,-2.1261,7.1754,1567
28076,-6.1495,5.2708,2.2206,1523
28081,12.3098,9.4044,12.7791,1545
28086,10.7799,-6.1687,16.3727,1531
28091,-10.1466,-1.7873,12.2284,1555
28096,-14.4191,3.2334,4.1276,1543
28101,9.0106,8.5305,6.3566,1542
28106,14.3628,-1.8507,15.5049,1550
28111,-11.7914,-2.0913,18.8675,1533
28116,-18.1337,0.6225,4.9584,1555
28121,1.2797,7.1168,3.5841,1529
28126,15.9657,5.2816,14.85,1555
28131,-2.1476,-5.7138,20.6991,1532
28136,-11.0768,-1.5897,7.0294,1562
28141,-7.1742,6.2465,2.2003,1529
28146,14.0755,8.3474,12.4475,1545
28151,7.8949,-6.1627,17.4501,1547
28156,-11.9064,-1.9369,11.3042,1543
28161,-12.6546,3.5721,3.0347,1571
28166,7.4831,8.7963,8.0816,1529
28171,16.0735,-2.1691,14.8572,1553
28176,-11.3497,-2.2757,19.1776,1533
28181,-15.1278,0.3508,5.5976,1546
28186,1.9812,7.7333,2.6719,1545
28191,15.6796,3.735,15.4893,1561
28196,-4.707,-4.7441,20.5159,1531
28201,-15.0535,-1.7873,6.7912,1555
28206,-5.2445,5.6719,2.2589,1528
28211,12.985,8.9136,13.4973,1533
28216,9.1028,-6.6068,16.9677,1523
28221,-10.1789,-1.7286,11.2934,1557
28226,-13.9031,3.8283,3.8762,1557
28231,10.1694,8.8143,7.3969,1545
28236,13.5416,-3.0538,15.3995,1555
28241,-11.8166,-1.9656,17.9134,1546
28246,-16.7869,0.7781,5.187,1547
28251,2.405,7.58,3.7266,1573
28256,14.9662,3.5171,14.929,1547
28261,-4.4915,-4.7166,20.1855,1532
28266,-11.9578,-1.7298,6.8702,1549
28271,-5.9771,6.6535,2.5103,1531
28276,14.2275,7.7692,13.562,1527
28281,6.4296,-6.1423,17.3855,1547
28286,-10.6147,-1.7729,10.4387,1547
28291,-13.1095,4.3191,3.5087,1547
28296,10.0054,8.7065,8.6251,1529
28301,13.5655,-3.4596,15.0069,1551
28306,-12.0895,-1.5275,17.407,1544
28311,-15.3145,1.1313,5.1655,1531
28316,3.316,7.6016,4.0103,1544
28321,15.0667,2.3978,15.2044,1527
28326,-5.8442,-4.0318,20.0694,1545
28331,-12.6474,-1.2845,6.5553,1471
28336,-4.622,6.8115,2.3499,1543
28341,14.4454,7.3646,14.2539,1527
28346,5.5414,-6.3111,17.4753,1558
28351,-10.92,-1.6544,9.8545,1546
28356,-11.9076,4.7058,3.2214,1557
28361,10.2795,8.4671,9.3601,1533
28366,13.4135,-3.8511,15.3744,1528
28371,-11.7531,-1.415,16.4673,1543
28376,-15.6341,1.5969,4.9321,1529
28381,4.4736,7.5369,4.1779,1543
28386,15.36,1.9034,15.5192,1541
28391,-7.5501,-3.5913,20.4297,1561
28396,-14.4861,-1.0858,6.2572,1551
28401,-3.0765,6.5613,2.2972,1547
28406,14.4095,7.3574,14.6178,1533
28411,4.5358,-6.5206,18.2546,1553
28416,-10.5285,-1.5359,9.0537,1541
28421,-11.2276,5.0386,2.958,1560
28426,11.0349,8.4455,9.6857,1533
28431,12.6869,-4.5909,16.0316,1548
28436,-12.1194,-1.3827,15.3756,1544
28441,-15.5946,2.3607,4.1276,1565
28446,4.5023,7.6531,5.1523,1551
28451,16.3895,1.2989,15.3504,1485
28456,-8.3187,-3.8726,20.729,1565
28461,-13.3357,-0.6668,6.0334,1544
28466,-2.873,7.0497,2.0913,1583
28471,15.3516,6.4751,14.9458,1543
28476,2.1859,-6.2465,18.8986,1549
28481,-12.9969,-1.8962,8.4671,1531
28486,-8.9759,4.9309,2.4205,1530
28491,10.4878,9.0046,10.9654,1531
28496,13.7738,-5.1499,15.706,1527
28501,-11.4479,-1.4497,15.1326,1556
28506,-15.3528,2.1296,4.5885,1542
28511,6.2369,8.0529,4.4508,1558
28516,15.4187,0.1987,15.7527,1525
28521,-10.0712,-2.9784,20.2573,1565
28526,-17.5639,-0.4848,5.6491,1527
28531,-1.2127,6.5242,2.7892,1533
28536,14.9877,7.0366,14.8441,1543
28541,2.6157,-6.6583,19.0578,1529
28546,-10.319,-1.7633,8.1475,1533
28551,-10.3513,5.4169,2.8551,1549
28556,13.0005,8.7891,10.6997,1544
28561,10.811,-5.4863,16.271,1527
28566,-11.6681,-1.5706,13.9785,1564
28571,-15.7622,2.7019,4.057,1532
28576,6.1316,8.2133,5.9879,1566
28581,15.4187,-0.1425,14.8991,1525
28586,-9.7432,-2.7713,19.976,1567
28591,-14.0779,-0.5447,6.0118,1545
28596,-1.0283,7.3682,2.5031,1533
28601,15.3157,5.3989,15.1697,1545
28606,-0.2239,-5.533,19.3152,1531
28611,-11.5125,-1.9261,7.7955,1567
28616,-8.7951,5.6491,2.4995,1529
28621,12.3924,8.855,12.1302,1555
28626,10.8972,-5.8466,15.955,1541
28631,-11.4503,-1.3204,13.2842,1531
28636,-14.5879,3.0131,4.294,1558
28641,7.3346,8.1175,6.2034,1555
28646,14.8979,-1.0606,15.293,1533
28651,-10.8386,-2.2781,19.5235,1556
28656,-15.761,-0.0359,5.6024,1553
28661,0.3148,7.0485,2.885,1541
28666,15.19,5.3139,15.2702,1533
28671,-0.8559,-5.7054,19.6133,1531
28676,-11.2001,-1.731,7.3789,1561
28681,-8.3378,5.934,2.4361,1524
28686,13.2208,8.4623,12.3469,1557
28691,9.5672,-6.0142,16.6074,1527
28696,-11.3282,-1.5239,12.3086,1560
28701,-14.0372,3.3172,3.6021,1541
28706,7.4579,8.3833,7.1958,1549
28711,15.3612,-1.5574,14.9913,1531
28716,-11.1031,-2.2613,19.2949,1547
28721,-14.9458,-0.0132,5.7138,1549
28726,0.9433,7.4148,2.7114,1542
28731,15.4941,4.458,15.3947,1547
28736,-3.0969,-5.0374,20.0251,1553
28741,-12.9083,-1.9058,7.0725,1544
28746,-6.6487,5.709,2.3248,1529
28751,12.9311,8.8969,13.1466,1551
28756,9.4152,-6.3219,16.508,1518
28761,-10.6255,-1.6185,11.7759,1547
28766,-14.2192,3.4728,3.9911,1528
28771,9.2261,8.6419,7.2748,1547
28776,14.1653,-2.4912,15.1337,1555
28781,-11.7555,-1.8172,18.5144,1553
28786,-15.9993,0.4776,5.4324,1517
28791,1.8208,7.3526,3.2777,1533
28796,15.2942,4.0498,15.3037,1566
28801,-3.6404,-4.798,20.1185,1558
28806,-11.8573,-1.6508,6.8929,1557
28811,-6.5434,6.4189,2.3128,1533
28816,13.8026,8.023,13.4039,1545
28821,7.7596,-6.2094,17.0455,1525
28826,-10.9702,-1.5742,10.9044,1533
28831,-13.198,4.1156,3.4093,1555
28836,8.8837,8.406,8.1175,1540
28841,14.7124,-2.8431,15.2582,1533
28846,-11.7388,-1.5467,18.0463,1553
28851,-15.275,0.7949,5.2457,1545
28856,2.5235,7.355,3.3184,1471
28861,15.682,3.4069,15.7886,1561
28866,-5.3654,-4.3946,20.3256,1543
28871,-15.3528,-1.5024,6.5553,1561
28876,-4.1647,5.928,2.3583,1571
28881,13.8924,8.6802,13.7822,1543
28886,8.0565,-6.8809,17.4585,1547
28891,-10.0556,-1.5263,10.4052,1543
28896,-12.8688,3.9133,3.541,1551
28901,10.1514,8.5688,7.7141,1549
28906,13.6003,-3.2154,15.7143,1546
28911,-13.1334,-1.8627,17.1808,1549
28916,-15.3863,1.4593,4.3443,1544
28921,3.1867,7.1012,4.7597,1544
28926,16.7103,3.7266,14.4047,1544
28931,-6.2189,-5.0769,21.5921,1530
28936,-12.4056,-1.3276,6.5469,1547
28941,-4.7477,6.1555,1.9597,1547
28946,14.6573,8.4204,13.538,1549
28951,4.9165,-6.049,18.2522,1559
28956,-13.3429,-2.7426,9.9144,1553
28961,-10.2077,4.0378,2.788,1550
28966,9.4056,9.5253,9.9204,1547
28971,15.2259,-3.6811,14.467,1533
28976,-11.7412,-1.9585,17.5794,1558
28981,-15.9957,1.0379,5.3259,1547
28986,4.4017,8.0002,3.201,1532
28991,15.4306,2.241,15.3205,1543
28996,-7.7141,-3.7254,20.8547,1545
29001,-15.8137,-1.4688,6.4009,1543
29006,-3.5494,6.2106,2.3056,1554
29011,13.7978,8.1367,14.3975,1543
29016,5.9185,-6.4931,17.8057,1557
29021,-9.9814,-1.907,9.5948,1533
29026,-12.4343,4.9093,3.3016,1554
29031,11.5293,8.7819,9.1171,1543
29036,12.5061,-4.2964,15.7012,1544
29041,-11.8657,-1.6424,16.0483,1531
29046,-16.4877,1.8435,4.6855,1547
29051,4.3096,7.9667,4.5394,1532
29056,15.3301,1.6712,15.1361,1525
29061,-7.1311,-3.8894,20.1233,1561
29066,-12.9047,-1.075,6.3698,1555
29071,-3.6691,7.1658,2.4469,1553
29076,14.7447,6.6176,14.5436,1543
29081,3.5458,-6.2046,18.2067,1559
29086,-10.993,-1.9632,9.0644,1531
29091,-10.8026,4.9608,2.891,1560
29096,11.1211,8.7831,10.3106,1545
29101,12.5612,-4.6866,15.3863,1527
29106,-11.6179,-1.5646,15.6856,1553
29111,-15.3289,1.7777,4.9847,1541
29116,5.6479,7.78,4.8207,1546
29121,14.7674,0.9242,14.9745,1543
29126,-8.6706,-3.0849,20.2358,1553
29131,-15.3373,-1.2234,6.3087,1553
29136,-1.8076,6.5661,2.6923,1545
29141,14.6393,7.1611,14.4035,1530
29146,2.6384,-6.0071,18.7107,1557
29151,-10.1837,-2.3894,8.7305,1542
29156,-10.6075,4.9213,3.0394,1549
29161,12.6905,9.3829,10.8314,1549
29166,10.9559,-4.9823,15.3612,1533
29171,-11.5424,-1.8399,14.5448,1557
29176,-15.6569,1.9644,4.5179,1543
29181,6.262,8.4683,6.0549,1549
29186,14.9829,0.3615,14.0037,1527
29191,-9.6534,-2.7473,20.638,1573
29196,-14.1797,-1.0965,6.3698,1529
29201,-1.1229,7.1862,2.4684,1541
29206,15.1924,6.1519,14.4933,1573
29211,0.1101,-5.3091,19.3631,1545
29216,-10.8445,-2.3535,8.0565,1533
29221,-9.5433,5.3474,2.6264,1551
29226,12.469,9.2955,11.8405,1541
29231,10.7763,-5.3223,15.5671,1517
29236,-11.1618,-1.7262,13.6565,1567
29241,-15.1146,2.733,4.4939,1541
29246,7.3933,8.2325,5.9185,1551
29251,14.6513,-0.5878,14.9853,1544
29256,-10.5297,-2.4169,19.8396,1570
29261,-15.0847,-0.3089,5.8885,1544
29266,-0.1041,7.1491,2.575,1526
29271,15.1421,5.5246,15.4606,1545
29276,-0.51,-5.5031,19.417,1547
29281,-11.1905,-1.8747,7.6076,1557
29286,-8.3845,5.9173,2.3739,1528
29291,12.706,8.5114,12.1171,1545
29296,10.1658,-5.7281,16.4721,1528
29301,-10.981,-1.5814,12.7491,1565
29306,-14.5747,3.4093,3.9073,1531
29311,7.4196,8.0553,6.3518,1553
29316,15.0116,-1.1073,15.627,1531
29321,-10.5752,-2.4337,19.2051,1555
29326,-14.9805,0.1137,5.7006,1545
29331,0.3484,7.3586,2.575,1533
29336,15.2834,4.8028,15.7155,1563
29341,-1.8842,-5.4743,19.4277,1531
29346,-12.7647,-1.6269,7.3765,1563
29351,-7.2353,6.0597,2.4062,1543
29356,12.815,8.43,12.6115,1557
29361,9.7145,-6.1962,16.745,1525
29366,-10.6135,-1.5191,12.3313,1556
29371,-14.4179,3.5566,4.0701,1527
29376,8.7867,8.3677,6.4751,1547
29381,13.9103,-2.0889,15.6078,1532
29386,-11.1247,-2.3822,18.4653,1553
29391,-16.3739,0.3843,5.4384,1555
29396,1.2965,7.4196,3.2968,1546
29401,15.0356,4.4041,15.0715,1546
29406,-2.7689,-5.1667,19.8731,1544
29411,-11.3569,-2.0411,7.3634,1560
29416,-7.258,6.3351,2.405,1526
29421,14.2599,8.5688,12.949,1547
29426,7.0785,-5.861,16.9007,1543
29431,-10.4076,-2.569,11.4431,1544
29436,-13.5236,3.4058,3.8523,1547
29441,9.6139,9.2021,8.2313,1549
29446,13.4171,-2.3367,14.1785,1540
29451,-10.9451,-2.3667,18.3228,1549
29456,-15.5994,-0.0467,5.9915,1545
29461,3.1556,7.7165,3.3016,1544
29466,14.3712,3.6356,14.4143,1555
29471,-4.8626,-3.8487,20.3974,1545
29476,-13.0891,-2.4122,7.3406,1543
29481,-5.6024,6.2596,2.3739,1528
29486,14.0073,8.7029,13.459,1526
29491,6.7947,-5.5653,16.8959,1528
29496,-9.6618,-2.5917,10.8888,1548
29501,-13.6733,4.0318,3.8343,1541
29506,10.6267,8.916,8.2133,1547
29511,12.9012,-2.7521,14.8441,1557
29516,-11.5065,-2.0183,17.5974,1544
29521,-16.6122,0.7554,5.2864,1549
29526,3.237,7.6495,3.7828,1532
29531,15.2726,3.5039,14.9422,1561
29536,-5.2505,-4.3539,20.7063,1531
29541,-12.3373,-1.7035,6.8259,1469
29546,-5.1858,6.7217,1.9884,1519
29551,14.5998,7.9823,13.9031,1531
29556,5.6084,-6.1699,17.7853,1547
29561,-11.2468,-2.2051,9.9467,1557
29566,-11.5305,4.2593,2.9568,1547
29571,9.4978,8.855,9.0537,1531
29576,14.3963,-3.3902,15.3133,1533
29581,-11.2659,-2.0351,17.3173,1531
29586,-15.7215,1.2067,5.2912,1543
29591,4.0558,7.8745,3.2118,1544
29596,15.463,2.4517,15.8448,1547
29601,-6.9994,-4.1204,20.4824,1543
29606,-16.0088,-1.3192,6.3973,1531
29611,-3.7385,6.4967,2.2829,1530
29616,14.1246,8.0816,14.2838,1523
29621,6.2477,-6.5553,18.0212,1559
29626,-9.7504,-1.8603,9.7755,1558
29631,-12.7264,4.8076,3.237,1555
29636,11.3042,8.521,8.4839,1544
29641,12.633,-3.9037,16.1333,1545
29646,-11.7531,-2.0123,16.204,1547
29651,-16.6696,1.7538,4.5047,1549
29656,3.6655,7.7201,4.4544,1530
29661,16.0412,2.4756,15.2882,1533
29666,-6.675,-4.4951,20.5782,1547
29671,-12.7156,-1.2186,6.511,1532
29676,-4.0821,7.0294,2.0063,1541
29681,15.2403,7.2173,14.4155,1533
29686,3.6284,-6.1483,18.4258,1557
29691,-11.5317,-2.2505,9.1554,1531
29696,-10.6913,4.5526,2.7138,1557
29701,10.1454,8.9938,10.0365,1533
29706,13.6924,-4.1468,15.3337,1525
29711,-11.3772,-2.0363,16.1944,1543
29716,-15.8053,1.5658,5.114,1541
29721,5.2948,8.0721,3.9947,1530
29726,15.1302,1.2139,15.5252,1533
29731,-8.4204,-3.6164,20.3363,1553
29736,-14.9901,-1.2222,6.2692,1544
29741,-2.8359,6.7876,2.3284,1547
29746,14.4598,7.355,14.7483,1516
29751,3.8188,-6.2944,18.263,1547
29756,-10.1538,-2.1751,8.9376,1543
29761,-11.5245,5.187,3.1077,1553
29766,12.0081,8.7616,10.1023,1533
29771,11.7735,-4.5753,15.7323,1541
29776,-11.4036,-1.8172,15.1517,1550
29781,-15.8807,2.0315,4.7046,1542
29786,5.4899,8.0517,4.8794,1544
29791,15.1014,1.1372,15.1469,1543
29796,-8.5665,-3.3686,20.3747,1547
29801,-13.6338,-0.9828,6.28,1545
29806,-2.3727,7.1299,2.1272,1557
29811,14.8895,6.5817,14.9877,1531
29816,1.9285,-5.8622,18.7538,1557
29821,-11.2946,-2.1117,8.4396,1543
29826,-9.8186,5.278,2.5989,1563
29831,11.5089,8.8011,10.9894,1531
29836,12.202,-4.9261,15.8077,1531
29841,-11.1737,-1.6879,14.7255,1544
29846,-15.6329,2.3655,4.6831,1531
29851,6.4033,7.9883,4.6759,1549
29856,14.9398,0.1987,15.6868,1529
29861,-9.6019,-3.0682,19.988,1559
29866,-15.6473,-0.565,5.9328,1544
29871,-1.482,7.0258,2.4648,1543
29876,14.8632,6.4739,15.1302,1541
29881,1.6855,-6.0154,19.0459,1559
29886,-10.3382,-2.0087,8.1906,1531
29891,-10.2005,5.697,2.6193,1555
29896,12.8162,8.8095,11.0696,1527
29901,10.7141,-5.2481,16.1034,1531
29906,-11.3665,-1.9537,13.8145,1565
29911,-15.1194,2.5965,4.2389,1543
29916,6.377,8.1894,5.782,1557
29921,15.1397,-0.0371,15.05,1527
29926,-9.5241,-3.1639,20.0826,1549
29931,-14.3341,-0.6177,6.1902,1549
29936,-0.7578,7.4089,2.1835,1531
29941,15.4067,5.703,15.2966,1545
29946,-0.2263,-5.527,19.18,1530
29951,-12.1673,-2.144,7.8985,1533
29956,-8.5904,5.5964,2.4217,1533
29961,12.1637,8.7137,11.813,1542
29966,10.9906,-5.2206,16.0878,1517
29971,-10.5297,-1.9321,13.5141,1560
29976,-15.3827,2.9401,4.4149,1530
29981,7.8901,8.1714,5.5785,1559
29986,14.6681,-0.8212,15.5743,1547
29991,-10.7571,-2.5115,19.4625,1557
29996,-16.9102,-0.0611,5.6563,1545
30001,-0.1161,7.1335,2.7533,1542
30006,15.3373,5.7485,15.2978,1541
30011,-0.2382,-5.709,19.7881,1531
30016,-10.6829,-1.8603,7.5992,1544
30021,-8.8035,6.0334,2.3044,1541
30026,13.7463,8.6095,12.0476,1557
30031,9.4463,-5.9041,16.6553,1533
30036,-11.4622,-1.8639,12.5073,1573
30041,-14.2994,3.1244,3.6727,1526
30046,7.0066,8.2768,6.7708,1559
30051,15.5264,-0.9385,15.1589,1543
30056,-10.4579,-2.8192,19.6803,1565
30061,-15.0308,-0.1257,5.8562,1543
30066,0.759,7.4699,2.2757,1533
30071,15.7119,4.8961,15.5408,1528
30076,-2.5798,-5.2265,19.836,1545
30081,-13.3896,-1.9764,7.2676,1554
30086,-7.1216,5.7162,2.3511,1531
30091,12.7132,8.8226,12.6701,1546
30096,10.0712,-5.7748,16.6026,1533
30101,-10.1047,-2.0614,12.2703,1561
30106,-14.874,3.3627,4.1192,1528
30111,9.1602,8.5066,6.3614,1555
30116,14.2024,-1.8423,15.3804,1544
30121,-11.5412,-2.2517,18.8328,1557
30126,-17.2802,0.2765,5.4324,1549
30131,1.0403,7.2676,3.1747,1533
30136,15.5527,5.0063,15.1158,1555
30141,-2.2075,-5.205,20.2909,1545
30146,-11.0528,-2.0195,7.2628,1575
30151,-7.5465,6.1986,2.1919,1543
30156,14.4729,8.6239,12.8473,1547
30161,7.8422,-5.9747,16.9222,1541
30166,-11.0576,-2.1799,11.5221,1563
30171,-13.4853,3.4129,3.4453,1541
30176,8.1786,8.503,7.501,1531
30181,14.9961,-1.725,14.8991,1533
30186,-10.9475,-2.5079,18.9705,1549
30191,-15.5898,0.2526,5.7616,1559
30196,2.2446,7.5884,2.7054,1533
30201,15.6198,3.9863,15.5815,1546
30206,-4.3981,-4.5669,20.1795,1547
30211,-14.0049,-1.8375,7.0078,1555
30216,-5.9101,6.0621,2.2302,1531
30221,10.6458,8.9591,10.2316,1562
30226,8.57,-5.9675,16.9785,1532
30231,-11.0768,-2.0004,15.8233,1562
30236,-14.1701,4.0151,3.7936,1565
30241,5.9233,7.9523,4.1372,1543
30246,13.7008,-2.6695,15.4665,1529
30251,-8.9543,-3.1831,20.3794,1529
30256,-17.261,0.8356,5.0901,1563
30261,-2.2027,6.7409,2.4086,1529
30266,15.7754,4.0223,15.2403,1546
30271,3.5949,-6.0729,18.8723,1541
30276,-11.7926,-1.7454,6.9097,1560
30281,-11.2671,5.3127,2.7737,1543
30286,14.7495,8.187,13.5835,1545
30291,11.4527,-4.7321,16.01,1547
30296,-11.7148,-2.3164,10.2843,1549
30301,-15.5396,2.1739,4.112,1543
30306,8.8765,8.7149,8.5916,1553
30311,16.2231,1.1349,14.9326,1529
30316,-11.2276,-2.3882,18.0822,1547
30321,-13.9726,-0.8703,6.2381,1551
30326,3.5494,7.7249,2.7964,1528
30331,15.858,6.5948,15.1733,1557
30336,-6.3877,-4.142,20.5973,1545
30341,-12.323,-2.2314,8.1283,1557
30346,-4.5969,6.2381,2.2326,1530
30351,11.1342,8.9543,11.1103,1544
30356,7.288,-6.0765,17.8667,1531
30361,-10.5991,-2.1021,14.4155,1555
30366,-13.3046,4.5143,3.3471,1557
30371,7.1443,8.0625,4.6591,1531
30376,15.0631,-0.006,15.6605,1544
30381,-10.3094,-2.9413,20.0706,1542
30386,-17.9745,-0.4441,5.6862,1549
30391,-1.0295,6.9552,2.6228,1543
30396,15.3839,6.693,14.9542,1560
30401,1.9417,-6.0501,19.6073,1533
30406,-10.1059,-2.0506,7.9643,1555
30411,-10.1825,5.6707,2.5211,1527
30416,13.5009,8.8178,11.0265,1525
30421,10.4279,-5.369,16.587,1545
30426,-11.5113,-2.0506,13.3991,1541
30431,-15.275,2.6181,3.7804,1545
30436,6.013,8.1355,6.0406,1549
30441,16.0795,0.2514,15.0883,1529
30446,-9.6151,-3.2789,20.4046,1547
30451,-14.6681,-0.492,6.0274,1554
30456,-0.4788,7.4292,1.974,1533
30461,15.8568,5.6443,15.4881,1564
30466,-0.9014,-5.466,19.7378,1533
30471,-13.0963,-2.1308,7.4939,1555
30476,-8.0373,5.4253,2.2637,1567
30481,11.9423,8.9172,12.1458,1532
30486,11.631,-5.4085,16.3249,1533
30491,-10.4639,-1.8783,13.2615,1543
30496,-15.4258,3.0634,4.306,1559
30501,8.0768,8.169,5.3965,1547
30506,14.7974,-0.9637,15.7407,1541
30511,-10.9212,-2.5678,19.4541,1541
30516,-17.8476,0.0192,5.4193,1544
30521,0.0563,7.0797,2.8539,1523
30526,15.5767,5.7856,15.3289,1529
30531,-0.0838,-5.8083,20.0802,1541
30536,-10.5776,-1.81,7.3897,1553
30541,-8.8346,6.0837,2.2146,1542
30546,13.7691,8.424,11.9435,1531
30551,9.3853,-5.6419,17.1712,1548
30556,-11.5664,-1.9788,12.1877,1529
30561,-13.8301,3.1855,3.3363,1559
30566,6.8055,8.2301,6.942,1531
30571,16.4099,-0.8679,15.2104,1547
30576,-10.6279,-2.9413,19.818,1542
30581,-15.1589,0.2215,5.6587,1544
30586,0.7374,7.5034,2.0482,1525
30591,16.0459,4.7573,16.0591,1544
30596,-2.7593,-5.1667,20.3184,1557
30601,-15.2152,-1.7514,6.9073,1548
30606,-6.2908,5.7772,2.0339,1546
30611,12.4307,8.6622,12.8425,1529
30616,11.1175,-5.9831,17.0551,1549
30621,-10.0221,-1.7729,12.0069,1546
30626,-14.8895,3.6583,3.802,1561
30631,8.9411,8.157,5.8,1532
30636,14.6824,-1.8543,16.447,1528
30641,-11.6406,-2.3978,18.5323,1555
30646,-18.5455,0.741,4.7788,1533
30651,1.0092,7.1934,3.3399,1529
30656,16.4589,5.2301,15.463,1523
30661,-1.7561,-5.9592,20.9469,1557
30666,-11.0935,-1.5203,6.8797,1549
30671,-7.4436,6.2872,1.8244,1549
30676,14.449,8.3366,12.4475,1526
30681,8.0014,-6.0382,17.8703,1563
30686,-12.1135,-2.2027,10.9918,1531
30691,-12.4762,3.4177,2.794,1555
30696,7.1658,8.5401,7.7871,1531
30701,16.6696,-1.5347,15.2092,1529
30706,-10.9307,-2.9532,19.3739,1543
30711,-15.8221,0.425,5.6563,1548
30716,2.1572,7.5657,2.059,1544
30721,16.0807,4.4317,15.9921,1525
30726,-4.7932,-4.8866,20.9588,1553
30731,-17.1736,-2.0004,6.62,1527
30736,-5.0913,5.6108,2.1165,1541
30741,12.9802,9.323,13.3082,1541
30746,10.3106,-6.3219,17.328,1553
30751,-9.4655,-2.1129,11.1713,1533
30756,-14.5376,3.6691,3.6727,1555
30761,10.0114,8.5856,6.3255,1545
30766,14.1641,-2.2601,15.8831,1541
30771,-11.9387,-2.4265,18.3156,1531
30776,-18.7562,0.6416,4.6878,1531
30781,1.5335,7.203,3.6607,1545
30786,16.283,5.1487,14.8405,1528
30791,-2.897,-5.5438,21.3072,1551
30796,-11.2468,-1.8711,6.9647,1545
30801,-6.699,6.2429,1.9154,1553
30806,15.0679,8.7556,12.8832,1520
30811,6.8546,-5.9137,17.905,1559
30816,-11.4407,-2.4409,10.5752,1531
30821,-12.3433,3.3459,2.8982,1559
30826,7.8518,8.8729,8.1594,1543
30831,15.9657,-1.7645,14.8345,1531
30836,-11.0181,-2.8299,18.8699,1555
30841,-16.0471,0.4896,5.6755,1544
30846,3.0035,7.6088,2.5175,1555
30851,15.8173,3.9504,15.6042,1545
30856,-5.8095,-4.4101,21.154,1553
30861,-17.2538,-1.901,6.4895,1549
30866,-4.4604,5.7485,2.2146,1555
30871,13.3321,9.2955,13.5416,1542
30876,9.2967,-6.3135,17.6812,1557
30881,-9.4427,-2.2003,10.6326,1555
30886,-14.0216,3.8858,3.4955,1551
30891,10.556,8.7999,7.0689,1541
30896,13.7667,-2.7785,15.755,1528
30901,-11.9411,-2.3236,17.6405,1549
30906,-18.354,0.8918,4.5969,1527
30911,2.2206,7.4615,3.9648,1557
30916,16.5391,4.4963,14.7662,1525
30921,-4.2066,-5.2074,21.6065,1555
30926,-11.7711,-1.6927,6.7564,1546
30931,-5.7353,6.4859,1.8292,1560
30936,15.3397,8.436,13.3537,1555
30941,5.6419,-5.9771,18.3839,1549
30946,-11.9375,-2.4732,9.8533,1541
30951,-11.3545,3.6607,2.7234,1531
30956,8.3617,9.0417,8.831,1531
30961,15.8496,-2.4588,15.0404,1519
30966,-11.0468,-2.6336,18.1145,1560
30971,-16.1166,0.8823,5.5103,1531
30976,3.7194,7.7057,2.6049,1584
30981,15.8843,3.3555,15.7922,1530
30986,-6.7768,-4.2449,21.1983,1565
30991,-18.3851,-1.6388,6.3015,1554
30996,-3.7876,5.9735,2.2422,1525
31001,13.872,9.0884,13.872,1563
31006,8.3845,-6.5781,18.1732,1533
31011,-9.2895,-2.0865,10.07,1543
31016,-13.4267,4.1994,3.2813,1543
31021,11.0241,8.7568,7.3107,1529
31026,13.3285,-3.0598,16.2925,1529
31031,-12.0955,-2.3607,16.8648,1563
31036,-17.2718,1.2103,4.2114,1531
31041,2.709,7.4184,4.3395,1555
31046,17.0766,4.1288,14.7531,1519
31051,-5.1966,-5.3283,21.7836,1560
31056,-12.1661,-1.3815,6.6367,1553
31061,-4.8914,6.5673,1.5874,1547
31066,15.3037,8.2013,13.6146,1531
31071,4.8662,-6.0071,18.7358,1541
31076,-13.4578,-2.7054,9.5361,1551
31081,-10.2268,3.8762,2.5379,1547
31086,8.6263,9.1004,9.2763,1531
31091,16.0687,-2.8216,15.0871,1527
31096,-11.2061,-2.7557,17.8739,1560
31101,-16.3297,1.1708,5.3774,1543
31106,4.4616,7.7345,2.6671,1566
31111,15.9514,2.9269,15.8137,1547
31116,-7.7656,-4.0965,21.3012,1565
31121,-19.1931,-1.4964,6.1423,1547
31126,-3.3196,6.0633,2.3343,1528
31131,14.0971,8.9148,14.0169,1542
31136,7.7393,-6.6906,18.5156,1545
31141,-9.3529,-2.1476,9.7432,1557
31146,-13.0628,4.397,3.1855,1541
31151,11.5448,8.8442,7.7812,1551
31156,12.9718,-3.6236,16.204,1541
31161,-12.0536,-2.2482,16.5224,1567
31166,-17.6046,1.385,4.2665,1531
31171,3.0263,7.6483,4.5047,1549
31176,16.8636,3.4716,14.7543,1527
31181,-5.6515,-5.0039,21.5131,1561
31186,-12.4726,-1.397,6.5876,1547
31191,-4.5729,6.839,1.7645,1543
31196,15.6892,7.7584,13.8552,1544
31201,3.9875,-6.013,18.8496,1533
31206,-12.2463,-2.3918,9.3206,1555
31211,-10.7978,4.1132,2.63,1545
31216,9.2703,8.995,9.4751,1545
31221,14.9829,-3.322,15.2403,1517
31226,-11.1211,-2.3487,17.0288,1560
31231,-15.9131,1.3647,5.3115,1533
31236,4.7333,7.7393,3.292,1567
31241,15.7108,2.1249,15.7036,1543
31246,-7.8697,-3.7757,20.7206,1559
31251,-18.0786,-1.2641,6.2201,1532
31256,-3.1005,6.2752,2.3667,1545
31261,14.4706,8.2899,14.2347,1543
31266,6.5134,-6.4871,18.3839,1527
31271,-9.7743,-1.9812,9.5062,1571
31276,-12.542,4.7262,3.1687,1529
31281,11.8142,8.6479,8.5246,1559
31286,12.5348,-3.8738,16.3344,1526
31291,-11.9985,-2.0159,15.7048,1561
31296,-16.7187,1.7071,4.1875,1529
31301,3.8211,7.6291,4.7405,1563
31306,16.8624,2.7653,14.7962,1519
31311,-6.5697,-4.5538,21.1097,1549
31316,-12.8605,-1.1492,6.5661,1542
31321,-3.8954,6.9384,1.8268,1533
31326,15.8233,7.2772,14.1964,1551
31331,3.1101,-5.9053,18.8555,1540
31336,-12.9634,-2.3236,9.0477,1557
31341,-10.1394,4.4257,2.6624,1530
31346,10.0832,8.9172,10.1167,1559
31351,14.3473,-3.8331,15.4366,1530
31356,-11.1701,-2.0638,16.3632,1556
31361,-15.9753,1.6161,5.2265,1529
31366,5.4265,7.7512,3.5626,1547
31371,15.4522,1.5227,15.7682,1523
31376,-8.321,-3.4237,20.213,1548
31381,-17.5052,-1.0738,6.2094,1553
31386,-2.7258,6.5386,2.4505,1519
31391,14.9051,7.7009,14.5472,1559
31396,4.8471,-6.274,18.4629,1543
31401,-10.0449,-2.0267,9.2093,1559
31406,-11.8465,4.9752,3.0718,1531
31411,12.4307,8.5545,9.3458,1561
31416,11.4874,-4.1707,16.3177,1544
31421,-11.6406,-2.0087,14.959,1565
31426,-15.876,1.7406,4.3551,1531
31431,4.883,7.7129,5.1846,1553
31436,16.3644,1.8794,14.7471,1523
31441,-7.6483,-3.8164,20.6189,1554
31446,-13.4913,-1.3132,6.5469,1559
31451,-2.7809,6.7864,1.9932,1527
31456,15.7802,7.1946,14.3975,1557
31461,1.731,-5.5617,18.9477,1531
31466,-13.3908,-2.7019,8.7999,1563
31471,-9.5792,4.4736,2.8252,1531
31476,11.5652,9.3769,10.7895,1547
31481,12.9897,-4.2222,15.2989,1545
31486,-10.8086,-2.0638,15.433,1557
31491,-15.9298,1.6903,5.3008,1544
31496,6.6834,7.6291,4.1025,1531
31501,14.6657,1.2139,15.3839,1528
31506,-9.0429,-2.788,19.8072,1549
31511,-17.7602,-1.1732,6.3195,1533
31516,-1.5658,6.353,2.6576,1526
31521,15.8388,7.6842,14.4287,1557
31526,3.134,-5.8754,18.8675,1545
31531,-9.9623,-2.2805,9.0214,1567
31536,-11.2324,5.1032,2.9844,1525
31541,13.1789,8.4623,9.7181,1511
31546,10.313,-4.1144,16.5092,1517
31551,-12.202,-2.2374,14.2419,1553
31556,-14.8333,2.0087,4.2401,1529
31561,6.0274,7.6519,5.6599,1547
31566,16.4925,1.2175,14.795,1547
31571,-8.576,-3.1927,20.2968,1548
31576,-13.8145,-0.923,6.4967,1555
31581,-1.913,6.9109,1.7992,1543
31586,15.8209,6.5589,14.9422,1555
31591,0.4022,-5.0242,19.0674,1531
31596,-15.4785,-2.4181,8.5377,1572
31601,-8.667,5.0637,2.5965,1529
31606,12.5959,9.0513,11.3306,1527
31611,12.6486,-5.0087,15.925,1528
31616,-11.0516,-1.5,14.5388,1545
31621,-15.676,2.3559,4.8854,1544
31626,7.0797,7.3622,4.0163,1553
31631,14.6298,0.6381,16.5918,1545
31636,-9.5948,-2.7964,18.9513,1545
31641,-17.5172,-0.401,6.0166,1547
31646,-0.6464,6.6798,2.7102,1545
31651,16.7079,6.7505,14.9721,1577
31656,1.7202,-6.128,19.0052,1527
31661,-10.2197,-1.7789,8.3797,1573
31666,-10.6051,5.6575,2.7162,1531
31671,13.3345,7.7967,9.9575,1545
31676,9.3075,-4.458,17.4549,1533
31681,-13.5392,-2.4648,13.1178,1555
31686,-13.8636,2.6372,3.9145,1555
31691,7.27,7.9499,6.2704,1548
31696,16.9713,-0.2215,15.2092,1541
31701,-9.5732,-2.7473,19.7282,1543
31706,-13.8828,-0.4238,6.2728,1549
31711,-1.3611,7.1503,1.7011,1553
31716,15.8412,5.6551,15.6138,1561
31721,-0.844,-4.8566,19.1225,1543
31726,-16.7558,-2.0363,8.2588,1543
31731,-7.8195,5.4564,2.4157,1520
31736,13.7786,9.0621,11.9519,1542
31741,12.1278,-5.9077,16.2626,1525
31746,-11.1845,-1.0319,13.8241,1555
31751,-15.5743,2.8479,4.6783,1545
31756,7.3777,7.0449,4.0031,1529
31761,14.4442,0.1257,17.5064,1543
31766,-10.088,-2.7952,18.2809,1547
31771,-17.1856,0.1197,5.6719,1555
31776,0.2107,6.79,2.958,1545
31781,17.2131,5.958,15.3935,1532
31786,0.7709,-6.2058,18.8974,1547
31791,-10.5034,-1.4066,8.0996,1543
31796,-10.2939,6.049,2.5857,1531
31801,13.4578,7.2365,10.2268,1530
31806,8.7592,-4.6244,17.7434,1531
31811,-13.7176,-2.4612,12.7288,1513
31816,-13.6637,3.0478,3.7206,1561
31821,8.0493,8.2468,6.6571,1531
31826,16.7175,-1.0319,15.4366,1547
31831,-10.0688,-2.3786,19.1464,1548
31836,-14.0109,-0.261,6.189,1545
31841,-0.7745,7.2712,1.7561,1527
31846,15.7945,5.2253,16.0531,1547
31851,-1.6233,-4.6256,19.0519,1553
31856,-16.502,-1.9501,8.1954,1547
31861,-7.2903,5.7209,2.3918,1547
31866,14.6034,9.0214,12.5767,1517
31871,10.9798,-6.4057,16.2698,1547
31876,-11.1115,-0.9996,13.1382,1556
31881,-15.4462,3.1603,4.5897,1554
31886,7.8985,7.0078,4.3802,1547
31891,14.2192,-0.3962,17.516,1549
31896,-10.5129,-2.66,17.9266,1531
31901,-16.7415,0.2873,5.6671,1533
31906,0.9409,6.9935,3.0646,1529
31911,17.4561,5.387,15.7359,1543
31916,-0.9924,-5.8107,18.9034,1531
31921,-10.4351,-1.5981,7.8458,1549
31926,-9.8043,6.3554,2.4924,1527
31931,14.0145,7.2568,10.9726,1532
31936,7.847,-4.7453,17.6237,1549
31941,-13.6613,-2.4493,12.2846,1541
31946,-13.4243,3.2932,3.6739,1553
31951,9.0046,8.4587,7.0425,1547
31956,16.2159,-1.9309,15.3792,1529
31961,-10.6578,-2.0267,18.6676,1545
31966,-14.303,-0.1065,6.2345,1531
31971,-0.0479,7.2317,1.895,1531
31976,15.9394,4.7908,16.2913,1547
31981,-2.6456,-4.44,18.9549,1557
31986,-15.9945,-1.828,8.0038,1549
31991,-6.9049,5.9245,2.411,1547
31996,15.4953,8.9878,13.1741,1529
32001,9.4451,-6.6044,16.3512,1545
32006,-10.6937,-1.1708,12.5504,1545
32011,-15.53,3.5674,4.5873,1561
32016,8.8083,6.8785,4.8435,1545
32021,13.4997,-0.7446,17.3388,1527
32026,-11.2719,-2.6791,17.4849,1543
32031,-15.9322,0.3124,5.5294,1493
32036,1.9477,7.3251,3.304,1543
32041,17.935,4.4197,15.6497,1523
32046,-2.7019,-5.1451,19.0207,1557
32051,-10.5105,-1.7071,7.7249,1556
32056,-9.3326,6.5996,2.3487,1553
32061,14.4634,6.9192,11.4239,1530
32066,6.8019,-4.5873,17.7758,1547
32071,-14.4526,-2.5139,11.8752,1529
32076,-12.8724,3.541,3.5207,1549
32081,10.1526,8.7448,7.7177,1517
32086,15.9274,-2.8287,15.3971,1523
32091,-11.2563,-1.3563,18.093,1555
32096,-14.7315,0.176,6.1184,1545
32101,0.9481,7.1443,1.8687,1545
32106,15.8137,4.3072,16.8875,1543
32111,-3.7661,-4.0282,18.9657,1547
32116,-16.1489,-1.6293,7.671,1545
32121,-5.7892,6.092,2.3296,1545
32126,16.4075,8.8059,13.8457,1531
32131,8.2432,-6.9336,16.5739,1560
32136,-10.4962,-1.0534,11.6813,1533
32141,-15.3492,4.0785,4.3323,1559
32146,9.5301,6.7888,5.1787,1533
32151,13.2423,-1.4018,17.7961,1523
32156,-12.0129,-2.484,16.8444,1541
32161,-15.6856,0.8248,5.1715,1529
32166,2.879,7.4292,3.4752,1544
32171,18.1624,3.48,16.0076,1520
32176,-4.1037,-4.7142,19.1117,1549
32181,-10.7332,-1.4198,7.3562,1555
32186,-8.3845,6.8295,2.0901,1555
32191,14.7327,6.523,12.1841,1528
32196,5.691,-4.7764,18.0391,1559
32201,-15.0452,-2.4241,11.2468,1547
32206,-12.1554,4.0522,3.2346,1553
32211,11.2923,9.0525,8.6084,1543
