timestamp_ms,ax,ay,az,acs_adc
22376,13.9295,-1.251,16.3404,1519
22381,-8.8873,-1.9597,16.1944,1513
22386,-14.1174,1.6484,5.2864,1533
22391,1.2378,6.8007,5.2565,1515
22396,14.364,2.4708,15.7969,1522
22401,-3.48,-4.8662,18.3743,1499
22406,-10.3406,0.4034,6.4069,1523
22411,-4.8662,6.6044,3.1029,1533
22416,9.1231,5.0589,14.7207,1525
22421,4.7058,-5.7664,16.9928,1542
22426,-11.1115,-0.2574,9.0716,1516
22431,-8.9471,5.5174,3.7002,1523
22436,8.8047,6.4572,11.7029,1513
22441,12.6055,-4.7369,15.6533,1519
22446,-10.0724,0.1125,13.3728,1547
22451,-14.1701,3.3124,4.4843,1528
22456,3.972,6.2644,6.5242,1531
22461,13.5715,-0.0407,16.4422,1517
22466,-7.8626,-2.8395,16.7642,1541
22471,-13.7559,1.4353,5.5773,1527
22476,0.4178,6.7397,4.8327,1525
22481,13.9103,3.2334,15.7874,1541
22486,-1.1504,-5.5881,18.148,1518
22491,-9.754,0.4597,6.681,1525
22496,-6.5972,6.4296,3.0646,1523
22501,8.1738,5.2146,13.9271,1517
22506,6.9516,-5.4025,16.745,1519
22511,-10.4459,-0.2023,10.1442,1523
22516,-10.0269,5.1583,3.7685,1546
22521,7.8111,6.4093,10.6015,1517
22526,13.6625,-3.6943,15.5432,1512
22531,-10.1981,-0.3112,14.6178,1533
22536,-14.8464,2.8359,4.6088,1516
22541,3.0682,6.4021,5.8371,1543
22546,14.1198,0.7111,16.6086,1520
22551,-6.8366,-3.1963,17.5698,1554
22556,-14.516,0.9481,5.6371,1519
22561,-1.257,6.8187,4.2318,1517
22566,13.3345,3.9768,15.7969,1543
22571,1.2785,-6.0346,17.9206,1525
22576,-9.4248,0.5686,7.2185,1543
22581,-7.7788,6.1519,3.0251,1511
22586,7.9703,5.3846,13.0508,1517
22591,8.8202,-5.0182,16.7008,1525
22596,-10.641,-0.3268,11.0516,1519
22601,-10.7775,4.7692,3.7421,1526
22606,6.6523,6.2704,9.5517,1523
22611,14.5591,-2.818,15.7957,1519
22616,-9.9754,-0.8954,15.7622,1523
22621,-14.6693,2.2853,4.8495,1531
22626,1.9118,6.438,4.8914,1528
22631,13.5751,1.5562,16.9031,1515
22636,-5.1356,-4.0534,17.6261,1529
22641,-14.3389,0.7147,5.8933,1525
22646,-2.4098,6.608,3.96,1527
22651,12.7264,4.7788,15.5192,1515
22656,3.7397,-6.5374,17.6501,1519
22661,-9.1722,0.5818,7.847,1511
22666,-9.3996,5.7509,3.1699,1511
22671,7.167,5.6491,11.825,1551
22676,10.0916,-4.3467,16.6002,1525
22681,-9.9874,-0.8164,12.3684,1532
22686,-11.8178,4.0905,4.0187,1525
22691,5.8143,6.4296,8.4539,1519
22696,14.6824,-1.5802,15.7179,1517
22701,-9.5062,-1.7765,16.7438,1518
22706,-15.5013,1.6592,4.9895,1530
22711,0.741,6.5541,4.4867,1526
22716,13.8301,2.8898,16.3428,1529
22721,-3.2202,-4.9129,18.2977,1527
22726,-11.6837,0.1963,6.4093,1524
22731,-4.3383,6.5864,3.3854,1519
22736,11.1067,5.2613,14.8321,1517
22741,5.2206,-6.0813,17.3209,1532
22746,-10.6554,0.091,8.5174,1529
22751,-8.9495,5.3858,3.3926,1531
22756,7.7405,6.1531,11.2563,1525
22761,13.2567,-4.4556,16.3045,1507
22766,-9.6319,-0.0503,13.2902,1556
22771,-14.0408,3.456,4.3299,1526
22776,4.0187,6.2046,6.4177,1557
22781,13.1645,-0.3268,16.8803,1514
22786,-7.7919,-2.9078,16.7869,1523
22791,-14.2898,1.7837,5.2086,1553
22796,0.5171,6.517,4.6172,1513
22801,14.0228,3.5255,16.1668,1533
22806,-1.3886,-5.7449,18.7167,1529
22811,-11.6598,0.2933,6.4452,1533
22816,-5.539,6.0406,2.8072,1503
22821,9.8007,5.9292,13.9139,1513
22826,7.9523,-6.1148,17.4813,1523
22831,-9.1159,-0.0479,9.6019,1559
22836,-10.9726,4.8961,3.4572,1551
22841,6.7564,6.5422,10.1251,1519
22846,13.8145,-3.6619,16.2698,1523
22851,-9.5577,-0.7207,14.103,1527
22856,-15.2594,2.8922,4.3251,1528
22861,2.8718,6.5649,6.1531,1545
22866,15.1661,0.9457,16.2866,1517
22871,-6.9264,-3.5338,18.3516,1555
22876,-13.5069,0.68,5.7341,1527
22881,-1.5574,6.426,3.6009,1527
22886,12.4187,4.5801,15.7862,1525
22891,0.4573,-5.8598,18.4006,1519
22896,-12.8102,-0.4238,7.1263,1543
22901,-6.0885,5.8861,3.3639,1511
22906,9.6678,6.4943,13.1705,1529
22911,10.3465,-5.879,16.8648,1523
22916,-8.9388,0.0563,10.9056,1525
22921,-12.9155,4.2928,3.8128,1524
22926,5.7616,6.3698,8.248,1519
22931,12.4642,-1.7609,16.3177,1517
22936,-9.0884,-2.3978,15.6365,1519
22941,-13.7906,2.235,4.9009,1559
22946,2.8024,6.6882,5.8826,1516
22951,14.388,2.0375,15.5467,1511
22956,-5.6575,-4.4257,18.7849,1547
22961,-13.125,0.2753,5.9137,1531
22966,-2.9485,6.4224,3.3052,1593
22971,11.4503,5.4037,15.0571,1513
22976,3.0885,-5.9759,17.9505,1519
22981,-10.3944,-0.3567,8.0122,1532
22986,-8.0254,5.6539,3.4884,1513
22991,8.7472,6.426,12.2236,1541
22996,11.2168,-5.0817,16.2423,1511
23001,-9.2823,-0.1508,11.9866,1543
23006,-13.4985,3.8259,4.0582,1515
23011,5.0242,6.5817,7.9009,1525
23016,14.1509,-1.391,16.1106,1526
23021,-9.0956,-1.8675,16.3859,1517
23026,-14.8728,1.7514,5.0925,1527
23031,1.154,6.7349,5.2529,1523
23036,14.4873,2.6995,15.7395,1541
23041,-3.3914,-4.9907,18.6185,1525
23046,-10.4986,0.3891,6.341,1542
23051,-4.695,6.4823,3.0382,1527
23056,9.1925,5.2373,14.8488,1509
23061,4.9991,-5.5701,17.1293,1541
23066,-10.8553,-0.3376,9.1183,1529
23071,-8.5102,5.5486,3.4488,1518
23076,8.4587,6.4787,11.6011,1515
23081,12.6665,-4.5993,15.8783,1512
23086,-9.8964,-0.1245,13.3453,1541
23091,-14.7112,3.4285,4.2329,1515
23096,4.0749,6.4201,6.7744,1559
23101,14.5041,-0.2705,16.2818,1515
23106,-8.0996,-2.5774,17.1365,1519
23111,-14.9925,1.2725,5.3463,1554
23116,-0.0036,6.7708,4.6136,1516
23121,13.7068,3.4369,15.9262,1547
23126,-1.5323,-5.5246,18.4342,1523
23131,-10.3992,0.1448,6.7098,1542
23136,-5.6336,6.1926,3.0083,1519
23141,9.7624,5.7221,14.1114,1519
23146,6.6463,-5.7509,17.1006,1531
23151,-11.57,-0.4729,9.5038,1544
23156,-9.402,5.0613,3.7685,1533
23161,7.774,6.6427,10.8026,1524
23166,13.9762,-3.8642,15.6186,1523
23171,-9.9276,-0.5148,14.5795,1531
23176,-13.7679,2.6528,4.7513,1514
23181,3.1196,6.3375,5.5809,1546
23186,12.4642,1.1097,16.4362,1522
23191,-6.2177,-3.9828,17.3963,1555
23196,-13.2603,0.8679,5.8909,1519
23201,-0.3855,6.699,4.2186,1519
23206,12.8257,4.4137,15.4857,1529
23211,0.2227,-5.9879,18.2749,1529
23216,-11.2851,-0.0132,7.0904,1531
23221,-6.5038,6.0071,3.1603,1520
23226,9.323,6.1902,13.2136,1519
23231,9.0549,-5.5043,16.7139,1519
23236,-9.0142,-0.2095,10.7153,1526
23241,-11.7172,4.3958,3.9971,1547
23246,6.3351,6.5218,9.3015,1526
23251,13.392,-2.7402,15.8664,1528
23256,-9.7588,-1.1157,14.9638,1519
23261,-14.0599,2.3092,4.8387,1517
23266,2.5857,6.7109,5.9975,1515
23271,14.9386,1.5083,15.7574,1516
23276,-5.8598,-3.9816,18.5072,1531
23281,-11.467,0.5255,5.9867,1541
23286,-2.648,6.6104,3.2513,1518
23291,10.0221,4.719,15.5132,1515
23296,2.1656,-5.6826,17.4621,1528
23301,-11.7388,-0.3807,8.0625,1549
23306,-6.8462,5.9723,3.4716,1527
23311,9.7025,6.4643,12.8389,1545
23316,10.7715,-5.5952,16.1549,1519
23321,-9.5852,0.0934,11.5891,1544
23326,-13.5811,4.0318,3.9971,1513
23331,5.43,6.4631,8.0146,1528
23336,13.6134,-1.6245,16.1082,1531
23341,-9.1997,-1.7657,15.8987,1523
23346,-14.1569,1.8866,5.0482,1523
23351,1.9824,6.7361,5.7078,1527
23356,14.6705,2.1871,15.5551,1516
23361,-4.4879,-4.6017,18.6724,1532
23366,-10.799,0.3448,6.2189,1527
23371,-4.0259,6.4823,3.0754,1532
23376,9.3146,5.187,14.9889,1519
23381,3.9696,-5.7138,17.255,1531
23386,-10.8625,-0.3627,8.8741,1525
23391,-8.1774,5.7221,3.571,1525
23396,9.1291,6.5493,12.0345,1527
23401,11.7711,-4.8985,15.8293,1517
23406,-9.7624,-0.067,12.7515,1553
23411,-14.0911,3.5841,4.2437,1523
23416,4.7226,6.4224,7.2868,1527
23421,14.1785,-0.6632,16.0687,1525
23426,-8.4827,-2.2206,16.7941,1523
23431,-14.6884,1.3491,5.3678,1531
23436,0.729,6.8151,4.871,1519
23441,13.9905,3.1089,15.773,1549
23446,-2.6803,-5.0661,18.5144,1513
23451,-10.659,0.1963,6.5972,1525
23456,-4.9249,6.3351,3.0562,1513
23461,9.7887,5.3882,14.5472,1526
23466,5.6336,-5.6778,17.1018,1541
23471,-11.9303,-0.4585,9.1231,1529
23476,-9.0154,5.296,3.6607,1560
23481,8.4647,6.5984,11.3006,1529
23486,13.3668,-4.3383,15.67,1529
23491,-9.9395,-0.1544,14.0348,1545
23496,-13.7092,2.9868,4.6364,1515
23501,3.5326,6.2321,5.8826,1541
23506,12.712,0.431,16.605,1519
23511,-6.7457,-3.4728,17.0335,1549
23516,-13.2591,1.3515,5.6994,1529
23521,0.1939,6.6798,4.3503,1515
23526,13.1897,3.6835,15.9047,1527
23531,-0.8332,-5.703,18.2163,1524
23536,-11.983,0.1496,6.675,1546
23541,-5.8514,6.2106,3.0849,1515
23546,9.736,5.7078,13.7631,1527
23551,8.3414,-5.7964,16.8528,1525
23556,-8.9938,0.0922,10.2053,1507
23561,-11.4132,4.7848,3.7769,1531
23566,6.7157,6.3075,9.8438,1526
23571,13.0676,-3.2944,16.0423,1524
23576,-10.0353,-0.7781,14.2216,1519
23581,-13.5488,2.733,4.5693,1527
23586,3.146,6.4763,6.4416,1527
23591,15.3229,1.0271,15.9095,1517
23596,-6.3805,-3.7122,18.3947,1545
23601,-11.4742,0.7829,5.8454,1532
23606,-2.5031,6.6379,3.1161,1529
23611,9.6331,4.3934,15.8664,1525
23616,1.9549,-5.6778,17.2502,1517
23621,-10.9212,-0.0263,8.0936,1545
23626,-6.7888,6.1746,3.3519,1510
23631,9.6881,6.1244,13.1729,1547
23636,10.1394,-5.685,16.3165,1517
23641,-9.894,0.164,11.242,1529
23646,-12.4403,4.1551,3.8008,1525
23651,5.4708,6.3039,8.4851,1518
23656,14.352,-1.9501,16.0675,1525
23661,-9.0908,-1.67,16.0076,1527
23666,-14.1318,1.8759,5.3008,1531
23671,1.7945,6.7804,5.0805,1515
23676,13.3213,1.8627,16.2662,1518
23681,-5.0817,-4.1372,17.8404,1530
23686,-14.6022,0.3424,6.0777,1526
23691,-2.7342,6.4751,3.9911,1527
23696,12.6689,5.4672,14.9482,1513
23701,4.7896,-6.5769,17.6788,1543
23706,-8.9471,0.4477,8.3641,1518
23711,-9.754,5.5761,3.3411,1527
23716,6.0561,5.9137,11.1163,1520
23721,10.1382,-3.9564,16.4314,1513
23726,-9.578,-0.99,12.8832,1587
23731,-11.9423,3.8798,4.2689,1517
23736,5.6216,6.4703,8.0433,1529
23741,14.3161,-1.0738,15.6485,1515
23746,-9.3398,-1.998,17.0731,1525
23751,-15.8029,1.5107,5.0566,1541
23756,0.6512,6.5864,4.555,1516
23761,14.1066,3.3567,16.022,1529
23766,-2.2003,-5.2289,18.4545,1515
23771,-10.088,0.316,6.699,1529
23776,-5.3151,6.5098,3.1029,1509
23781,9.013,5.1703,14.6393,1529
23786,5.3403,-5.4899,16.7917,1527
23791,-11.2073,-0.4393,9.3314,1517
23796,-8.8705,5.4157,3.4824,1548
23801,8.278,6.4943,11.1797,1519
23806,13.204,-4.2521,15.8891,1525
23811,-9.8713,-0.2526,14.0276,1543
23816,-14.9374,3.1029,4.44,1517
23821,3.8247,6.3398,6.1531,1550
23826,13.8804,0.2909,16.4266,1515
23831,-7.5884,-2.9521,17.1317,1553
23836,-14.6286,1.2019,5.5126,1517
23841,-0.0814,6.6355,4.7154,1523
23846,13.9043,3.9564,15.7,1545
23851,-0.4298,-5.8861,18.5575,1518
23856,-9.6929,0.2933,6.8702,1553
23861,-6.8342,6.0585,2.7569,1511
23866,8.0876,5.8526,13.38,1527
23871,7.6686,-5.0817,16.9557,1525
23876,-10.2268,-0.6584,10.6817,1512
23881,-10.1478,4.9368,3.7385,1541
23886,7.4376,6.5314,10.2795,1523
23891,13.7966,-3.2753,15.5875,1528
23896,-9.9946,-0.8033,14.9913,1519
23901,-15.5072,2.5319,4.5657,1523
23906,2.6635,6.5206,5.5929,1529
23911,14.4083,1.3467,16.3069,1519
23916,-6.2213,-3.7122,18.1026,1541
23921,-13.8062,0.5255,5.9197,1543
23926,-1.974,6.7864,3.8355,1517
23931,12.4774,4.5514,15.518,1513
23936,1.3479,-5.8861,17.8775,1519
23941,-11.0696,-0.1448,7.3933,1531
23946,-7.0928,5.8921,3.4261,1527
23951,9.2308,6.1998,12.9395,1545
23956,10.0389,-5.4157,16.5152,1513
23961,-9.1973,-0.0335,11.1522,1527
23966,-12.6366,4.1635,4.0079,1525
23971,5.8131,6.4967,8.7197,1527
23976,13.7272,-2.1967,15.8879,1520
23981,-9.5062,-1.3815,15.6497,1541
23986,-14.5627,2.0806,5.0278,1531
23991,2.0746,6.7086,5.7604,1528
23996,14.7806,1.9632,15.7359,1528
24001,-4.8159,-4.3287,18.5455,1592
24006,-11.0157,0.3675,6.1148,1543
24011,-3.5626,6.4835,3.152,1531
24016,9.7743,4.9811,15.3121,1515
24021,3.45,-5.6563,17.2538,1531
24026,-11.3641,-0.3591,8.5688,1515
24031,-7.6579,5.7604,3.4417,1522
24036,9.2787,6.5493,12.3708,1541
24041,11.7232,-5.1846,15.8867,1517
24046,-9.6343,0.067,12.4355,1553
24051,-14.3101,3.6703,4.1264,1515
24056,4.8195,6.4464,7.4472,1531
24061,14.1018,-0.9301,16.1453,1531
24066,-8.7364,-2.0566,16.5882,1524
24071,-14.88,1.5167,5.2445,1544
24076,1.0307,6.7205,5.1858,1525
24081,14.352,3.0215,15.5994,1540
24086,-2.97,-5.1332,18.6472,1517
24091,-10.4854,0.1712,6.5254,1549
24096,-5.0362,6.1806,2.9916,1516
24101,9.3338,5.7078,14.5591,1519
24106,5.5821,-5.5414,17.0228,1529
24111,-10.9726,-0.6177,9.4475,1525
24116,-8.8226,5.278,3.553,1533
24121,8.2995,6.7457,11.3437,1543
24126,12.985,-4.3,15.6102,1511
24131,-9.9108,-0.3184,13.8529,1543
24136,-14.8524,3.0909,4.4736,1512
24141,3.9181,6.5015,6.4368,1556
24146,13.9235,0.1137,16.1501,1516
24151,-7.8817,-2.8766,17.273,1545
24156,-14.8548,1.0056,5.515,1517
24161,-0.0898,6.687,4.7657,1525
24166,13.866,3.9253,15.4641,1527
24171,-0.7159,-5.8059,18.4449,1517
24176,-9.7073,0.1724,6.8319,1544
24181,-6.6295,6.122,2.9987,1513
24186,8.4096,5.8897,13.7068,1479
24191,7.3035,-5.2337,16.7055,1500
24196,-10.2819,-0.6416,10.4806,1524
24201,-9.979,4.889,3.802,1545
24206,7.5489,6.7098,10.404,1513
24211,13.6757,-3.3495,15.4534,1549
24216,-9.9467,-0.7171,14.9434,1519
24221,-15.506,2.5355,4.6507,1519
24226,2.9532,6.5853,5.8071,1533
24231,14.4466,1.3144,16.0016,1519
24236,-6.4631,-3.5674,18.0678,1543
24241,-14.1521,0.4729,5.8742,1545
24246,-1.5574,6.6906,3.8762,1531
24251,12.5636,4.6567,15.4342,1519
24256,1.1109,-5.8299,18.0559,1517
24261,-10.7404,-0.2478,7.343,1545
24266,-6.857,5.7461,3.2453,1525
24271,9.2907,6.3841,12.967,1546
24276,9.7755,-5.4995,16.6636,1513
24281,-9.1207,-0.1472,10.9822,1545
24286,-12.4989,4.2294,3.9792,1517
24291,5.9245,6.6415,8.855,1519
24296,14.048,-2.3894,15.8748,1528
24301,-9.4044,-1.336,15.5815,1532
24306,-15.1577,2.1428,4.8926,1525
24311,2.0842,6.6954,5.6731,1518
24316,14.619,1.9261,15.7874,1527
24321,-5.2948,-4.2449,18.5036,1541
24326,-12.2332,0.2622,6.0478,1525
24331,-2.9413,6.4153,3.3579,1520
24336,11.4203,5.1356,15.2044,1523
24341,2.7928,-5.9292,17.7638,1529
24346,-12.2284,-0.4896,7.9667,1519
24351,-7.3694,5.6383,3.5602,1517
24356,9.2668,6.6116,12.4199,1525
24361,11.8262,-5.2972,16.0388,1509
24366,-9.5122,0.0407,12.2655,1525
24371,-13.5368,3.7362,4.2581,1517
24376,4.9799,6.3351,7.3909,1527
24381,12.7132,-0.7913,16.2195,1555
24386,-8.3534,-2.7114,16.4146,1528
24391,-13.8217,1.8459,5.2768,1543
24396,1.9489,6.6152,5.2002,1527
24401,14.0073,2.7952,15.6736,1567
24406,-3.8966,-4.8997,18.6855,1517
24411,-13.1549,0.0682,6.1986,1527
24416,-3.9337,6.292,3.2489,1530
24421,11.0073,5.8012,14.6381,1525
24426,5.3965,-6.0765,17.4322,1531
24431,-9.1195,-0.237,8.8286,1528
24436,-9.6714,5.1799,3.5231,1547
24441,7.9296,6.5637,11.333,1523
24446,11.6957,-4.4005,16.0076,1503
24451,-9.9288,-0.4884,12.7814,1543
24456,-13.0723,3.2848,4.2772,1529
24461,4.4784,6.6523,7.7417,1561
24466,15.3157,-0.4836,15.4474,1514
24471,-8.4467,-2.5319,17.7638,1544
24476,-12.9203,1.0092,5.5629,1547
24481,-0.0359,6.4931,3.8762,1523
24486,11.2264,3.6105,15.9885,1549
24491,-1.4246,-5.1882,17.7901,1526
24496,-12.4115,-0.1257,7.0485,1559
24501,-4.3347,6.2668,3.474,1525
24506,11.0049,6.2249,14.2407,1525
24511,7.3945,-6.2704,16.9533,1491
24516,-9.3529,0.0994,9.5804,1525
24521,-11.1354,4.8123,3.4093,1549
24526,6.8893,6.6188,10.1706,1541
24531,13.2052,-3.4824,15.9633,1544
24536,-9.4272,-0.7781,14.2706,1541
24541,-14.3832,2.7569,4.7896,1531
24546,3.5829,6.7349,6.5853,1531
24551,14.5783,0.3555,15.7981,1513
24556,-7.5597,-2.9904,17.826,1554
24561,-14.9123,0.7027,5.5881,1527
24566,-1.069,6.5972,4.1276,1522
24571,13.0185,4.4017,15.615,1532
24576,0.2705,-5.8012,18.2917,1491
24581,-10.1119,-0.1053,7.1946,1557
24586,-6.675,5.9005,3.231,1518
24591,9.6283,6.2764,13.4434,1525
24596,8.2576,-5.6755,16.6457,1511
24601,-10.5584,-0.316,10.2615,1531
24606,-10.4375,4.47,3.8307,1525
24611,6.7409,6.6367,10.0042,1523
24616,14.534,-2.9676,15.4426,1523
24621,-9.8114,-0.9481,15.5755,1515
24626,-13.8062,2.1356,5.0697,1530
24631,2.5965,6.4739,5.0937,1515
24636,12.1889,1.6245,16.2435,1516
24641,-5.2337,-4.1863,17.607,1541
24646,-13.2136,0.6584,6.1687,1531
24651,-1.4054,6.5637,3.9863,1542
24656,12.5684,4.9428,15.3121,1501
24661,2.1596,-6.2094,17.8703,1528
24666,-10.5285,-0.0443,7.6184,1529
24671,-7.7033,5.6659,3.1867,1529
24676,8.8202,6.4129,12.4941,1529
24681,10.3753,-5.1631,16.2901,1513
24686,-9.1339,-0.2215,11.6418,1553
24691,-12.8521,4.0127,4.209,1527
24696,5.7748,6.6762,8.5269,1532
24701,13.9295,-2.0231,15.7215,1529
24706,-9.4032,-1.4126,15.8688,1517
24711,-15.1565,1.9632,5.0242,1531
24716,1.7502,6.62,5.4755,1522
24721,14.716,2.4265,15.7407,1513
24726,-4.2844,-4.5873,18.5898,1523
24731,-10.8804,0.2729,6.3147,1531
24736,-3.9037,6.3686,3.1747,1531
24741,9.8485,5.2768,15.0942,1515
24746,3.8032,-5.6192,17.1628,1555
24751,-11.3042,-0.4345,8.8214,1523
24756,-7.9236,5.6743,3.5231,1517
24761,9.0896,6.6355,12.1218,1545
24766,11.9674,-4.9955,15.8664,1496
24771,-9.815,-0.0407,12.8389,1554
24776,-14.3784,3.5231,4.2772,1520
24781,4.7477,6.5194,7.276,1553
24786,13.9115,-0.7446,15.9921,1453
24791,-8.6981,-2.2075,16.6505,1532
24796,-14.6621,1.391,5.3618,1580
24801,0.8811,6.7409,5.2852,1529
24806,14.2455,3.0801,15.4187,1545
24811,-2.8,-5.1667,18.5694,1515
24816,-10.3022,0.2011,6.529,1519
24821,-5.1894,6.2692,3.1328,1523
24826,9.183,5.6228,14.4526,1523
24831,5.5917,-5.5689,16.9689,1526
24836,-10.7739,-0.4896,9.5421,1572
24841,-9.0022,5.2505,3.644,1544
24846,8.3953,6.681,11.3737,1517
24851,12.8461,-4.2892,15.5108,1523
24856,-10.0676,-0.2526,13.8708,1549
24861,-14.7315,3.0275,4.5669,1531
24866,4.0845,6.5374,6.6068,1543
24871,13.9977,0.0766,15.9418,1525
24876,-7.8733,-2.715,17.2119,1556
24881,-14.7231,1.0008,5.6168,1523
24886,-0.1425,6.7277,4.7621,1528
24891,13.8636,3.7613,15.3696,1547
24896,-0.8248,-5.6371,18.3671,1517
24901,-9.73,0.1317,6.9552,1543
24906,-6.5457,6.116,3.1532,1523
24911,8.5126,5.8814,13.7272,1528
24916,7.0545,-5.2565,16.5846,1523
24921,-10.3382,-0.5471,10.4495,1532
24926,-10.1263,4.877,3.8535,1529
24931,7.7261,6.7074,10.5153,1523
24936,13.4626,-3.4776,15.281,1515
24941,-10.0748,-0.5806,14.9674,1520
24946,-15.3241,2.5307,4.7405,1519
24951,3.1963,6.5793,5.952,1533
24956,14.1928,0.9637,15.9071,1517
24961,-6.5003,-3.3567,17.7362,1541
24966,-14.2527,0.5459,5.9137,1525
24971,-1.5119,6.766,4.1958,1563
24976,12.8353,4.3443,15.366,1509
24981,1.1337,-5.7832,17.7662,1520
24986,-10.0245,-0.0323,7.5537,1533
24991,-7.361,5.8814,3.304,1463
24996,9.4727,6.1746,13.0628,1531
25001,8.9376,-5.4253,16.4182,1525
25006,-10.3106,-0.243,10.9259,1526
25011,-11.2516,4.3048,4.0534,1523
25016,6.5841,6.5745,9.5002,1528
25021,14.4574,-2.5558,15.2954,1519
25026,-9.6857,-1.0882,16.0196,1515
25031,-13.5296,1.9393,5.272,1519
25036,2.2314,6.5553,4.9704,1514
25041,12.2188,1.8292,16.1776,1524
25046,-4.7321,-4.3263,17.4872,1533
25051,-11.734,-0.0946,7.8159,1531
25056,-1.9812,6.529,3.9073,1525
25061,10.234,6.2824,13.3884,1519
25066,3.2944,-6.3255,17.5483,1529
25071,-9.6199,0.2693,11.0708,1527
25076,-8.7305,5.7269,3.2429,1523
25081,6.1172,6.3051,8.8849,1523
25086,10.3358,-4.8866,16.1429,1509
25091,-9.651,-1.1923,15.2642,1549
25096,-11.7567,3.9313,4.1575,1524
25101,2.7174,6.5829,6.1351,1550
25106,14.9374,-1.7538,15.4773,1517
25111,-5.6276,-3.9253,18.433,1513
25116,-13.453,1.6053,5.3163,1527
25121,-3.0179,6.4165,3.0921,1519
25126,11.7639,2.6935,16.447,1541
25131,2.818,-5.5773,17.2706,1533
25136,-12.7599,0.3388,6.6343,1517
25141,-7.1048,5.8407,3.4357,1519
25146,11.6813,5.5976,14.8967,1511
25151,10.9846,-5.3929,16.0639,1529
25156,-9.9084,0.1736,8.5653,1531
25161,-13.5272,4.0282,3.8822,1541
25166,7.6231,6.3518,11.2168,1519
25171,14.6286,-1.4844,16.1202,1523
25176,-9.4272,-0.3843,13.1178,1525
25181,-14.7148,1.6747,5.2828,1528
25186,4.4843,6.5864,7.258,1555
25191,13.8792,2.3296,16.1393,1523
25196,-8.6347,-2.2182,16.8731,1541
25201,-14.0755,0.152,6.1112,1543
25206,0.1185,6.5565,4.8076,1527
25211,11.801,5.5845,14.8919,1527
25216,-1.579,-5.5402,18.4174,1525
25221,-9.1255,0.1784,8.6826,1544
25226,-10.3286,5.3905,3.5865,1519
25231,7.6638,6.3398,11.1342,1530
25236,10.7787,-3.9205,15.9873,1523
25241,-10.3358,-1.16,13.1573,1528
25246,-12.3313,3.5901,4.2832,1545
25251,5.223,6.699,8.0828,1529
25256,14.8189,-0.6476,15.2211,1524
25261,-8.8286,-2.4612,17.5687,1518
25266,-14.0695,0.9912,5.4588,1528
25271,0.067,6.6451,4.0043,1542
25276,12.6366,3.5877,15.8915,1517
25281,-2.0351,-5.1344,17.9541,1555
25286,-13.2866,-0.2131,6.8893,1527
25291,-5.0051,6.4512,3.8559,1519
25296,11.4024,5.9364,14.206,1517
25301,7.4077,-6.3758,16.599,1525
25306,-9.3326,0.3579,9.7085,1547
25311,-11.3701,4.8937,3.9409,1529
25316,6.5469,6.2261,10.0114,1531
25321,11.5173,-3.1412,15.9406,1523
25326,-10.0257,-1.3132,14.3089,1541
25331,-12.9371,3.0801,4.7764,1528
25336,4.3311,6.6331,7.1371,1527
25341,14.6106,0.1472,15.2307,1524
25346,-7.4424,-3.1113,17.7781,1529
25351,-12.5648,0.8009,5.8419,1544
25356,-1.4497,6.869,3.8942,1523
25361,11.7555,3.8128,15.6952,1523
25366,0.2394,-5.6264,17.2466,1527
25371,-12.5277,-0.0946,7.677,1531
25376,-6.3195,6.1842,3.8942,1532
25381,10.8876,6.1435,13.4171,1527
25386,9.1028,-6.1866,15.9837,1531
25391,-9.651,0.4585,11.0887,1544
25396,-12.1961,4.4077,4.4101,1515
25401,5.9388,6.116,8.8957,1531
25406,11.8896,-2.4888,15.8149,1509
25411,-9.5074,-1.5431,15.0344,1554
25416,-12.8808,2.636,5.2014,1513
25421,3.5135,6.5829,6.3901,1541
25426,14.4801,1.1959,15.2068,1529
25431,-5.8179,-3.6452,18.075,1532
25436,-11.5987,0.6357,6.2525,1531
25441,-2.903,6.7648,3.4512,1530
25446,10.756,4.4005,15.1589,1544
25451,2.2829,-5.6683,16.9246,1516
25456,-11.7819,0.0156,8.588,1525
25461,-7.6315,6.0537,3.9073,1531
25466,10.2197,6.0753,12.7455,1515
25471,10.5836,-5.6635,15.6365,1541
25476,-10.0281,0.6488,12.1063,1523
25481,-12.9347,4.0917,4.4891,1551
25486,4.7848,5.8586,7.7405,1528
25491,12.8102,-1.6376,16.2255,1517
25496,-8.7293,-1.8938,15.5072,1545
25501,-13.0233,2.4157,5.4803,1526
25506,2.1356,6.5649,5.7329,1545
25511,14.3329,1.6125,15.6509,1519
25516,-4.1492,-4.3551,17.6441,1519
25521,-10.9223,0.7254,6.4883,1548
25526,-4.3574,6.7074,3.383,1523
25531,10.1969,4.4484,14.9039,1541
25536,4.057,-5.7329,16.6684,1514
25541,-11.6286,0.0251,9.2249,1554
25546,-8.5952,5.6767,3.9456,1523
25551,9.5385,6.1938,11.8645,1523
25556,11.8058,-5.2026,15.4534,1543
25561,-10.0987,0.4621,13.1298,1525
25566,-13.5177,3.5326,4.7465,1543
25571,4.2737,5.9472,6.9671,1522
25576,13.0795,-0.5207,16.1501,1516
25581,-7.7584,-2.5067,16.2363,1525
25586,-13.2292,1.7166,5.8143,1530
25591,1.239,6.5194,5.12,1545
25596,14.042,2.8072,15.4175,1515
25601,-2.4134,-4.9763,17.9769,1544
25606,-10.7284,0.3663,6.9348,1527
25611,-5.3941,6.3482,3.2382,1519
25616,9.7659,5.2002,14.0875,1529
25621,5.7892,-5.5486,16.6744,1543
25626,-11.7507,-0.2789,9.7791,1533
25631,-9.4679,5.3127,4.0366,1511
25636,8.7317,6.3506,10.8924,1519
25641,12.9861,-4.3646,15.4522,1511
25646,-10.009,0.152,14.2742,1543
25651,-13.5057,3.0083,4.9967,1525
25656,3.3411,6.0849,5.8191,1527
25661,12.9012,0.3974,16.5032,1519
25666,-6.3111,-3.286,16.6241,1517
25671,-12.9454,1.5155,6.1028,1531
25676,-0.1305,6.511,4.5526,1508
25681,13.386,3.5303,15.5515,1523
25686,-0.516,-5.6671,17.6405,1541
25691,-11.4718,0.3915,7.2951,1526
25696,-6.4057,6.2932,3.2956,1526
25701,9.9395,5.3846,13.477,1527
25706,7.8123,-5.7174,16.526,1523
25711,-10.2232,0.0802,10.5309,1527
25716,-10.9678,4.8973,4.2138,1525
25721,7.2592,6.1842,9.8761,1527
25726,13.3201,-3.4177,15.6102,1508
25731,-9.7827,-0.5016,14.7758,1541
25736,-14.1988,2.6983,5.029,1517
25741,2.8898,6.3841,5.9245,1525
25746,14.0707,0.893,16.0495,1514
25751,-6.5074,-3.3459,17.4166,1515
25756,-14.3161,0.8655,6.1184,1542
25761,-1.5742,6.6188,4.4065,1509
25766,13.3716,4.3958,15.1397,1533
25771,1.7753,-6.1435,17.5291,1532
25776,-9.4954,0.5315,7.859,1525
25781,-8.193,6.0777,3.4668,1523
25786,7.6399,5.5689,12.5301,1527
25791,8.4874,-4.9237,16.3021,1545
25796,-10.4291,-0.4968,11.6993,1523
25801,-10.9798,4.6495,4.1779,1531
25806,6.772,6.3303,9.232,1523
25811,14.1593,-2.6624,15.3863,1512
25816,-9.7827,-0.9014,15.9406,1553
25821,-15.184,2.1799,5.1272,1566
25826,1.8663,6.3698,5.0901,1533
25831,14.1246,1.9632,16.1597,1519
25836,-4.8255,-4.0235,17.7805,1518
25841,-13.9426,0.3472,6.2429,1548
25846,-2.7964,6.4895,3.9421,1527
25851,12.4917,5.047,14.8728,1549
25856,3.474,-6.1423,17.51,1527
25861,-9.5038,0.0766,8.3378,1526
25866,-8.7173,5.4444,3.401,1524
25871,8.3869,6.4643,11.7974,1528
25876,10.6183,-4.8411,16.265,1518
25881,-10.3717,-0.5926,12.1506,1529
25886,-11.9626,3.7409,4.2521,1545
25891,5.4289,6.7181,8.6107,1525
25896,15.2391,-1.33,15.0811,1513
25901,-9.1506,-1.9417,17.2179,1541
25906,-13.441,1.2905,5.5952,1519
25911,0.8583,6.3482,4.2246,1556
25916,11.6322,3.2765,15.6928,1527
25921,-2.6659,-4.9536,17.7027,1549
25926,-12.5516,0.073,7.0737,1523
25931,-3.5937,6.3686,3.7637,1525
25936,11.74,5.9747,14.2599,1544
25941,5.4863,-6.3937,17.0168,1519
25946,-9.9922,0.1018,9.2165,1533
25951,-9.9431,5.2648,3.6033,1518
25956,7.6591,6.4189,10.823,1543
25961,12.3864,-4.1695,15.9143,1517
25966,-9.5181,-0.4381,13.629,1543
25971,-14.1042,3.4141,4.6926,1529
25976,4.2449,6.5469,7.0976,1527
25981,14.4753,-0.6548,15.8903,1485
25986,-8.254,-2.2853,16.8971,1531
25991,-15.4139,1.5502,5.4815,1519
25996,-0.267,6.5314,4.6974,1519
26001,14.303,3.3291,15.791,1501
26006,-0.9828,-5.6383,17.8655,1546
26011,-10.2771,0.6416,6.9755,1529
26016,-6.62,6.5242,3.2765,1523
26021,9.3326,5.1176,14.1042,1549
26026,6.6439,-5.5186,16.2854,1519
26031,-11.0456,-0.0886,10.398,1557
26036,-9.8629,5.4492,3.7326,1523
26041,7.5693,6.2333,10.7847,1532
26046,13.7295,-4.1456,15.5288,1511
26051,-10.4315,-0.1939,14.5232,1531
26056,-14.9793,3.3555,4.61,1523
26061,3.1161,6.3171,6.2345,1543
26066,14.8764,0.0108,16.3332,1523
26071,-6.7947,-3.0921,16.9833,1513
26076,-14.1677,1.415,5.8107,1517
26081,-1.4222,6.7409,4.4329,1513
26086,13.4746,3.3004,15.9131,1518
26091,0.6357,-5.8598,17.2778,1543
26096,-10.8038,0.5746,7.3287,1543
26101,-7.0749,6.256,3.4022,1533
26106,9.7719,5.3331,13.4698,1512
26111,9.1758,-6.0442,16.3596,1543
26116,-10.3525,0.4262,10.7679,1513
26121,-11.7783,4.9344,3.9169,1523
26126,6.3231,6.2261,9.8067,1526
26131,14.7986,-3.4644,15.609,1512
26136,-10.0221,-0.7075,15.1649,1544
26141,-14.8165,2.6683,4.9416,1516
26146,2.3906,6.4572,5.7904,1541
26151,14.7387,0.9637,16.2075,1529
26156,-5.9185,-3.7864,17.5471,1519
26161,-14.6741,0.8571,5.9759,1529
26166,-2.1189,6.4224,4.2713,1532
26171,13.1717,4.7321,15.0631,1553
26176,2.9054,-6.5338,17.4513,1531
26181,-9.7636,0.4872,8.1594,1529
26186,-9.1183,6.0358,3.5662,1523
26191,8.8107,5.9017,12.1997,1529
26196,9.4607,-4.8626,16.1824,1527
26201,-10.7859,-0.6416,12.147,1499
26206,-11.5077,4.4377,4.1851,1545
26211,6.0047,6.5505,8.9519,1517
26216,14.7866,-2.2984,15.1744,1511
26221,-9.5756,-1.4772,16.3548,1548
26226,-14.1593,1.9513,5.4217,1553
26231,1.3719,6.608,4.9608,1545
26236,13.5069,1.9393,15.9466,1528
26241,-4.0103,-4.5059,17.3675,1543
26246,-14.0887,0.6165,6.6547,1559
26251,-3.2669,6.5565,4.1659,1529
26256,12.5289,5.0745,14.6633,1547
26261,4.7441,-6.602,16.915,1532
26266,-9.7252,0.6045,8.8992,1533
26271,-10.1514,5.7652,3.8307,1516
26276,7.7464,5.8035,11.1917,1517
26281,10.1945,-4.2856,15.9813,1529
26286,-10.4327,-0.844,13.1035,1509
26291,-12.1566,4.0187,4.6244,1532
26296,5.3606,6.5589,8.3318,1523
26301,14.6633,-1.4772,15.02,1513
26306,-8.928,-2.0027,16.7331,1523
26311,-14.2012,1.5179,5.63,1525
26316,0.4154,6.6667,4.786,1543
26321,13.4183,2.733,15.5503,1523
26326,-2.5271,-5.0434,17.5196,1517
26331,-12.8988,0.158,7.0809,1533
26336,-4.7669,6.5446,4.1216,1517
26341,11.6586,5.5354,13.9977,1532
26346,6.274,-6.4272,16.4937,1491
26351,-9.4643,0.4094,9.8126,1589
26356,-10.8445,5.205,4.1575,1529
26361,7.5286,6.2896,10.4998,1530
26366,11.388,-3.559,15.5623,1493
26371,-10.3214,-1.0139,13.9558,1549
26376,-12.6713,3.4393,4.7381,1533
26381,4.8926,6.5505,7.531,1531
26386,15.1086,-0.0946,14.8381,1485
26391,-8.0325,-2.6145,17.8979,1579
26396,-13.6074,0.9182,5.8395,1528
26401,-0.3986,6.4751,3.8176,1525
26406,12.2823,3.8607,15.7048,1563
26411,-0.7063,-5.0985,17.6943,1547
26416,-13.3166,-0.1688,7.3969,1527
26421,-4.7405,6.2046,3.565,1541
26426,11.1761,6.2225,13.8337,1519
26431,8.2325,-6.3375,16.6768,1529
26436,-9.493,0.3603,10.0808,1549
26441,-12.4139,5.0865,3.5015,1527
26446,6.8366,6.341,9.5804,1527
26451,13.0592,-3.371,16.2399,1511
26456,-10.1957,-1.0714,14.3999,1531
26461,-13.8217,3.2561,4.3407,1517
26466,3.3806,6.4691,6.9552,1523
26471,15.8329,0.5004,15.5515,1531
26476,-7.5525,-3.3591,18.2378,1541
26481,-14.0863,0.8583,5.6695,1523
26486,-1.403,6.2764,3.6129,1519
26491,13.2244,4.6232,15.7467,1523
26496,0.4393,-5.9735,18.1708,1519
26501,-12.214,-0.2143,7.4484,1545
26506,-6.0657,5.8802,3.3854,1531
26511,10.0892,6.4248,13.3848,1528
26516,9.5612,-6.2896,16.6325,1529
26521,-9.6055,0.2753,10.6925,1527
26526,-13.125,4.7956,3.6727,1517
26531,6.104,6.4404,8.9184,1541
26536,13.9307,-2.9544,16.277,1517
26541,-9.9359,-1.1432,15.0128,1547
26546,-14.7854,2.8635,4.5801,1528
26551,2.2877,6.523,6.3482,1544
26556,15.5875,1.233,15.6712,1515
26561,-6.0346,-4.0977,18.0954,1519
26566,-12.1913,0.723,6.0047,1519
26571,-2.9497,6.5338,3.5051,1527
26576,11.9471,4.6519,15.4941,1549
26581,2.2553,-5.8299,17.2071,1523
26586,-12.1386,-0.0886,8.2672,1522
26591,-6.9109,5.8993,3.5745,1524
26596,9.499,6.4153,12.815,1528
26601,11.1474,-5.9484,15.9526,1524
26606,-10.2687,0.4286,11.8573,1545
26611,-13.8888,4.3539,4.0498,1555
26616,5.4085,6.3123,8.3342,1528
26621,14.4251,-2.1033,15.925,1500
26626,-9.5505,-1.6532,15.773,1547
26631,-15.0057,2.2565,5.0578,1519
26636,1.6089,6.5805,5.9675,1547
26641,15.0368,2.0231,15.3229,1519
26646,-4.44,-4.7669,18.0128,1533
26651,-11.4395,0.4693,6.4631,1544
26656,-4.0749,6.5829,3.5973,1561
26661,11.3605,5.0506,14.7758,1548
26666,3.8966,-5.9221,16.9905,1525
26671,-11.74,-0.2646,8.9675,1544
26676,-7.9523,5.6383,3.7409,1515
26681,8.7688,6.5829,12.1147,1531
26686,12.2056,-5.3403,15.4402,1532
26691,-10.4938,0.0982,13.046,1528
26696,-14.0552,3.7266,4.5203,1525
26701,4.9416,6.4931,7.6591,1523
26706,13.8995,-1.2198,15.5707,1518
26711,-8.7568,-2.3427,16.3811,1547
26716,-14.7088,1.8914,5.3989,1553
26721,0.899,6.6583,5.6336,1533
26726,14.5364,2.7677,14.9865,1515
26731,-2.6971,-5.272,18.0307,1543
26736,-10.8493,0.4369,6.8354,1497
26741,-5.2984,6.614,3.6188,1532
26746,10.5848,5.2038,14.133,1529
26751,5.4145,-5.7341,16.5439,1529
26756,-11.3246,-0.2394,9.8414,1545
26761,-9.0237,5.3858,3.9552,1519
26766,8.2277,6.614,11.4299,1523
26771,13.028,-4.6866,15.123,1524
26776,-10.5393,-0.0443,13.9331,1591
26781,-14.4706,3.1831,4.707,1526
26786,4.2653,6.5817,7.0354,1527
26791,14.3449,-0.3591,15.3277,1519
26796,-8.169,-2.6456,17.182,1531
26801,-14.8752,1.166,5.6072,1512
26806,0.0802,6.5841,5.2565,1531
26811,13.9917,3.7481,14.7674,1517
26816,-1.1899,-5.7736,18.1696,1543
26821,-10.3884,0.0215,7.1371,1543
26826,-6.4679,6.2058,3.6236,1549
26831,10.331,6.1184,13.5201,1525
26836,6.8726,-5.6012,16.4817,1515
26841,-10.9032,-0.6285,10.5022,1530
26846,-9.8545,4.859,3.9373,1515
26851,7.5693,7.1491,10.7248,1527
26856,13.8145,-3.7912,14.8201,1516
26861,-10.3166,-0.5267,15.0093,1529
26866,-14.6346,2.5917,4.9536,1525
26871,3.5039,6.6942,6.2991,1527
26876,14.0456,0.6488,15.3468,1523
26881,-7.1467,-3.1292,17.6441,1527
26886,-14.777,0.9732,5.8742,1532
26891,-0.8009,6.5218,4.7034,1527
26896,13.6182,4.4113,14.9278,1531
26901,0.7614,-6.0142,18.0116,1525
26906,-10.0688,0.2825,7.434,1531
26911,-7.6854,6.1734,3.3112,1576
26916,9.7001,6.0346,13.1011,1515
26921,8.6479,-5.4648,16.4913,1544
26926,-11.0337,-0.3986,11.0492,1529
26931,-10.7212,4.883,3.7493,1519
26936,6.4272,6.6068,10.0365,1523
26941,15.0296,-3.3818,15.378,1512
26946,-10.4567,-0.5734,15.5456,1549
26951,-15.7323,2.6444,4.531,1525
26956,2.223,6.3351,5.7952,1525
26961,15.4498,1.3659,16.095,1507
26966,-5.9424,-3.9253,18.148,1529
26971,-13.4183,0.6009,5.8814,1547
26976,-2.381,6.3997,3.9002,1523
26981,12.9155,4.8734,15.354,1549
26986,2.5331,-6.4775,17.9266,1517
26991,-11.2611,0.018,7.7644,1540
26996,-7.744,5.7233,3.3327,1525
27001,9.1447,6.7121,12.5803,1531
27006,11.5592,-5.8945,16.3237,1531
27011,-9.8725,0.1724,11.74,1546
27016,-13.9785,4.2126,3.9014,1544
27021,5.3498,6.6846,8.3582,1529
27026,15.2211,-1.962,15.8269,1515
27031,-9.7037,-1.549,16.3285,1545
27036,-15.3995,1.9417,4.8842,1529
27041,1.3815,6.4021,5.5605,1580
27046,15.196,2.7677,15.4869,1527
27051,-4.4532,-4.9632,18.8388,1549
27056,-12.1326,0.1185,6.2956,1541
27061,-4.1216,6.2261,3.4189,1527
27066,11.7855,5.9113,14.5304,1545
27071,4.7082,-6.5637,17.5758,1515
27076,-10.7667,-0.2442,8.6826,1532
27081,-8.9399,5.4073,3.5015,1525
27086,8.1762,6.9587,11.6394,1517
27091,12.8054,-5.1667,15.8903,1515
27096,-10.0724,-0.0862,13.0352,1542
27101,-14.467,3.614,4.2449,1607
27106,4.3814,6.6283,7.3562,1517
27111,15.0116,-0.8284,15.7299,1533
27116,-9.0836,-2.2901,17.0563,1517
27121,-15.1194,1.4736,5.1834,1528
27126,0.3531,6.4859,5.1583,1527
27131,14.522,3.4895,15.2343,1519
27136,-2.387,-5.6527,18.652,1543
27141,-11.2192,0.0634,6.6307,1517
27146,-5.6132,6.2656,3.4058,1541
27151,10.8924,6.1854,13.957,1528
27156,6.6786,-6.4416,17.1293,1513
27161,-10.6913,-0.2646,9.5134,1530
27166,-9.9862,5.1308,3.6284,1467
27171,7.3729,7.082,10.9044,1547
27176,13.8852,-4.3,15.3624,1507
27181,-10.3394,-0.4489,14.2311,1530
27186,-14.6549,2.8443,4.6723,1515
27191,3.6715,6.7588,6.6511,1528
27196,14.6789,0.1592,15.4498,1531
27201,-7.8805,-3.0358,17.6453,1523
27206,-14.6848,0.9313,5.5641,1529
27211,-0.5698,6.5817,4.865,1509
27216,13.6888,4.215,14.9171,1515
27221,-0.1389,-6.1531,18.3168,1527
27226,-10.3465,0.1077,7.1419,1531
27231,-7.1658,6.2525,3.5099,1548
27236,10.0497,6.2525,13.2268,1503
27241,8.0888,-5.8131,16.5284,1527
27246,-10.7811,-0.4334,10.6734,1559
27251,-10.5967,4.7752,3.887,1525
27256,6.7445,6.9971,10.1969,1523
27261,14.5316,-3.4285,15.0547,1515
27266,-10.1825,-0.8188,15.4462,1547
27271,-14.3113,2.2865,4.9979,1525
27276,2.8503,6.7169,5.8742,1547
27281,13.6481,1.0882,15.5264,1507
27286,-6.2058,-3.7122,17.7614,1527
27291,-14.2204,0.6764,6.0226,1533
27296,-1.4365,6.4955,4.4987,1515
27301,12.9335,4.9536,14.613,1543
27306,2.1177,-6.4811,17.9589,1531
27311,-9.9695,0.1018,7.8386,1531
27316,-8.4803,5.9496,3.4656,1528
27321,9.2392,6.5326,12.4044,1531
27326,9.681,-5.3606,16.2255,1523
27331,-10.5668,-0.4944,11.6909,1509
27336,-11.6717,4.3335,3.9911,1554
27341,5.8861,6.9815,9.4715,1518
27346,15.0021,-2.393,14.9278,1510
27351,-9.9766,-1.342,16.4889,1549
27356,-14.2635,1.8136,5.1787,1525
27361,1.7801,6.6834,5.2014,1553
27366,13.6613,2.0063,15.5994,1533
27371,-4.8207,-4.3227,18.0283,1545
27376,-13.787,0.3268,6.3267,1531
27381,-2.4983,6.3446,4.2533,1515
27386,12.2811,5.4803,14.5077,1525
27391,4.1372,-6.6583,17.5064,1519
27396,-9.6869,0.1712,8.4324,1547
27401,-9.6786,5.6731,3.4895,1517
27406,8.4587,6.614,11.6514,1528
27411,10.9607,-4.8399,16.0148,1525
27416,-10.2927,-0.5291,12.6103,1529
27421,-12.6426,3.8702,4.2078,1545
27426,5.0889,6.9264,8.5222,1531
27431,15.2391,-1.4269,14.8728,1524
27436,-9.2692,-1.9896,17.2538,1528
27441,-13.8852,1.2629,5.4348,1531
27446,0.753,6.5853,4.6232,1544
27451,13.1633,3.049,15.5515,1517
27456,-3.1125,-4.7645,18.1624,1545
27461,-13.3573,-0.1185,6.7205,1527
27466,-3.5326,6.1004,3.8666,1519
27471,11.5077,6.1579,14.0456,1532
27476,6.2405,-6.6954,17.1904,1527
27481,-9.5301,0.1221,9.2775,1548
27486,-11.1486,5.2589,3.559,1527
27491,7.6962,6.7924,10.6446,1533
27496,12.3289,-4.2174,15.8424,1519
27501,-10.1742,-0.6788,13.6805,1528
27506,-13.8086,3.3351,4.4125,1529
27511,4.1144,6.9276,7.6698,1527
27516,15.3085,-0.31,14.9566,1531
27521,-8.278,-2.8276,17.9074,1519
27526,-12.9299,0.8643,5.7245,1523
27531,-0.6357,6.7265,4.2138,1561
27536,12.39,3.6595,15.3672,1519
27541,-1.0056,-5.2768,17.7734,1529
27546,-12.5444,-0.1269,7.4136,1517
27551,-4.8614,6.177,3.7661,1527
27556,10.6913,6.3446,13.6326,1513
27561,8.2612,-6.3446,16.6158,1515
27566,-9.5146,0.3029,10.1825,1541
27571,-12.2236,4.9859,3.7804,1519
27576,6.7912,6.5386,9.6822,1525
27581,13.1118,-3.3531,15.8305,1517
27586,-9.9707,-0.9589,14.5627,1545
27591,-14.3018,3.0323,4.5729,1519
27596,3.1568,6.6906,6.9923,1523
27601,15.445,0.5758,15.1876,1522
27606,-7.0952,-3.5075,18.2175,1525
27611,-12.5971,0.6979,5.8502,1525
27616,-1.9597,6.5841,3.8104,1519
27621,12.2858,4.3898,15.4378,1549
27626,0.9337,-5.7114,17.7195,1527
27631,-12.1829,-0.2753,7.78,1519
27636,-6.0885,5.9256,3.626,1531
27641,9.8617,6.517,13.1849,1517
27646,10.0449,-6.2369,16.2087,1548
27651,-9.9359,0.2789,11.1175,1523
27656,-13.1645,4.5238,3.9265,1525
27661,6.1196,6.681,8.9411,1525
27666,13.872,-2.648,15.688,1511
27671,-9.7312,-1.312,15.4965,1517
27676,-14.8069,2.4086,4.8722,1513
27681,2.3355,6.8678,6.3159,1560
27686,14.9027,1.5024,15.0787,1511
27691,-5.5641,-4.2186,18.3958,1531
27696,-11.6215,0.4034,6.2321,1545
27701,-3.1208,6.6595,3.6512,1517
27706,11.4239,4.7872,14.8656,1544
27711,2.6516,-5.7329,17.3783,1519
27716,-11.7579,-0.3472,8.4563,1544
27721,-7.1383,5.8035,3.6308,1523
27726,9.2883,6.6463,12.5169,1523
27731,11.2851,-5.7054,15.791,1531
27736,-10.0652,0.1604,12.2188,1530
27741,-13.7164,4.0594,4.312,1555
27746,5.5857,6.6319,8.1786,1530
27751,13.5979,-1.816,15.7179,1511
27756,-9.2835,-1.8902,16.1106,1527
27761,-14.6968,2.1955,4.9608,1533
27766,1.8435,6.7361,5.8969,1557
27771,14.7591,2.235,15.123,1517
27776,-4.3371,-4.7872,18.5563,1549
27781,-11.3832,0.3783,6.3626,1523
27786,-4.0869,6.5793,3.4022,1518
27791,11.2324,5.1511,14.7076,1529
27796,4.1013,-5.8407,17.1844,1515
27801,-11.4742,-0.3926,8.9316,1547
27806,-7.8243,5.5809,3.5721,1525
27811,8.7041,6.7852,12.1494,1516
27816,12.2739,-5.2816,15.6485,1525
27821,-10.1825,0.0766,12.9287,1523
27826,-14.3293,3.7409,4.2042,1541
27831,4.8937,6.6714,7.6028,1528
27836,14.5328,-1.2294,15.6473,1519
27841,-8.9807,-2.0949,16.8552,1531
27846,-15.1697,1.634,5.1954,1525
27851,0.9361,6.7732,5.3498,1533
27856,14.3676,2.8886,15.1768,1531
27861,-3.1125,-5.211,18.6425,1553
27866,-11.0241,0.1353,6.5769,1525
27871,-4.9536,6.3758,3.4046,1519
27876,11.0313,5.8766,14.2263,1525
27881,5.3989,-6.1327,17.2083,1528
27886,-11.0911,-0.4812,9.3063,1549
27891,-8.8166,5.2122,3.6105,1541
27896,7.9715,7.0761,11.5053,1523
27901,13.1585,-4.8076,15.3744,1509
27906,-10.1861,-0.1891,13.7619,1541
27911,-14.3676,3.2034,4.561,1528
27916,4.3036,6.7612,6.9252,1525
27921,13.8696,-0.4884,15.7048,1531
27926,-8.2049,-2.733,17.1892,1519
27931,-14.7531,1.4054,5.4312,1531
27936,0.3412,6.6487,5.0961,1525
27941,13.9426,3.6763,14.9901,1519
27946,-1.4293,-5.8419,18.4521,1541
27951,-10.5141,0.1209,6.9635,1533
27956,-6.1938,6.2501,3.3938,1533
27961,10.3872,6.1519,13.7331,1524
27966,6.8797,-5.9268,16.6828,1524
27971,-10.9415,-0.5447,10.2053,1527
27976,-9.6702,4.9668,3.7864,1515
27981,7.5381,7.1228,10.8254,1528
27986,13.8062,-4.0067,15.0404,1523
27991,-10.2556,-0.5423,14.8476,1563
27996,-14.7088,2.6252,4.8028,1527
28001,3.6033,6.7732,6.3183,1524
28006,13.969,0.5064,15.3504,1501
28011,-7.3298,-3.2872,17.7446,1522
28016,-14.6621,0.7793,5.8107,1519
28021,-0.6464,6.5972,4.7848,1527
28026,13.2938,4.5011,14.6872,1541
28031,0.4477,-6.2429,18.2318,1523
28036,-10.0389,-0.0239,7.4124,1527
28041,-7.4196,6.0753,3.4417,1528
28046,9.7552,6.5003,12.9646,1517
28051,8.2373,-5.5557,16.3739,1547
28056,-10.6698,-0.6129,11.151,1543
28061,-10.8421,4.5598,4.0642,1526
28066,6.7325,7.0988,10.0568,1531
28071,14.1797,-3.1639,14.6645,1527
28076,-10.1335,-1.0331,15.779,1557
28081,-13.9067,2.0782,5.2014,1528
28086,2.6899,6.9049,5.6599,1551
28091,13.0376,1.1815,15.2594,1512
28096,-5.6479,-3.9768,17.674,1517
28101,-13.9055,0.6704,6.274,1555
28106,-1.6783,6.675,4.4867,1522
28111,12.5839,4.877,14.4598,1531
28116,2.496,-6.3961,17.6022,1529
28121,-9.6642,0.2047,8.1762,1543
28126,-8.6167,5.9017,3.6164,1523
28131,8.8921,6.2572,12.1039,1525
28136,9.3853,-4.8279,16.0124,1523
28141,-10.5931,-0.7219,12.1015,1530
28146,-11.4012,4.2701,4.1803,1555
28151,6.1986,6.8702,9.1949,1511
28156,14.6848,-2.2721,14.8153,1511
28161,-9.7671,-1.3324,16.4937,1529
28166,-14.6154,1.7801,5.2074,1527
28171,1.7442,6.6439,5.1332,1555
28176,13.6924,2.1967,15.5515,1512
28181,-4.6459,-4.276,18.1528,1558
28186,-13.9199,0.2239,6.3973,1541
28191,-2.66,6.371,4.1563,1518
28196,12.1434,5.5067,14.4406,1511
28201,4.282,-6.5565,17.5758,1527
28206,-9.4942,0.1353,8.4755,1533
28211,-9.8043,5.6048,3.4919,1515
28216,8.576,6.7145,11.5568,1525
28221,10.7428,-4.7417,16.034,1525
28226,-10.5058,-0.8428,12.7443,1517
28231,-12.2416,3.8571,4.0989,1529
28236,5.284,6.9623,8.6503,1523
28241,15.1242,-1.3827,14.8548,1531
28246,-9.3589,-2.0123,17.3927,1519
28251,-14.619,1.3204,5.3247,1542
28256,0.9493,6.5721,4.5969,1531
28261,13.5667,3.1711,15.4606,1517
28266,-3.395,-4.9309,18.4437,1544
28271,-13.3632,-0.1915,6.6667,1545
28276,-3.7314,6.3039,3.9037,1507
28281,11.491,6.0549,14.2036,1523
28286,5.873,-6.5673,17.1964,1523
28291,-9.3577,0.0838,9.1399,1575
28296,-10.7284,5.3654,3.6392,1524
28301,7.9164,6.7516,10.8565,1555
28306,11.3581,-4.2054,15.7945,1511
28311,-10.3837,-1.0211,13.556,1545
28316,-12.9443,3.541,4.3048,1530
28321,4.6112,6.9971,7.9715,1531
28326,15.1038,-0.6716,14.8105,1519
28331,-8.7269,-2.5953,17.8344,1512
28336,-13.6685,0.9792,5.5498,1529
28341,-0.0491,6.6619,4.3275,1529
28346,12.876,3.5434,15.4199,1524
28351,-1.8663,-5.2672,18.1923,1540
28356,-12.8245,-0.231,7.0198,1529
28361,-4.4819,6.1339,3.8523,1527
28366,10.8541,6.3506,13.7858,1521
28371,7.4843,-6.6391,16.7319,1533
28376,-9.5457,0.1568,9.8665,1532
28381,-11.5544,5.0135,3.8654,1533
28386,7.4831,6.8283,10.24,1545
28391,11.9315,-3.6296,15.6174,1519
28396,-10.24,-1.2594,14.3856,1553
28401,-13.5081,3.0837,4.6088,1523
28406,4.1396,6.9887,7.4436,1529
28411,14.9757,0.1448,14.6896,1517
28416,-7.9966,-3.146,18.2582,1519
28421,-12.8688,0.6656,5.8035,1543
28426,-0.9876,6.6894,4.1192,1529
28431,12.3014,4.1264,15.1924,1547
28436,-0.4022,-5.5833,17.9158,1525
28441,-12.3265,-0.3124,7.5561,1530
28446,-5.3786,6.0765,3.7888,1526
28451,10.3896,6.5793,13.386,1516
28456,8.6945,-6.3171,16.2973,1531
28461,-9.5433,0.1808,10.7272,1542
28466,-12.1949,4.5993,4.0905,1532
28471,6.9994,6.8773,9.4284,1519
28476,12.1206,-2.909,15.4258,1502
28481,-9.9288,-1.658,15.1397,1554
28486,-13.6709,2.7557,4.8554,1513
28491,3.5243,6.9264,6.863,1543
28496,14.6681,0.8739,14.6836,1515
28501,-6.8618,-3.7302,18.3408,1533
28506,-12.6569,0.4022,6.0334,1544
28511,-1.9992,6.626,3.9253,1529
28516,12.1602,4.6519,14.9302,1549
28521,1.1133,-5.9077,17.6908,1520
28526,-11.5915,-0.3424,7.9428,1517
28531,-6.5709,5.8909,3.8331,1523
28536,9.8246,6.6212,12.9263,1523
28541,9.9611,-5.9149,15.9286,1541
28546,-9.7312,0.1975,11.5975,1515
28551,-12.5708,4.2102,4.3742,1555
28556,6.3889,6.7864,8.6957,1523
28561,12.3301,-2.2984,15.3863,1513
28566,-9.578,-1.9309,15.7586,1527
28571,-13.8648,2.4169,5.1236,1523
28576,2.7761,6.9037,6.3183,1533
28581,14.4634,1.6149,14.7758,1523
28586,-5.466,-4.2713,18.4294,1545
28591,-12.0787,0.3124,6.2656,1529
28596,-2.9556,6.5817,3.723,1515
28601,11.6406,4.9859,14.7471,1531
28606,2.8012,-6.0154,17.3999,1523
28611,-11.2887,-0.3484,8.4228,1547
28616,-7.4747,5.6348,3.7757,1517
28621,9.1985,6.7433,12.4044,1518
28626,11.1809,-5.5905,15.6988,1519
28631,-9.9742,0.1233,12.3337,1530
28636,-13.2758,3.8164,4.4951,1533
28641,5.7066,6.8151,8.0493,1524
28646,12.7886,-1.731,15.4222,1517
28651,-9.0597,-2.2721,16.2937,1525
28656,-14.0061,2.0602,5.2301,1532
28661,1.9752,6.7852,5.8778,1547
28666,14.267,2.4134,14.777,1533
28671,-4.2102,-4.8411,18.518,1547
28676,-11.7675,0.2514,6.4524,1523
28681,-4.0151,6.4919,3.6272,1527
28686,11.3365,5.4875,14.388,1531
28691,4.4556,-6.2776,17.188,1516
28696,-10.659,-0.2334,8.9459,1529
28701,-8.7293,5.4624,3.8307,1525
28706,8.515,6.8426,11.7436,1544
28711,12.2032,-5.1344,15.4163,1512
28716,-10.0975,-0.0311,13.2148,1531
28721,-13.7068,3.4548,4.6124,1533
28726,4.8985,6.8019,7.501,1515
28731,13.4841,-1.1432,15.3899,1528
28736,-8.685,-2.393,16.8025,1515
28741,-14.4682,1.7131,5.3822,1533
28746,0.9948,6.7636,5.4959,1515
28751,14.0947,3.1041,14.8189,1515
28756,-2.5606,-5.3929,18.4581,1530
28761,-10.8697,0.2227,6.7732,1541
28766,-5.2984,6.4236,3.4728,1556
28771,10.7033,5.7138,13.9821,1524
28776,5.6898,-5.8993,16.7989,1529
28781,-11.0911,-0.3926,9.8019,1545
28786,-9.0369,5.193,3.7697,1527
28791,8.0385,6.9719,11.3461,1529
28796,13.0795,-4.634,15.1541,1509
28801,-10.3106,-0.1365,14.1138,1567
28806,-14.4131,3.1017,4.634,1529
28811,4.2844,6.7947,6.8342,1527
28816,13.9043,-0.4274,15.5108,1528
28821,-7.9787,-2.6647,17.2167,1519
28826,-14.5723,1.3288,5.6,1523
28831,0.0239,6.7038,5.0685,1513
28836,13.8002,3.5961,15.0188,1517
28841,-1.148,-5.7688,18.1935,1531
28846,-10.4806,0.1628,7.0545,1531
28851,-6.4524,6.3207,3.5015,1541
28856,10.4471,6.0262,13.6721,1513
28861,6.942,-5.8909,16.5978,1545
28866,-11.0468,-0.4142,10.4351,1525
28871,-9.906,5.0087,3.7996,1529
28876,7.4364,7.033,10.7703,1527
28881,13.8576,-4.1851,15.0224,1511
28886,-10.556,-0.3651,14.7638,1545
28891,-14.7626,2.7102,4.7178,1519
28896,3.5147,6.8115,6.5015,1547
28901,14.5029,0.3819,15.3552,1525
28906,-7.4855,-3.1496,17.7937,1523
28911,-14.3221,0.7685,5.7976,1523
28916,-0.8116,6.6104,4.695,1523
28921,13.3956,4.3359,14.801,1557
28926,0.2358,-6.0669,18.2283,1515
28931,-10.2891,0.0323,7.3694,1529
28936,-7.1204,6.0932,3.4907,1529
28941,10.0233,6.4488,13.1059,1516
28946,8.3785,-5.8849,16.502,1529
28951,-10.6638,-0.3316,10.7727,1541
28956,-10.8302,4.6507,3.8798,1528
28961,6.5936,7.0797,10.064,1527
28966,14.5029,-3.4237,15.0057,1511
28971,-10.3453,-0.8523,15.676,1547
28976,-14.1964,2.2362,4.9728,1524
28981,2.7414,6.8007,5.8646,1554
28986,13.8564,1.0487,15.4378,1522
28991,-6.3051,-3.6452,17.8967,1527
28996,-13.9366,0.6548,6.0525,1545
29001,-1.3647,6.4679,4.5334,1517
29006,12.8569,4.8854,14.601,1531
29011,1.962,-6.4883,18.0367,1531
29016,-10.1598,0.1018,7.7309,1547
29021,-8.1487,5.8766,3.4153,1512
29026,9.2907,6.7014,12.4798,1525
29031,9.8294,-5.7197,16.283,1523
29036,-10.2436,-0.31,11.5341,1518
29041,-12.208,4.2126,4.1061,1547
29046,6.0406,7.118,9.3529,1533
29051,14.7734,-2.5414,14.7938,1513
29056,-9.9515,-1.2893,16.423,1525
29061,-14.3257,1.6472,5.2337,1519
29066,1.98,6.8067,5.454,1515
29071,13.8708,2.1261,15.1074,1515
29076,-5.2732,-4.1911,18.427,1553
29081,-13.6362,-0.0096,6.3518,1527
29086,-2.4792,6.3841,4.2832,1530
29091,12.1781,5.7736,14.1844,1527
29096,3.7996,-6.6307,17.6249,1493
29101,-9.6989,-0.0072,8.418,1543
29106,-9.6438,5.6958,3.7206,1517
29111,8.8466,6.9001,11.7531,1531
29116,10.4579,-5.0973,15.8616,1517
29121,-10.6291,-0.5411,12.6522,1544
29126,-12.5959,3.9911,4.2796,1547
29131,5.3056,7.1778,8.7831,1527
29136,15.0104,-1.8687,14.6441,1527
29141,-9.7109,-1.8531,17.079,1524
29146,-13.2711,1.4485,5.4121,1527
29151,0.6237,7.0892,5.0625,1528
29156,13.2052,2.1811,15.3001,1523
29161,-3.377,-4.8854,17.6129,1543
29166,-12.6929,0.4549,6.7169,1541
29171,-3.9504,6.6547,4.2689,1527
29176,11.5855,5.3163,14.2084,1481
29181,5.7413,-6.8977,16.6397,1525
29186,-10.2975,0.7769,9.2201,1545
29191,-10.4567,5.63,4.0893,1515
29196,8.2325,6.2572,11.2037,1545
29201,11.2599,-4.6747,15.4977,1515
29206,-11.0624,-0.4776,13.4243,1547
29211,-12.7551,4.0402,4.4628,1517
29216,4.6208,6.7947,8.4443,1528
29221,15.3133,-1.3001,14.7782,1523
29226,-8.9723,-2.3667,17.2754,1523
29231,-12.7802,1.5658,5.4504,1529
29236,-0.31,7.0904,4.7704,1519
29241,13.1861,2.2781,15.6389,1521
29246,-1.7777,-5.1487,17.4118,1531
29251,-12.4391,0.7805,6.9911,1541
29256,-4.7477,6.5948,4.0091,1529
29261,11.0385,5.1715,14.1641,1529
29266,7.5633,-6.869,16.338,1531
29271,-10.5908,1.0942,9.7612,1527
29276,-11.3952,5.4612,3.8583,1519
29281,7.4292,6.0262,10.7871,1527
29286,13.052,-4.4772,15.67,1509
29291,-10.9487,-0.3292,13.9881,1563
29296,-13.6733,3.5542,4.3239,1518
29301,3.887,6.6978,7.7991,1549
29306,15.6102,-0.4561,15.0248,1519
29311,-8.3234,-2.9916,17.9793,1527
29316,-13.1825,0.9553,5.4169,1541
29321,-0.8978,6.7169,4.4784,1529
29326,13.1334,3.7493,15.2128,1557
29331,-0.4178,-5.873,18.3109,1523
29336,-11.9183,-0.1664,7.0593,1527
29341,-5.5067,5.9963,3.6452,1527
29346,10.2951,6.5086,13.3632,1523
29351,9.0477,-6.4356,16.6553,1531
29356,-9.7516,0.2526,10.3741,1525
29361,-12.2906,4.6364,3.8295,1541
29366,6.8654,7.0246,9.742,1531
29371,13.9091,-3.2346,15.4318,1516
29376,-10.2496,-0.8176,15.1469,1557
29381,-14.5903,2.5307,4.5047,1531
29386,3.1089,6.8977,6.7708,1548
29391,15.2068,1.148,14.8488,1513
29396,-7.1886,-3.7385,18.9393,1541
29401,-12.7467,0.2909,5.8658,1547
29406,-2.1596,6.5577,3.9085,1519
29411,12.5648,4.889,14.9219,1547
29416,1.3803,-6.1507,18.2486,1528
29421,-11.2252,-0.3017,7.5848,1551
29426,-6.8642,5.7856,3.5003,1517
29431,9.4044,6.6643,12.8281,1515
29436,10.4471,-5.9915,16.3488,1526
29441,-9.7061,0.1796,11.2719,1523
29446,-12.8904,4.2282,3.984,1540
29451,5.9963,6.8678,8.7352,1543
29456,13.6781,-2.4744,15.6868,1528
29461,-9.8761,-1.4521,15.8532,1533
29466,-14.5998,2.1931,4.6771,1529
29471,2.375,6.8079,6.2572,1545
29476,14.8165,1.9046,14.8931,1528
29481,-5.7521,-4.3227,19.2266,1557
29486,-11.8824,0.0204,6.0298,1541
29491,-3.1029,6.4703,3.535,1531
29496,11.7172,5.4396,14.552,1519
29501,2.7557,-5.8849,18.2163,1519
29506,-11.2719,-0.7877,8.1738,1543
29511,-7.1311,5.4396,3.5123,1519
29516,8.9483,7.1443,12.2463,1527
29521,11.4814,-5.4743,16.1094,1512
29526,-9.6223,-0.0886,12.1206,1532
29531,-13.8026,3.7565,4.0654,1529
29536,5.363,6.9504,7.908,1531
29541,14.2359,-1.47,15.5288,1517
29546,-9.3565,-1.816,16.8241,1525
29551,-15.0033,1.6328,4.9297,1528
29556,1.573,6.7421,5.5486,1521
29561,14.3592,2.9317,14.9362,1513
29566,-4.4472,-4.8219,19.4852,1548
29571,-11.7196,-0.1413,6.2489,1531
29576,-3.9085,6.1447,3.2597,1531
29581,11.1127,6.1411,14.2299,1513
29586,4.707,-6.1375,18.1983,1519
29591,-10.5596,-0.6081,8.6431,1545
29596,-8.4443,5.1547,3.3315,1528
29601,7.9476,7.1323,11.4598,1545
29606,12.6917,-4.8363,15.9202,1511
29611,-9.7528,-0.4142,13.2866,1541
29616,-13.9402,3.3315,4.3287,1519
29621,4.4388,6.7612,6.9803,1541
29626,13.6278,-0.6165,15.8029,1509
29631,-8.5006,-2.5845,17.2586,1517
29636,-14.619,1.4629,5.1499,1528
29641,0.7051,6.699,5.0434,1531
29646,13.8301,3.6236,15.0404,1519
29651,-2.1691,-5.5749,19.1273,1541
29656,-10.6781,0.0431,6.6307,1541
29661,-5.539,6.1998,3.1137,1544
29666,10.1586,6.0358,13.6805,1525
29671,6.5541,-5.7952,17.4525,1544
29676,-10.6326,-0.6632,9.6091,1541
29681,-9.0932,4.9464,3.4261,1527
29686,7.2053,7.003,10.7895,1523
29691,13.9247,-4.063,15.5934,1509
29696,-9.9707,-0.48,14.3652,1557
29701,-15.0392,2.9664,4.2868,1524
29706,3.3483,6.5649,6.2417,1549
29711,14.8321,0.5399,15.9609,1501
29716,-7.9045,-2.8611,18.2462,1517
29721,-14.941,0.8559,5.2936,1531
29726,-0.34,6.3027,4.4568,1525
29731,13.6254,4.5645,15.2056,1543
29736,-0.5926,-6.0262,19.4433,1527
29741,-11.297,-0.0634,6.626,1531
29746,-6.2872,5.867,2.7797,1525
29751,9.7312,6.5577,13.2064,1519
29756,9.2129,-6.3722,17.7482,1528
29761,-9.6391,0.1616,9.8318,1527
29766,-11.8621,4.9584,3.0909,1549
29771,6.1208,6.8414,9.7516,1519
29776,15.0236,-3.5781,16.3368,1509
29781,-10.3358,-0.565,15.0033,1541
29786,-15.1086,2.8204,3.9624,1528
29791,2.2865,6.5493,6.0645,1555
29796,15.7862,1.075,16.2004,1525
29801,-7.1383,-3.9229,18.8807,1531
29806,-13.4231,0.6213,5.2756,1531
29811,-2.229,6.4835,3.6129,1519
29816,12.7994,4.689,15.5025,1544
29821,1.4186,-6.5948,18.6951,1517
29826,-11.1486,0.0048,7.1072,1548
29831,-7.1814,5.8718,3.0993,1519
29836,9.2069,6.6164,13.0113,1528
29841,10.7595,-6.2704,16.8767,1528
29846,-9.7995,0.2454,10.8745,1527
29851,-13.0771,4.2784,3.6488,1553
29856,5.6671,6.9336,8.8585,1519
29861,14.7579,-2.5295,15.84,1527
29866,-10.1191,-1.3336,16.0364,1516
29871,-14.8417,2.0063,4.6076,1520
29876,1.919,6.8462,5.9484,1531
29881,14.8656,2.0195,15.2343,1513
29886,-5.8012,-4.5454,19.083,1553
29891,-12.0368,0.146,5.8478,1524
29896,-3.1735,6.5685,3.5829,1518
29901,11.789,5.4085,14.6657,1531
29906,3.0358,-6.2537,18.2139,1517
29911,-10.8661,-0.3496,7.938,1553
29916,-7.5585,5.5462,3.2932,1513
29921,8.6155,6.9767,12.2428,1529
29926,11.807,-5.4708,16.1501,1523
29931,-9.7145,-0.018,12.0883,1529
29936,-13.6074,3.7888,3.984,1546
29941,5.193,6.8606,7.8865,1531
29946,14.1425,-1.6364,15.7826,1529
29951,-9.4607,-1.8914,16.6624,1519
29956,-14.6812,1.7669,4.7944,1523
29961,1.4473,6.7133,5.5629,1527
29966,14.5041,2.8443,15.0523,1511
29971,-4.1432,-5.1607,19.3571,1543
29976,-11.4203,0.0012,6.1794,1531
29981,-4.2904,6.2884,3.3854,1545
29986,11.0852,5.9628,14.1904,1529
29991,4.7154,-6.2381,17.8679,1523
29996,-10.6817,-0.6381,8.831,1527
30001,-8.4551,5.1404,3.5338,1525
30006,8.0912,7.2736,11.4946,1528
30011,12.6438,-4.8064,15.6581,1517
30016,-9.8677,-0.4489,13.4015,1549
30021,-13.6374,2.9939,4.5765,1517
30026,4.6771,7.0102,7.0653,1527
30031,13.1358,-0.498,15.342,1515
30036,-8.5078,-2.794,17.4238,1525
30041,-14.5184,1.081,5.3977,1528
30046,0.808,6.8187,5.1763,1529
30051,13.4698,3.7254,14.6405,1523
30056,-2.3092,-5.4779,19.1548,1529
30061,-10.1598,-0.2334,6.7313,1541
30066,-5.5785,6.2489,3.3208,1543
30071,9.8402,6.0549,13.4913,1515
30076,5.9173,-5.199,17.1592,1542
30081,-10.5022,-0.9074,9.9419,1533
30086,-9.1722,4.956,3.6811,1517
30091,7.7417,7.0545,10.8948,1519
30096,13.2651,-3.7852,15.2822,1525
30101,-10.0724,-0.6345,14.6358,1549
30106,-13.975,2.6492,4.7214,1526
30111,3.8798,6.8163,6.2237,1533
30116,13.0269,0.3855,15.6928,1514
30121,-7.4615,-3.1867,17.8081,1533
30126,-14.3832,0.9038,5.5964,1520
30131,-0.1437,6.8211,4.6902,1523
30136,13.2004,4.1144,14.9075,1545
30141,-0.2909,-5.9053,18.5898,1515
30146,-9.9192,0.0036,7.1072,1522
30151,-6.8378,6.1519,3.2765,1528
30156,9.3685,5.94,13.0257,1517
30161,7.3263,-5.1176,16.7618,1549
30166,-10.6099,-0.8356,10.8386,1530
30171,-10.1179,4.6962,3.7445,1543
30176,7.2233,6.9312,10.2077,1529
30181,13.6757,-3.2429,15.0655,1523
30186,-10.0676,-0.9134,15.4462,1543
30191,-13.7475,2.2194,4.9752,1525
30196,3.1484,6.8905,5.618,1544
30201,12.6809,0.996,15.6521,1523
30206,-6.4033,-3.7026,17.9194,1523
30211,-14.0109,0.6931,5.8347,1590
30216,-0.9708,6.7397,4.3934,1515
30221,12.6318,4.6172,14.7866,1547
30226,1.4593,-6.0956,18.2342,1517
30231,-9.6594,0.1101,7.6291,1545
30236,-7.8111,5.9927,3.3591,1509
30241,8.9112,6.0166,12.5241,1523
30246,8.3833,-4.7525,16.4721,1523
30251,-10.5788,-0.8631,11.6179,1525
30256,-10.7978,4.47,3.7781,1545
30261,6.7648,6.9025,9.5912,1529
30266,14.2862,-2.5247,15.1122,1524
30271,-10.1933,-1.1552,16.265,1532
30276,-14.4741,1.9656,4.8842,1528
30281,2.326,6.699,5.2014,1553
30286,13.562,1.7358,15.7922,1527
30291,-5.7305,-3.875,18.3599,1551
30296,-14.121,0.31,5.9927,1533
30301,-1.8447,6.4871,4.1444,1519
30306,12.3972,5.1811,14.7746,1530
30311,3.0191,-6.3003,18.166,1531
30316,-9.4691,0.0275,7.8458,1548
30321,-8.7053,5.697,3.1771,1524
30326,8.7233,6.5613,11.8465,1527
30331,9.7743,-4.7896,16.5667,1515
30336,-10.343,-1.0702,12.0452,1529
30341,-11.4838,4.0115,3.8499,1533
30346,5.776,7.0449,8.9423,1517
30351,14.8752,-1.8615,15.0296,1518
30356,-9.9802,-1.6867,17.0623,1519
30361,-14.8859,1.4425,5.0554,1531
30366,1.4868,6.5972,4.8518,1523
30371,13.8265,3.0023,15.3804,1511
30376,-4.8554,-4.5454,19.1321,1533
30381,-13.0676,-0.3867,6.2788,1520
30386,-2.9185,6.177,3.7936,1526
30391,11.6382,6.1172,14.1761,1523
30396,4.197,-6.3135,18.1265,1518
30401,-9.0513,-0.4585,8.327,1533
30406,-9.5217,5.1583,3.4357,1517
30411,8.2504,7.2772,11.2516,1541
30416,11.0456,-4.5921,16.1585,1519
30421,-9.8043,-0.917,12.6546,1531
30426,-12.7934,3.3088,4.1755,1519
30431,4.8997,7.349,8.2217,1525
30436,14.8812,-0.8104,14.6214,1517
30441,-9.1542,-2.411,17.9326,1549
30446,-13.1442,0.808,5.5857,1519
30451,0.6584,6.8091,4.3287,1527
30456,11.7938,3.4177,15.2271,1527
30461,-2.788,-4.6747,18.6245,1544
30466,-12.6569,-0.4836,6.8307,1544
30471,-3.5434,6.2812,3.6811,1545
30476,11.0157,6.4177,13.8086,1518
30481,6.3398,-6.2477,17.4513,1541
30486,-9.0621,-0.164,9.2189,1519
30491,-10.8122,4.9895,3.547,1523
30496,7.5393,6.9779,10.3848,1525
30501,11.7244,-3.7362,15.9657,1519
30506,-10.0066,-1.087,13.7726,1561
30511,-13.2148,3.0718,4.2473,1526
30516,4.3215,7.1096,7.6579,1542
30521,14.9733,-0.17,14.546,1518
30526,-8.3665,-2.9257,18.5994,1516
30531,-13.0316,0.6776,5.5354,1543
30536,-0.4489,6.6643,3.9672,1529
30541,11.6765,3.9361,15.3265,1545
30546,-1.227,-4.9979,18.2869,1515
30551,-12.1637,-0.4058,7.2018,1529
30556,-4.5502,6.1531,3.4991,1527
30561,10.5919,6.5577,13.6877,1527
30566,7.9978,-6.3075,16.939,1523
30571,-9.3841,0.0838,9.8174,1523
30576,-11.7507,4.7896,3.5338,1533
30581,6.7493,6.936,9.7899,1529
30586,13.1059,-3.4177,15.9083,1495
30591,-9.7743,-0.8847,14.5795,1546
30596,-14.358,2.8144,4.4329,1525
30601,3.4058,7.0988,6.8558,1543
30606,14.8321,0.4501,15.3768,1513
30611,-7.5154,-3.3806,18.3982,1541
30616,-12.4917,0.68,5.5869,1543
30621,-1.4281,6.7744,3.814,1519
30626,11.9926,4.027,15.5803,1555
30631,0.2011,-5.533,18.2893,1525
30636,-12.3313,-0.2071,7.3143,1548
30641,-5.5976,6.1088,3.4058,1515
30646,9.8078,6.2082,13.3728,1525
30651,9.7037,-6.2692,16.581,1533
30656,-9.6247,0.3795,10.7464,1527
30661,-12.1949,4.6507,3.796,1555
30666,6.3219,6.4608,8.9316,1523
30671,12.2428,-2.7246,16.2087,1513
30676,-9.7899,-1.816,15.281,1551
30681,-13.3644,2.8347,4.4999,1546
30686,3.1484,6.7241,6.3039,1542
30691,14.8249,1.1349,15.5156,1516
30696,-6.7445,-3.9947,18.8244,1547
30701,-13.3908,0.5243,5.6539,1543
30706,-2.2745,6.4596,3.6164,1515
30711,12.0907,4.9021,15.2379,1543
30716,2.1799,-6.2788,18.2558,1523
30721,-10.0066,-0.0982,7.6112,1545
30726,-7.6184,5.7664,3.3543,1547
30731,9.1746,6.523,12.6091,1527
30736,10.2831,-5.7353,16.6828,1511
30741,-9.6989,-0.0335,11.1151,1543
30746,-12.3086,4.3096,3.6236,1548
30751,5.4755,6.7708,8.7388,1542
30756,15.0547,-2.2936,15.6964,1527
30761,-9.6187,-1.4521,16.4649,1528
30766,-14.3221,1.828,4.9033,1546
30771,1.8256,6.6248,5.0182,1533
30776,13.8193,1.98,16.1094,1525
30781,-5.4277,-4.1168,18.4581,1545
30786,-14.1809,0.322,5.9915,1519
30791,-2.1057,6.2991,3.9289,1532
30796,12.2619,5.5725,14.6992,1509
30801,3.7122,-6.6667,18.2366,1531
30806,-9.5888,0.0862,8.0218,1531
30811,-9.2536,5.6539,3.0789,1531
30816,8.4707,6.6619,11.6801,1544
30821,10.5225,-5.0051,16.5332,1525
30826,-10.2268,-0.6752,12.1793,1542
30831,-12.1051,4.0318,3.8511,1531
30836,5.2648,6.9983,8.7209,1529
30841,15.1816,-1.7358,15.2559,1524
30846,-9.6151,-1.9094,17.1772,1525
30851,-13.9175,1.4329,5.2026,1541
30856,1.1576,6.6918,4.5669,1529
30861,13.0424,2.6456,15.8125,1527
30866,-4.0031,-4.6495,18.4006,1531
30871,-13.374,0.0215,6.3985,1541
30876,-2.976,6.347,3.8607,1540
30881,11.6765,5.8873,14.3951,1527
30886,4.9823,-6.693,17.7542,1529
30891,-9.4499,0.0347,8.5449,1541
30896,-10.0712,5.357,3.298,1528
30901,8.0649,6.8319,10.9966,1545
30906,11.2037,-4.5107,16.1944,1525
30911,-10.1933,-0.7961,12.9443,1543
30916,-12.7324,3.6907,4.2258,1497
30921,4.8818,7.1251,8.3103,1525
30926,15.1733,-1.0127,14.9243,1519
30931,-9.1889,-2.2625,17.7662,1519
30936,-13.6829,1.1349,5.1942,1541
30941,0.577,6.7528,4.2844,1517
30946,12.6917,2.9808,15.1457,1533
30951,-2.8311,-4.7609,19.0159,1527
30956,-13.3237,-0.1341,6.7133,1545
30961,-3.7529,6.3363,3.7493,1527
30966,11.3521,6.1124,14.1366,1519
30971,6.4248,-6.7564,17.1604,1529
30976,-9.6235,0.3519,9.1267,1527
30981,-10.8864,5.3953,3.4105,1517
30986,7.4436,6.6367,10.6267,1519
30991,12.2631,-4.2461,16.4015,1517
30996,-10.3106,-0.741,13.5093,1547
31001,-13.2914,3.5626,4.0055,1523
31006,4.2006,6.9073,7.6124,1545
31011,15.4366,-0.5004,15.2343,1513
31016,-8.8514,-2.7988,18.0164,1533
31021,-13.2806,1.0678,5.4827,1530
31026,-0.3519,6.6774,4.1851,1527
31031,12.9047,3.5602,15.6413,1545
31036,-1.7083,-5.3714,18.3025,1528
31041,-12.8772,-0.1676,6.8486,1533
31046,-4.3646,6.1028,3.5123,1519
31051,10.6865,6.359,13.7655,1513
31056,7.689,-6.5864,17.1473,1531
31061,-9.4643,0.2035,9.8833,1531
31066,-11.473,4.9452,3.7134,1547
31071,7.2748,6.8438,9.9814,1527
31076,11.9686,-3.5578,15.8963,1519
31081,-10.2352,-1.4078,14.4418,1555
31086,-13.3932,3.067,4.3778,1527
31091,4.0486,7.0282,7.3251,1549
31096,14.9434,0.334,14.8285,1493
31101,-8.0254,-3.2848,18.6496,1528
31106,-12.9838,0.51,5.7305,1531
31111,-1.0415,6.6535,3.875,1529
31116,12.3098,4.3239,15.0954,1519
31121,-0.516,-5.6216,18.3839,1519
31126,-12.0464,-0.559,7.367,1547
31131,-5.5138,5.9556,3.6344,1525
31136,10.2831,6.6954,13.3237,1524
31141,8.7652,-6.2848,16.5487,1530
31146,-9.5122,0.0479,10.58,1519
31151,-11.9171,4.4604,3.9169,1553
31156,6.9839,6.9528,9.323,1519
31161,11.9985,-2.8826,15.5635,1507
31166,-10.0006,-1.7597,15.3552,1529
31171,-13.6098,2.6432,4.6244,1531
31176,3.6907,7.0569,6.8378,1548
31181,14.6166,1.0355,14.6058,1523
31186,-7.1862,-3.7912,18.7741,1547
31191,-12.5253,0.3316,5.9233,1529
31196,-1.7538,6.614,3.717,1517
31201,11.9578,4.8267,14.868,1547
31206,0.7829,-5.7521,18.1349,1527
31211,-11.6526,-0.5578,7.7847,1547
31216,-6.1794,5.8766,3.5829,1518
31221,9.8641,6.8606,12.9323,1531
31226,9.748,-5.8718,16.2423,1532
31231,-9.5062,-0.0419,11.3054,1525
31236,-12.3194,4.1324,4.0881,1549
31241,6.4943,6.9599,8.8059,1527
31246,12.0572,-2.2853,15.5384,1515
31251,-9.7827,-2.0399,15.8412,1527
31256,-13.6948,2.2936,4.7848,1529
31261,3.3339,6.9576,6.3315,1545
31266,14.4514,1.7561,14.5903,1519
31271,-6.5457,-4.1324,19.2015,1544
31276,-12.8066,0.0611,6.0346,1531
31281,-2.2039,6.3901,3.6308,1519
31286,11.8214,5.5126,14.6609,1530
31291,1.8962,-6.1363,18.2642,1525
31296,-10.3813,-0.6452,7.926,1531
31301,-7.2664,5.5234,3.5231,1519
31306,9.2644,7.1706,12.5456,1560
31311,10.2687,-5.5498,16.1118,1525
31316,-9.4535,-0.2598,11.6909,1531
31321,-12.9873,3.9504,4.1348,1528
31326,5.9568,7.2089,8.5162,1533
31331,13.5332,-2.0794,15.3959,1525
31336,-9.663,-1.652,16.2231,1531
31341,-14.8417,1.9513,4.8554,1527
31346,2.0494,6.9085,5.9436,1529
31351,14.5591,2.2769,14.9745,1515
31356,-5.0434,-4.6591,19.0626,1543
31361,-11.1462,0.1077,6.2249,1527
31366,-3.5099,6.5278,3.4105,1555
31371,10.4794,5.3391,14.6405,1528
31376,3.1663,-5.4432,17.5471,1525
31381,-11.1342,-0.7314,8.8178,1541
31386,-7.4795,5.5976,3.4907,1523
31391,9.1243,7.1036,12.1458,1545
31396,11.4766,-5.1571,15.7574,1525
31401,-9.9539,-0.1365,12.6809,1533
31406,-13.7032,3.6033,4.2246,1530
31411,5.1703,6.8761,7.689,1527
31416,13.8325,-1.2366,15.6341,1523
31421,-9.0956,-2.1775,16.6804,1527
31426,-14.8141,1.6544,5.2074,1541
31431,1.2306,6.9576,5.4312,1528
31436,14.1186,2.66,15.2271,1515
31441,-3.6152,-5.0314,18.6867,1543
31446,-10.6482,0.2095,6.5122,1527
31451,-4.6064,6.6188,3.322,1531
31456,10.009,5.381,14.2946,1519
31461,4.5071,-5.3654,17.1497,1541
31466,-11.1701,-0.6141,9.4858,1527
31471,-8.345,5.4743,3.6069,1527
31476,8.5736,6.9013,11.5855,1529
31481,12.3972,-4.5035,15.457,1525
31486,-10.1574,-0.3448,13.5632,1553
31491,-13.72,3.1723,4.5442,1515
31496,4.6471,6.7074,6.9252,1529
31501,13.1382,-0.3005,15.6689,1523
31506,-8.2768,-2.9377,16.9713,1515
31511,-14.4993,1.4114,5.4277,1533
31516,0.8607,6.7133,5.1894,1525
31521,13.9091,3.5195,14.9003,1544
31526,-2.1811,-5.527,18.6197,1529
31531,-10.4627,-0.0036,6.9192,1529
31536,-5.6874,6.3015,3.3303,1541
31541,9.7588,5.691,13.8493,1543
31546,5.4396,-5.2852,16.8241,1533
31551,-11.0409,-0.8499,10.0149,1527
31556,-9.2943,4.9895,3.7362,1525
31561,8.2145,7.027,11.2192,1545
31566,12.8736,-3.9684,15.0009,1509
31571,-10.3082,-0.5543,14.376,1549
31576,-13.3058,2.5355,4.9344,1523
31581,4.2174,6.784,6.5015,1548
31586,12.8461,0.4381,15.3097,1513
31591,-7.6327,-3.2705,17.3316,1519
31596,-14.048,1.0343,5.7329,1531
31601,0.2179,6.4224,5.0542,1523
31606,13.5141,4.4412,14.607,1549
31611,-0.8009,-5.4995,18.3037,1527
31616,-10.1275,-0.0682,7.2664,1524
31621,-6.6152,5.6527,3.5674,1529
31626,9.6618,6.5134,13.2639,1525
31631,6.869,-4.3922,16.3751,1543
31636,-10.5213,-1.3551,10.8996,1527
31641,-10.0856,4.0773,4.039,1547
31646,7.5525,7.598,10.6015,1518
31651,13.6446,-2.4612,14.2934,1513
31656,-10.076,-1.3396,15.4342,1533
31661,-14.0995,1.5431,5.2732,1523
31666,3.3339,6.608,6.1531,1541
31671,13.0328,1.974,14.5855,1515
31676,-7.1575,-3.5757,18.178,1527
31681,-14.2718,-0.1401,6.1447,1531
31686,-0.6943,6.0418,4.7992,1523
31691,13.1885,5.6419,14.1713,1548
31696,0.0886,-5.4815,18.421,1519
31701,-9.6259,-0.7494,7.5705,1541
31706,-7.3406,5.1799,3.632,1515
31711,9.6331,7.2592,12.7922,1527
31716,7.5968,-4.1408,16.2303,1531
31721,-10.3202,-1.6879,11.169,1531
31726,-10.55,3.7613,4.0654,1554
31731,7.0785,7.5166,10.2137,1529
31736,14.2814,-2.0997,14.188,1507
31741,-10.3202,-1.4102,15.9334,1529
31746,-14.5304,1.324,5.2792,1511
31751,2.6887,6.3147,5.9424,1560
31756,14.0671,2.472,14.7662,1511
31761,-6.8678,-3.5757,18.4832,1547
31766,-14.1174,-0.3472,6.1483,1515
31771,-1.4988,5.7964,4.5681,1531
31776,13.1466,6.0286,14.3532,1545
31781,1.2677,-5.6336,18.2091,1527
31786,-9.5624,-0.6907,7.744,1554
31791,-8.2085,5.0374,3.6871,1513
31796,9.6881,7.4244,12.3301,1519
31801,8.6862,-4.1863,16.0232,1523
31806,-10.4028,-1.4353,11.6933,1527
31811,-11.3928,3.4369,4.2689,1545
31816,6.4464,7.3203,9.7336,1527
31821,14.6872,-1.5371,14.0803,1518
31826,-10.2759,-1.5802,16.5356,1523
31831,-13.975,0.9074,5.4911,1518
31836,2.1057,6.3195,5.6216,1541
31841,13.5655,3.043,14.5484,1523
31846,-5.8969,-3.8152,18.5215,1548
31851,-13.6757,-0.5914,6.4955,1527
31856,-2.1308,5.6443,4.5777,1517
31861,12.6701,6.4165,13.9139,1543
31866,2.6635,-5.6012,17.8069,1515
31871,-9.3506,-0.7326,8.2839,1548
31876,-8.9136,4.6986,3.9744,1519
31881,9.1758,7.3574,11.8094,1531
31886,9.2847,-3.5662,15.5934,1513
31891,-10.2951,-1.7178,12.4977,1541
31896,-11.9028,3.1089,4.531,1529
31901,6.1567,7.2724,9.3254,1529
31906,14.7926,-0.7685,13.6517,1561
31911,-10.167,-1.8555,17.2442,1515
31916,-13.6853,0.5435,5.6934,1527
31921,1.5,6.2584,5.2888,1525
31926,13.0616,3.5686,14.4119,1513
31931,-4.9452,-3.9983,18.6305,1532
31936,-13.3932,-0.8799,6.693,1527
31941,-2.6504,5.6336,4.3958,1529
31946,12.1194,6.7672,13.7631,1518
31951,4.0247,-5.5593,17.5495,1526
31956,-9.098,-0.7745,8.6562,1547
31961,-9.5181,4.5382,4.0677,1529
31966,8.6921,7.4184,11.3282,1548
31971,9.9455,-3.0299,15.4354,1517
31976,-10.1191,-1.919,13.0735,1525
31981,-12.2487,2.8,4.4784,1518
31986,5.6635,7.2652,8.7843,1525
31991,14.9207,-0.0886,13.5871,1531
31996,-9.7336,-2.1668,17.85,1527
32001,-13.7954,0.2227,5.782,1533
32006,0.8607,6.1363,4.944,1517
32011,13.0496,4.3251,14.4586,1519
32016,-4.0486,-4.1767,18.8627,1546
32021,-13.0879,-1.1624,6.8366,1524
32026,-3.2226,5.4097,4.1515,1529
32031,11.7807,7.2484,13.7008,1524
32036,5.0805,-5.539,17.5028,1529
32041,-8.8262,-0.8655,8.9316,1527
32046,-10.2208,4.2545,3.875,1512
32051,8.2301,7.5441,10.8745,1547
32056,10.7464,-2.8024,15.3636,1517
32061,-9.7935,-1.974,13.5213,1548
32066,-12.7372,2.5391,4.4879,1517
32071,5.0434,7.1251,8.2408,1525
32076,15.1266,0.4896,13.8289,1519
32081,-9.2332,-2.5474,18.2833,1515
32086,-13.6206,0.0563,5.8514,1525
32091,0.2155,5.8921,4.4652,1519
32096,12.815,4.9632,14.6082,1529
32101,-3.1496,-4.4233,18.8472,1531
32106,-12.8257,-1.4305,7.1311,1515
32111,-3.9708,5.1811,4.0689,1542
32116,11.3952,7.4867,13.5596,1519
32121,6.1268,-5.43,17.018,1547
32126,-8.8131,-1.057,9.5325,1529
32131,-10.8122,3.9265,4.124,1516
32136,7.8338,7.5094,10.3597,1521
32141,10.9331,-2.1512,14.9362,1519
32146,-9.8055,-2.2661,14.3305,1545
32151,-13.1729,1.9561,4.8878,1525
32156,4.8578,7.0509,7.9164,1528
32161,14.6669,1.1121,13.3166,1527
32166,-8.7736,-2.8706,18.6844,1525
32171,-12.6845,-0.492,6.3183,1531
32176,-0.2263,6.1208,4.3778,1519
32181,11.6047,5.223,14.0611,1555
32186,-2.1835,-4.3862,18.2893,1516
32191,-12.5384,-1.6759,7.677,1519
32196,-4.5873,5.2409,4.2389,1515
32201,11.0349,7.5142,13.2112,1512
32206,6.9659,-4.9392,16.0711,1529
32211,-8.8406,-1.1289,10.5213,1528
32216,-11.1666,3.541,4.6555,1523
32221,7.9667,7.3981,9.9766,1525
32226,10.8433,-1.8256,14.3844,1509
32231,-10.5908,-1.913,14.7219,1549
32236,-12.7922,1.6065,5.205,1514
32241,4.707,6.8426,7.8877,1549
32246,14.7555,1.5012,13.0412,1513
32251,-7.9547,-2.8695,18.8184,1529
32256,-11.9363,-0.5387,6.5481,1524
32261,-0.6931,6.0908,4.2557,1527
32266,12.1578,5.3139,14.0599,1525
32271,-2.3164,-4.1168,18.1864,1517
32276,-14.0695,-1.6113,7.6674,1525
32281,-4.871,4.944,4.379,1519
32286,11.4024,7.8446,13.0484,1519
32291,8.5545,-5.1811,15.8065,1554
32296,-9.0477,-0.7314,11.0672,1528
32301,-11.7663,3.4536,4.7274,1544
32306,8.0242,7.1646,9.1063,1524
32311,11.0049,-1.6233,14.7698,1515
32316,-11.7088,-1.9118,14.7459,1545
32321,-12.4678,1.6927,5.1607,1533
32326,4.3371,6.7074,7.6902,1547
32331,15.5803,1.9094,13.2519,1512
32336,-7.2532,-3.1855,19.144,1541
32341,-11.473,-0.2251,6.3734,1544
32346,-1.5347,6.037,3.7517,1515
32351,12.0428,5.5845,14.3987,1543
32356,-1.6807,-4.1432,17.9481,1523
32361,-14.2395,-1.4988,7.9057,1545
32366,-5.0973,4.9596,4.2186,1526
32371,11.1725,7.8482,13.0699,1525
32376,9.8342,-5.3271,15.5982,1531
32381,-9.4523,-0.4537,11.4874,1525
32386,-12.0572,3.4034,4.5622,1544
32391,7.1503,6.7385,8.503,1518
32396,11.1821,-1.0678,15.1888,1514
32401,-10.8194,-2.472,15.3959,1527
32406,-12.8784,1.6041,4.9991,1523
32411,3.6607,6.5122,7.3215,1531
32416,15.2403,2.3834,13.4638,1518
32421,-6.4631,-3.808,19.0231,1527
32426,-11.4922,-0.4453,6.4512,1527
32431,-2.3272,6.0094,3.8307,1529
32436,12.0261,5.843,14.2419,1533
32441,-0.3651,-4.4796,17.8069,1527
32446,-14.0276,-1.6903,8.2217,1527
32451,-6.0693,4.786,4.2617,1517
32456,10.5776,7.8135,12.7946,1529
32461,10.4447,-4.9692,15.129,1527
32466,-9.5541,-0.5794,12.3014,1547
32471,-12.5121,3.0921,4.9428,1541
32476,7.179,6.9228,8.2325,1525
32481,11.8381,-0.996,14.7243,1515
32486,-10.963,-1.9297,15.7455,1517
32491,-13.4782,1.2917,5.3199,1527
32496,3.0335,6.426,6.9528,1547
32501,15.3911,2.8982,13.3441,1517
32506,-5.4193,-3.9002,19.0195,1529
32511,-10.8541,-0.419,6.693,1533
32516,-3.0622,5.9891,3.7673,1522
32521,12.1817,6.1064,13.9714,1545
32526,0.3627,-4.5478,17.6872,1529
32531,-14.534,-1.6472,8.3582,1533
32536,-6.6056,4.6639,4.1755,1515
32541,10.3717,7.9272,12.6246,1523
32546,11.5161,-4.8387,14.8476,1525
32551,-9.6426,-0.5351,12.8976,1547
32556,-12.7731,2.9185,4.9644,1529
32561,6.7445,6.8067,7.6531,1526
32566,12.2499,-0.6117,14.8919,1533
32571,-10.8146,-2.0985,16.1297,1519
32576,-13.7056,1.2151,5.2912,1523
32581,2.4864,6.2692,6.7145,1525
32586,15.4462,3.4752,13.5284,1527
32591,-4.5765,-4.3922,19.1464,1540
32596,-10.5776,-0.3867,6.7732,1524
32601,-3.6571,5.8957,3.553,1520
32606,11.8728,6.3865,13.884,1528
32611,1.1408,-4.5191,17.7674,1527
32616,-14.3796,-1.7753,8.655,1531
32621,-6.4859,4.5298,3.9624,1509
32626,9.6786,7.999,12.4008,1531
32631,12.408,-4.4999,14.8895,1523
32636,-9.675,-0.6907,13.2507,1517
32641,-12.8928,2.648,4.8662,1533
32646,5.9304,6.6355,7.0665,1529
32651,12.0656,0.1269,15.184,1522
32656,-9.9359,-2.8395,16.6972,1523
32661,-13.8349,1.0726,5.1655,1543
32666,2.15,6.1016,6.1639,1526
32671,14.8704,4.0785,13.8864,1529
32676,-4.3515,-4.6759,19.4062,1533
32681,-10.7416,-0.5914,6.7469,1531
32686,-4.0618,5.6994,3.4261,1531
32691,10.1861,6.754,13.8397,1528
32696,2.9556,-4.2102,17.3532,1529
32701,-10.799,-1.9441,9.4128,1544
32706,-7.6387,4.4628,3.8152,1515
32711,9.1051,7.9595,11.9363,1530
32716,11.6143,-3.9804,14.9099,1507
32721,-9.7133,-1.0666,13.295,1544
32726,-13.6493,2.387,4.9356,1529
32731,5.0003,6.6439,7.3143,1541
32736,12.9143,0.6404,14.5867,1524
32741,-8.8119,-2.8539,17.3005,1543
32746,-14.631,0.5148,5.7593,1525
32751,1.5395,6.2932,5.63,1517
32756,14.2742,4.4101,13.8385,1515
32761,-4.136,-4.5562,19.3104,1526
32766,-10.5931,-0.9134,6.948,1524
32771,-4.6268,5.5198,3.5578,1545
32776,10.3573,7.0174,13.6074,1523
32781,4.1444,-4.3694,17.2347,1542
32786,-10.562,-1.889,9.5517,1523
32791,-8.2229,4.3981,3.8319,1516
32796,8.6335,7.8243,11.5389,1543
32801,12.1697,-3.6057,14.9338,1515
32806,-9.6343,-1.136,13.6601,1545
32811,-14.036,2.3942,4.9177,1527
32816,4.6112,6.6176,7.0461,1532
32821,13.4267,0.7614,14.6992,1517
32826,-8.6933,-2.873,17.4465,1523
32831,-14.9362,0.5183,5.7162,1531
32836,0.8978,6.1615,5.4277,1525
32841,14.303,4.4484,14.0887,1523
32846,-3.2705,-4.8566,19.0997,1529
32851,-10.5177,-0.7446,6.954,1525
32856,-5.2289,5.6802,3.535,1529
32861,10.2532,6.6212,13.5596,1517
32866,4.8973,-4.4855,17.1114,1553
32871,-10.7464,-1.5203,9.8605,1519
32876,-8.673,4.5645,3.8152,1528
32881,8.1642,7.3107,11.2946,1543
32886,12.8078,-3.5721,14.9865,1507
32891,-9.9108,-0.917,14.0025,1553
32896,-13.8924,2.4481,4.8231,1517
32901,4.2713,6.4979,6.7971,1519
32906,13.4291,0.7314,15.0871,1533
32911,-8.2097,-3.0191,17.492,1529
32916,-14.8141,0.735,5.6982,1527
32921,0.6021,6.2046,5.205,1531
32926,14.2551,4.5801,14.2898,1529
32931,-2.2637,-5.041,18.8651,1513
32936,-10.2472,-0.5387,7.118,1519
32941,-5.697,5.7724,3.5291,1527
32946,9.7815,6.4715,13.2998,1516
32951,5.2241,-4.4053,16.9557,1543
32956,-10.6099,-1.4976,10.2316,1528
32961,-9.0453,4.4975,3.8451,1529
32966,8.1558,7.2832,10.9583,1524
32971,12.864,-3.3519,14.8261,1511
32976,-10.1047,-0.9948,14.3844,1544
32981,-13.9223,2.2458,5.0661,1525
32986,4.1815,6.4631,6.596,1524
32991,13.386,0.8452,14.9877,1507
32996,-8.2229,-3.0335,17.5016,1519
33001,-14.6346,0.5112,5.8275,1543
33006,0.2897,6.2716,5.2182,1523
33011,13.9654,4.379,14.3413,1531
33016,-1.9106,-5.1008,18.6329,1517
33021,-10.0616,-0.3807,7.1491,1543
33026,-6.1459,5.8179,3.6583,1532
33031,10.5189,6.1052,13.3429,1513
33036,5.2505,-4.701,16.7427,1531
33041,-11.7388,-1.0546,10.0999,1527
33046,-9.0621,4.5083,3.9229,1593
33051,8.1116,7.1012,11.0588,1517
33056,13.4817,-3.468,14.7471,1505
33061,-10.258,-0.7266,14.8022,1556
33066,-13.283,2.3236,5.0996,1524
33071,4.4688,6.5422,6.1974,1553
33076,13.0807,0.5351,15.3851,1517
33081,-8.5856,-2.8299,17.2873,1541
33086,-14.2958,0.9864,5.6838,1533
33091,0.4178,6.2094,5.3211,1517
33096,14.2994,4.3527,14.443,1529
33101,-0.9278,-5.3846,18.4952,1515
33106,-9.9276,-0.1041,7.2413,1523
33111,-6.1986,5.9987,3.486,1511
33116,10.7703,6.0082,13.1705,1523
33121,4.8159,-4.6974,16.9557,1532
33126,-13.3584,-1.3575,9.9707,1531
33131,-8.6586,4.3862,4.0534,1541
33136,8.4324,7.4244,10.987,1519
33141,13.9151,-3.5853,14.5101,1513
33146,-10.1538,-0.6153,15.1888,1523
33151,-13.2926,2.0901,5.1583,1517
33156,4.5598,6.6307,5.7341,1547
33161,12.7419,1.0439,15.3935,1516
33166,-8.9196,-2.8527,17.437,1523
33171,-13.884,0.6189,5.782,1531
33176,0.5279,6.2225,5.2828,1511
33181,14.267,4.8794,14.0623,1547
33186,-0.5997,-5.7377,18.8376,1524
33191,-9.8653,-0.2873,7.3406,1529
33196,-6.5146,5.8239,3.3794,1509
33201,10.5788,6.5242,12.7635,1527
33206,5.0961,-4.7848,17.0312,1528
33211,-13.2555,-1.6664,10.3573,1514
33216,-8.8011,4.2641,4.0199,1541
33221,8.1906,7.5896,10.7943,1519
33226,14.2527,-3.4081,14.4969,1492
33231,-10.1837,-0.9553,15.6365,1531
33236,-13.3896,1.9692,5.2421,1519
33241,4.2988,6.5745,5.4564,1557
33246,12.457,1.3479,15.3648,1526
33251,-8.2325,-3.2262,17.7662,1549
33256,-14.0336,0.3867,5.9077,1533
33261,0.3807,6.1782,5.0278,1523
33266,13.9235,5.2433,14.0432,1527
33271,-0.085,-5.7317,18.8484,1515
33276,-9.6774,-0.5195,7.5597,1531
33281,-6.7469,5.6443,3.3267,1526
33286,9.7995,6.5493,12.457,1511
33291,5.6395,-4.3012,16.8241,1527
33296,-12.141,-1.7765,10.9319,1513
33301,-9.3757,4.2138,4.0438,1549
33306,8.0062,7.4962,10.3621,1515
33311,14.0061,-2.9844,14.4969,1525
33316,-10.1047,-1.0738,15.785,1543
33321,-13.3872,1.8232,5.2648,1525
33326,3.7673,6.5505,5.2625,1547
33331,12.4439,1.6963,15.348,1519
33336,-7.4663,-3.45,17.9122,1547
33341,-13.8924,0.3244,6.0801,1523
33346,-0.1329,6.2788,4.7752,1517
33351,13.6649,5.2457,14.1892,1533
33356,0.3891,-5.8598,18.506,1523
33361,-9.5924,-0.3819,7.7033,1553
33366,-7.2868,5.7772,3.3998,1515
33371,9.645,6.4895,12.4391,1519
33376,6.0597,-4.5095,16.6696,1526
33381,-12.4151,-1.6029,11.0277,1517
33386,-9.7767,4.1887,4.1276,1545
33391,8.029,7.507,10.161,1517
33396,14.2168,-3.0694,14.4155,1507
33401,-10.1861,-1.0223,16.0699,1527
33406,-13.3812,1.8292,5.3594,1528
33411,3.5111,6.6846,5.2062,1544
33416,12.6558,1.7418,15.366,1519
33421,-7.6148,-3.4189,17.8141,1557
33426,-13.866,0.3567,6.1387,1521
33431,-0.3388,6.2956,4.7764,1515
33436,13.781,5.3271,14.1066,1533
33441,0.9038,-6.0178,18.4294,1529
33446,-9.5098,-0.2789,7.7428,1543
33451,-7.6219,5.7557,3.3986,1512
33456,9.7276,6.4512,12.2703,1519
33461,6.426,-4.4101,16.6577,1525
33466,-12.2404,-1.6245,11.2037,1523
33471,-9.7336,4.2581,3.9229,1553
33476,7.6231,7.3502,10.2005,1529
33481,14.5484,-2.7054,14.5831,1549
33486,-10.2316,-1.1337,16.2255,1520
33491,-13.3956,1.8375,5.211,1528
33496,3.219,6.5841,5.035,1553
33501,12.2499,1.8411,15.5803,1525
33506,-6.7636,-3.8176,17.8595,1553
33511,-14.0085,0.4393,6.0573,1543
33516,-0.4717,6.2944,4.4927,1511
33521,13.2555,5.5079,14.4694,1541
33526,1.2079,-6.0861,18.2761,1527
33531,-9.7085,-0.3519,7.8638,1550
33536,-7.598,5.7269,3.3615,1523
33541,8.6431,6.5422,12.2655,1529
33546,7.5932,-4.2066,16.3943,1515
33551,-10.3872,-1.561,11.7136,1529
33556,-10.5201,4.2413,4.0905,1525
33561,7.276,7.1994,9.7815,1529
33566,13.8708,-2.5594,14.631,1527
33571,-10.2149,-1.3611,16.0232,1541
33576,-14.273,1.7705,5.2241,1525
33581,2.8048,6.7002,5.4061,1531
33586,13.4051,2.0039,15.2271,1523
33591,-6.4955,-3.7553,18.2235,1533
33596,-14.6058,0.0742,6.2213,1529
33601,-1.3204,6.5038,4.464,1524
33606,13.1537,5.3331,14.2754,1519
33611,1.3264,-5.9843,18.1876,1519
33616,-9.5026,-0.3771,7.853,1531
33621,-7.859,5.6946,3.5602,1517
33626,9.074,6.5457,12.2392,1529
33631,7.7584,-4.3335,16.4003,1517
33636,-10.8697,-1.5179,11.6705,1519
33641,-10.4734,4.1408,4.0235,1546
33646,6.9935,7.1551,9.6055,1528
33651,14.2192,-2.3403,14.6082,1528
33656,-10.0928,-1.3755,16.2806,1513
33661,-13.6649,1.5694,5.3953,1523
33666,2.7773,6.7121,5.2984,1546
33671,12.3912,2.1512,15.184,1517
33676,-5.9628,-4.0905,18.0786,1549
33681,-13.8995,0.0347,6.353,1525
33686,-1.0211,6.3602,4.3586,1525
33691,12.8569,5.6084,14.1713,1523
33696,1.4569,-5.9364,18.251,1527
33701,-9.5852,-0.5926,8.0433,1547
33706,-7.9595,5.4648,3.5602,1519
33711,9.0489,6.8031,12.1206,1519
33716,8.2636,-4.2329,16.1549,1525
33721,-10.6446,-1.4736,11.8489,1543
33726,-10.6913,3.9409,4.1719,1525
33731,7.0964,7.2891,9.6283,1515
33736,14.1294,-2.0363,14.3748,1522
33741,-9.9539,-1.4988,16.5044,1523
33746,-13.4877,1.4126,5.4995,1519
33751,2.8335,6.7337,5.1272,1527
33756,12.1769,2.3403,14.9482,1522
33761,-5.782,-4.112,18.1923,1549
33766,-13.7044,-0.0922,6.5457,1523
33771,-1.16,6.3363,4.3359,1517
33776,12.7683,5.7114,14.0827,1518
33781,1.6891,-5.8969,18.0319,1519
33786,-9.487,-0.6536,8.1427,1547
33791,-8.1271,5.4193,3.5937,1519
33796,8.7724,6.7935,12.0811,1531
33801,8.1906,-4.1575,16.0591,1517
33806,-10.6159,-1.506,11.9495,1531
33811,-10.914,3.8798,4.2234,1541
33816,7.118,7.3263,9.6079,1517
33821,14.0528,-2.0985,14.1928,1523
33826,-10.0425,-1.4952,16.5559,1519
33831,-13.3357,1.2809,5.5378,1517
33836,2.7054,6.7804,5.1894,1527
33841,12.3301,2.3798,14.8273,1527
33846,-5.8706,-4.039,18.178,1541
33851,-13.793,-0.0934,6.5302,1544
33856,-1.2414,6.286,4.4257,1515
33861,12.7862,5.7269,14.0192,1531
33866,1.9836,-5.9568,17.8631,1524
33871,-9.4763,-0.5686,8.2576,1547
33876,-8.3438,5.4564,3.711,1526
33881,8.9639,6.754,12.0033,1548
33886,7.9966,-4.2425,15.8891,1512
33891,-10.9942,-1.47,12.123,1529
33896,-10.8972,3.8391,4.2856,1531
33901,7.2341,7.2903,9.5624,1542
33906,14.2563,-2.0458,14.1007,1564
33911,-10.0963,-1.4018,16.7678,1531
33916,-13.2244,1.3156,5.6204,1518
33921,2.6983,6.7481,5.0506,1532
33926,12.2511,2.4481,14.9889,1517
33931,-5.7593,-3.9863,18.0535,1547
33936,-13.7726,-0.0622,6.5302,1523
33941,-1.239,6.2453,4.3539,1530
33946,12.8293,5.855,14.1078,1516
33951,2.2601,-6.0023,17.9661,1529
33956,-9.3745,-0.4214,8.3127,1529
33961,-8.4025,5.4516,3.6117,1517
33966,8.4874,6.7109,11.8202,1549
33971,8.1858,-3.9851,16.083,1513
33976,-10.6015,-1.5251,12.226,1533
33981,-10.9451,3.9492,4.2988,1519
33986,7.094,7.2053,9.4882,1516
33991,14.1306,-1.9357,14.3173,1525
33996,-10.0999,-1.5299,16.6361,1515
34001,-13.4566,1.2989,5.5115,1532
34006,2.4732,6.7038,5.0841,1529
34011,12.3996,2.5953,15.0104,1518
34016,-5.7006,-4.1946,18.148,1545
34021,-13.7571,-0.1508,6.5446,1523
34026,-1.4497,6.3746,4.4712,1517
34031,12.7407,5.7736,14.0133,1517
34036,2.2326,-5.9867,17.8799,1529
34041,-9.3386,-0.577,8.2899,1547
34046,-8.4659,5.4265,3.7134,1516
34051,8.7604,6.7912,11.8561,1532
34056,8.0409,-4.148,15.9777,1530
34061,-11.0325,-1.5993,12.1051,1544
34066,-10.92,3.7362,4.3646,1528
34071,7.1635,7.2939,9.4559,1529
34076,14.2946,-1.9632,14.1198,1531
34081,-9.9359,-1.4605,16.86,1525
34086,-13.2818,1.2031,5.636,1527
34091,2.5857,6.7421,4.8937,1571
34096,12.2511,2.6444,14.9961,1519
34101,-5.7114,-3.9887,18.1708,1549
34106,-13.7511,-0.1951,6.5565,1529
34111,-1.385,6.2644,4.3539,1528
34116,12.8162,5.9316,13.9953,1511
34121,2.472,-6.0059,17.9577,1519
34126,-9.3075,-0.5016,8.2408,1544
34131,-8.5976,5.3905,3.6129,1515
34136,8.7951,6.754,11.8034,1541
34141,8.2241,-3.9983,16.1082,1515
34146,-10.9068,-1.6281,12.2224,1525
34151,-10.8445,3.8056,4.1803,1541
34156,6.9863,7.2449,9.4272,1527
34161,14.4598,-1.7885,14.3257,1519
34166,-10.0784,-1.6113,16.9114,1515
34171,-13.4554,1.2641,5.4875,1531
34176,2.4289,6.6822,4.9081,1511
34181,12.05,2.6659,15.0571,1525
34186,-5.3858,-4.3155,18.2103,1557
34191,-13.5332,-0.2107,6.5972,1519
34196,-1.482,6.3171,4.2389,1524
34201,12.6067,5.8957,14.0851,1519
34206,2.3523,-5.9771,17.9218,1529
34211,-9.4439,-0.5567,8.3414,1530
34216,-8.4096,5.3379,3.632,1515
34221,8.7269,6.9001,11.8824,1529
34226,8.7245,-4.0007,16.0268,1509
34231,-10.5991,-1.5562,12.2511,1527
34236,-10.9391,3.7134,4.2306,1525
34241,6.869,7.2736,9.3745,1529
34246,14.2742,-1.7765,14.273,1515
34251,-9.9335,-1.6496,16.8851,1517
34256,-13.532,1.1768,5.5258,1516
34261,2.3954,6.6511,4.8303,1522
34266,12.1003,2.7641,14.9087,1523
34271,-5.3714,-4.2665,18.3839,1557
34276,-13.5236,-0.2298,6.6283,1519
34281,-1.4964,6.2932,4.2377,1463
34286,12.5672,5.9687,14.0959,1514
34291,2.2613,-5.964,17.9493,1515
34296,-9.4272,-0.6572,8.2791,1533
34301,-8.4036,5.2577,3.5985,1517
34306,8.7221,7.0138,11.8968,1523
34311,8.746,-4.142,15.9514,1511
34316,-10.6913,-1.4916,12.1554,1527
34321,-11.1127,3.6691,4.3359,1527
34326,6.9528,7.4184,9.3817,1531
34331,14.2611,-1.8806,14.1892,1519
34336,-9.9742,-1.6616,16.9043,1525
34341,-13.2196,1.2103,5.6324,1531
34346,2.4684,6.8295,4.9512,1519
34351,12.402,2.6013,14.9554,1525
34356,-5.77,-4.0941,18.1792,1545
34361,-13.8469,-0.1568,6.5338,1541
34366,-1.4688,6.2189,4.3,1526
34371,12.8198,6.0106,14.0647,1529
34376,2.5426,-6.1028,17.9218,1519
34381,-9.3494,-0.4441,8.3199,1532
34386,-8.6562,5.3858,3.62,1519
34391,8.7795,6.7744,11.7855,1533
34396,8.1523,-4.0893,16.0747,1511
34401,-10.9307,-1.6161,12.2583,1544
34406,-10.9834,3.8367,4.2329,1519
34411,7.173,7.2784,9.432,1527
34416,14.2814,-1.8256,14.2096,1555
34421,-10.0473,-1.5933,16.8863,1525
34426,-13.2806,1.3001,5.5426,1532
34431,2.545,6.7708,4.8698,1508
34436,12.323,2.5929,15.0559,1517
34441,-5.691,-4.215,18.148,1533
34446,-13.7475,-0.1437,6.5709,1528
34451,-1.3791,6.3638,4.3993,1529
34456,12.8856,5.8239,14.1126,1528
34461,2.3535,-6.092,17.9086,1541
34466,-9.3937,-0.5243,8.2935,1545
34471,-8.5617,5.4791,3.62,1517
34476,9.1075,6.7086,11.8848,1546
34481,11.5005,-2.0016,15.3875,1519
34486,-11.6346,-1.6005,11.9447,1529
34491,-12.9371,2.1691,5.0051,1523
34496,7.3227,7.4196,9.5373,1517
34501,14.9709,1.336,14.0671,1517
34506,-10.0916,-1.4653,16.8157,1517
34511,-11.8286,0.0754,6.1711,1515
34516,2.721,6.8007,4.8375,1519
34521,11.7304,4.9225,14.7938,1515
34526,-6.4715,-3.8307,18.0559,1541
34531,-13.5272,-0.9732,7.9009,1527
34536,-1.2617,6.2345,4.5969,1519
34541,11.2695,7.4244,13.0496,1527
34546,2.4481,-6.2237,17.9948,1517
34551,-9.5038,-0.2646,11.145,1534
34556,-8.4862,5.4552,3.5973,1517
34561,7.5441,6.8426,8.7448,1541
34566,7.4041,-4.2964,16.3069,1509
34571,-11.3174,-2.0973,15.1134,1527
34576,-10.4303,3.7553,4.2282,1532
34581,4.4317,7.0246,7.203,1531
34586,14.8321,-2.2314,14.0408,1515
34591,-7.4065,-3.4548,19.1847,1523
34596,-13.3501,1.2665,5.5258,1523
34601,-1.5203,6.5936,3.5386,1518
34606,12.7707,2.3942,15.1194,1523
34611,-1.3719,-4.8674,18.0176,1547
34616,-14.0468,-0.1065,6.3087,1520
34621,-5.3032,5.5282,4.0127,1530
34626,13.5859,5.8766,13.9007,1532
34631,9.3218,-6.1004,16.0172,1527
34636,-9.2979,-0.3567,8.2241,1541
34641,-12.1111,3.9875,4.3179,1517
34646,9.9216,6.7828,11.7567,1529
34651,11.3844,-2.3786,15.5467,1523
34656,-12.1566,-1.895,14.8632,1529
34661,-12.4355,2.0997,4.8794,1525
34666,4.1779,7.0629,7.3167,1527
34671,15.7898,1.1576,13.8385,1515
34676,-7.1934,-3.5159,19.0315,1517
34681,-11.5927,0.2586,6.1387,1527
34686,-1.7226,6.6858,3.5326,1516
34691,12.5468,4.7537,14.7818,1529
34696,-1.4581,-4.9763,18.0475,1529
34701,-14.6046,-0.8356,7.7333,1522
34706,-5.5186,5.5617,4.136,1519
34711,11.7148,7.4867,13.1382,1528
34716,9.7384,-6.3566,15.8604,1529
34721,-9.8007,0.1053,11.5197,1582
34726,-12.2068,4.1671,4.3754,1525
34731,7.7285,6.6427,8.3869,1531
34736,11.5616,-2.5917,15.8053,1525
34741,-12.4403,-1.5526,14.625,1530
34746,-12.6079,2.3367,4.9045,1517
34751,4.0869,7.0318,7.2245,1529
34756,16.0998,0.9912,14.0576,1531
34761,-6.8606,-3.4991,18.8759,1515
34766,-11.3353,0.425,6.1411,1531
34771,-1.98,6.7074,3.4105,1527
34776,12.4594,4.5921,14.8596,1529
34781,-1.2079,-4.9225,18.0678,1531
34786,-14.7375,-0.8284,7.7345,1527
34791,-5.5138,5.5545,4.0294,1532
34796,11.7831,7.4747,13.052,1525
34801,9.9527,-6.3339,15.9454,1533
34806,-9.7133,0.1041,11.576,1545
34811,-12.1913,4.0558,4.3383,1525
34816,7.5214,6.5529,8.1319,1529
34821,11.6646,-2.2505,16.0735,1523
34826,-12.2344,-1.7119,14.7782,1531
34831,-12.3122,2.3212,4.6962,1528
34836,4.0318,6.8235,7.2185,1522
34841,16.1202,1.4138,14.0887,1495
34846,-7.1048,-3.65,19.2889,1524
34851,-11.5484,0.3148,6.0549,1529
34856,-1.8016,6.4823,3.2166,1532
34861,12.0428,5.108,14.9829,1533
34866,-1.3575,-4.81,18.1588,1541
34871,-14.3532,-1.0977,7.829,1525
34876,-4.9632,5.3965,3.7792,1521
34881,10.9798,7.6148,13.1047,1528
34886,9.9766,-6.0968,16.1142,1526
34891,-9.5373,-0.2035,11.4072,1529
34896,-12.0847,3.9265,4.1515,1549
34901,7.1658,6.7133,8.1319,1529
34906,11.3557,-1.7717,15.8807,1517
34911,-10.8816,-2.3954,15.3911,1511
34916,-12.6378,2.1596,4.7022,1523
34921,3.8882,6.7241,6.8809,1527
34926,15.3756,1.7968,14.291,1516
34931,-7.0354,-3.8295,19.2805,1529
34936,-11.7747,0.0467,6.1256,1528
34941,-1.7885,6.3829,3.2896,1519
34946,11.0648,5.3056,14.7483,1543
34951,-0.2562,-4.8483,17.9062,1529
34956,-12.7036,-1.2306,8.1594,1528
34961,-5.5007,5.4875,3.6859,1529
34966,10.6135,7.5812,12.9706,1528
34971,9.3075,-5.709,16.1549,1528
34976,-9.4439,-0.5866,11.3713,1545
34981,-12.0943,3.7086,4.3287,1516
34986,6.7792,6.8331,8.442,1543
34991,11.6059,-1.5275,15.3265,1519
34996,-10.2185,-2.3978,15.6317,1541
35001,-13.1741,1.8328,5.0554,1524
35006,3.9361,6.851,6.8139,1526
35011,14.7782,1.7322,13.9343,1507
35016,-7.0102,-3.62,19.0447,1513
35021,-11.6023,-0.1975,6.3698,1530
35026,-1.9824,6.4907,3.6571,1514
35031,11.625,5.2852,14.4574,1532
35036,-0.5674,-5.0206,17.8871,1529
35041,-13.3369,-1.1995,8.2109,1530
35046,-5.9005,5.4181,4.0558,1529
35051,11.1701,7.6447,12.7443,1528
35056,9.3721,-5.8143,15.7131,1529
35061,-9.4763,-0.2969,11.6466,1542
35066,-12.2691,3.7517,4.5777,1516
35071,7.5046,6.9288,8.4216,1545
35076,11.4203,-1.9154,15.293,1513
35081,-11.8046,-1.8531,15.2032,1559
35086,-12.5301,1.9549,5.0446,1509
35091,4.1623,6.9707,7.0066,1519
35096,15.627,1.5311,13.8157,1518
35101,-7.2209,-3.4524,19.3607,1491
35106,-11.4096,0.0455,6.2237,1517
35111,-1.992,6.4392,3.4189,1528
35116,11.8776,5.1751,14.7387,1525
35121,-1.1396,-4.8111,17.9038,1565
35126,-13.8277,-1.0965,8.0577,1529
35131,-5.4312,5.351,3.9277,1547
35136,11.3653,7.6842,13.0149,1519
35141,9.8007,-6.0382,15.9071,1525
35146,-9.5888,-0.1688,11.5628,1545
35151,-12.2703,3.875,4.3694,1515
35156,7.331,6.7552,8.321,1528
35161,11.2695,-1.9154,15.5875,1509
35166,-11.825,-2.1105,15.0715,1533
35171,-12.5277,2.15,4.8854,1529
35176,4.0941,6.9552,7.0162,1543
35181,15.7167,1.4748,14.042,1517
35186,-7.082,-3.5853,19.2075,1530
35191,-11.5281,0.2179,6.1675,1531
35196,-2.0363,6.5386,3.2944,1511
35201,11.9327,5.017,14.8955,1533
35206,-0.9601,-4.8722,17.8093,1603
35211,-13.9211,-0.8787,8.0373,1543
35216,-5.5952,5.5522,3.9528,1529
35221,11.394,7.4675,13.1118,1515
35226,9.906,-6.2297,15.8903,1544
35231,-9.8366,0.1568,11.5065,1531
35236,-12.1769,4.1611,4.2653,1523
35241,7.0282,6.5038,8.2744,1531
35246,11.6215,-2.2326,16.1549,1541
35251,-11.3976,-2.0051,15.0583,1533
35256,-12.6198,2.6157,4.6663,1511
35261,3.6129,6.6702,7.021,1519
35266,15.8783,1.3001,14.5256,1527
35271,-6.8941,-3.8774,18.7502,1531
35276,-11.6777,0.5986,5.964,1527
35281,-2.1548,6.6834,3.4405,1523
35286,12.2428,4.5753,15.1266,1529
35291,-0.6895,-5.1475,17.8153,1553
35296,-14.455,-0.6404,7.8398,1529
35301,-5.2876,5.6946,3.7757,1530
35306,10.9295,7.2101,13.1322,1512
35311,10.0281,-6.189,16.0627,1525
35316,-9.8785,0.0156,11.4407,1547
35321,-12.0716,4.1743,4.2114,1513
35326,7.2784,6.5601,8.4288,1545
35331,11.6394,-2.2242,15.9897,1523
35336,-11.2396,-2.1512,15.0188,1528
35341,-12.6785,2.5031,4.6459,1519
35346,3.796,6.6954,7.0892,1541
35351,15.7598,1.4281,14.3556,1529
35356,-7.027,-3.7074,18.9214,1513
35361,-11.728,0.3675,6.0011,1525
35366,-1.8579,6.5805,3.4596,1516
35371,11.8573,4.7262,14.9709,1543
35376,-0.9445,-4.8363,17.8416,1544
35381,-13.5105,-0.7709,7.847,1523
35386,-5.0613,5.6216,3.7026,1545
35391,10.8374,7.2927,13.2004,1527
35396,9.3817,-6.0633,16.2327,1515
35401,-9.7276,-0.1221,11.133,1529
35406,-11.8274,4.1384,4.1312,1511
35411,7.0844,6.6403,8.7209,1547
35416,11.4144,-2.1727,15.7491,1501
35421,-10.5764,-2.2936,15.2032,1516
35426,-13.0388,2.4122,4.713,1501
35431,4.0294,6.8354,7.118,1517
35436,15.1685,1.1971,14.2623,1517
35441,-7.4747,-3.5769,18.8232,1531
35446,-11.9914,0.1006,6.1136,1509
35451,-1.573,6.6571,3.6751,1525
35456,11.9375,4.713,14.692,1519
35461,-0.9541,-5.0314,18.0379,1548
35466,-13.4638,-0.9014,7.8386,1560
35471,-5.3259,5.685,3.9121,1543
35476,11.0528,7.2999,13.1657,1515
35481,8.8011,-6.0035,16.1441,1541
35486,-9.5457,-0.328,11.0852,1551
35491,-11.8645,4.1444,4.3311,1513
35496,7.8661,6.8989,9.0094,1551
35501,11.4203,-2.5127,15.4761,1523
35506,-11.4419,-1.7573,14.8883,1525
35511,-12.6821,2.3583,4.7692,1531
35516,4.3491,6.9444,7.3119,1529
35521,15.6174,1.0127,13.963,1524
35526,-7.6184,-3.2801,18.9729,1527
35531,-11.7615,0.255,6.0621,1531
35536,-1.1145,6.6236,3.5602,1526
35541,12.542,4.6148,14.9302,1525
35546,-2.162,-4.7429,18.1576,1548
35551,-14.5364,-0.8248,7.5812,1529
35556,-4.6687,5.5414,3.954,1527
35561,11.8369,7.4208,13.283,1516
35566,8.8777,-6.3243,16.3584,1515
35571,-9.3853,-0.0754,10.8086,1545
35576,-11.7112,4.3132,4.0953,1512
35581,7.8973,6.7193,8.8933,1555
35586,10.8481,-2.5426,15.9226,1508
35591,-12.2236,-1.9692,14.534,1528
35596,-12.074,2.5678,4.5418,1579
35601,4.7034,6.9216,7.4651,1540
35606,16.0064,0.7051,14.2371,1529
35611,-8.0457,-3.1855,19.1213,1525
35616,-11.9973,0.5195,5.8993,1523
35621,-0.8811,6.5146,3.3339,1543
35626,12.1841,4.5143,15.2654,1517
35631,-2.4349,-4.6256,18.0547,1549
35636,-14.0899,-0.7027,7.4759,1541
35641,-4.276,5.6743,3.8044,1513
35646,11.7507,7.3203,13.453,1515
35651,8.3306,-6.4177,16.5846,1523
35656,-9.4475,-0.0886,10.5524,1544
35661,-11.3988,4.3886,3.9792,1525
35666,7.6507,6.59,9.013,1531
35671,10.5273,-2.4098,15.9562,1513
35676,-11.0792,-2.3032,14.68,1527
35681,-12.3385,2.5965,4.561,1533
35686,4.7752,6.9049,7.4795,1531
35691,15.2774,0.668,14.1904,1519
35696,-8.2516,-3.0598,18.767,1525
35701,-12.3074,0.2514,5.9975,1519
35706,-0.7147,6.511,3.5721,1528
35711,11.485,4.6352,14.9889,1519
35716,-1.7346,-4.8279,17.9948,1529
35721,-13.1454,-0.9002,7.7117,1528
35726,-4.7274,5.8119,3.8535,1525
35731,11.5197,7.1551,13.3692,1527
35736,7.5669,-6.1531,16.3225,1516
35741,-9.3829,-0.3184,10.5333,1545
35746,-11.4994,4.4149,4.2066,1517
35751,7.7668,6.7361,9.3817,1547
35756,10.8362,-2.6755,15.591,1519
35761,-11.1558,-1.8328,14.5508,1523
35766,-12.5277,2.6193,4.8076,1526
35771,4.8303,6.9803,7.4065,1525
35776,15.2846,0.4345,14.0767,1520
35781,-8.1451,-2.9532,18.597,1533
35786,-12.1362,0.4142,6.1004,1533
35791,-0.7697,6.7109,3.7326,1528
35796,12.4786,4.1743,15.0679,1531
35801,-2.4612,-4.7154,17.8823,1547
35806,-14.1617,-0.5974,7.513,1527
35811,-4.4891,5.6802,4.0127,1512
35816,11.9064,7.106,13.4087,1517
35821,8.0541,-6.3482,16.4697,1529
35826,-9.4595,-0.0347,10.4746,1549
35831,-11.467,4.5633,4.1503,1524
35836,8.1307,6.6822,9.3314,1528
35841,10.6817,-2.8563,15.8329,1501
35846,-11.8166,-1.8854,14.3341,1528
35851,-12.1949,2.7904,4.5382,1527
35856,4.7908,6.9779,7.7177,1518
35861,15.7467,0.4238,14.139,1525
35866,-8.2408,-2.9856,18.7921,1514
35871,-12.1793,0.577,5.9436,1519
35876,-0.6752,6.7277,3.5602,1533
35881,12.1661,4.1001,15.2642,1531
35886,-2.2625,-4.6843,17.9206,1553
35891,-13.9558,-0.5112,7.4412,1529
35896,-4.3574,5.8239,3.8283,1531
35901,11.6801,7.0725,13.5955,1527
35906,8.1726,-6.4081,16.4901,1525
35911,-9.5972,-0.073,10.4483,1541
35916,-11.3868,4.5765,3.954,1516
35921,7.8075,6.5182,9.2189,1543
35926,10.7859,-2.7845,15.9107,1507
35931,-11.0684,-2.0339,14.5843,1529
35936,-12.4906,2.873,4.4652,1527
35941,4.6974,6.845,7.5573,1543
35946,15.4151,0.4034,14.4071,1529
35951,-8.2145,-3.0861,18.5479,1519
35956,-12.311,0.5674,5.873,1532
35961,-0.7913,6.6619,3.6488,1519
35966,11.9076,4.1132,15.2355,1525
35971,-1.8531,-4.9105,17.8607,1533
35976,-13.556,-0.5578,7.4771,1527
35981,-4.634,5.9125,3.7804,1527
35986,11.5377,6.9851,13.5213,1528
35991,7.8446,-6.286,16.4218,1525
35996,-9.5397,-0.103,10.4519,1547
36001,-11.376,4.5753,4.0474,1525
36006,7.9428,6.681,9.4667,1542
36011,10.9595,-2.8766,15.7922,1517
36016,-11.2312,-1.8387,14.4394,1527
36021,-12.3768,2.794,4.5933,1523
36026,4.7202,6.9336,7.5573,1524
36031,15.4953,0.413,14.2479,1529
36036,-8.2732,-3.0526,18.6173,1523
36041,-12.1602,0.5686,5.9951,1527
36046,-0.6847,6.7121,3.6571,1533
36051,12.2308,4.0677,15.3253,1528
36056,-2.2805,-4.8064,17.8859,1543
36061,-13.9247,-0.5016,7.4101,1517
36066,-4.4233,5.8383,3.8511,1519
36071,11.6418,6.9659,13.5823,1515
36076,8.0792,-6.3578,16.496,1513
36081,-9.5541,-0.0048,10.3741,1547
36086,-11.3533,4.5526,3.9756,1509
36091,7.8793,6.6044,9.3709,1524
36096,10.7871,-2.8659,15.8843,1512
36101,-11.2779,-1.8747,14.4071,1533
36106,-12.3672,2.8503,4.4436,1525
36111,4.6603,6.8726,7.5369,1543
36116,15.5551,0.4788,14.437,1529
36121,-8.1463,-3.0406,18.6544,1527
36126,-12.2332,0.516,5.9245,1532
36131,-0.723,6.6595,3.6272,1527
36136,11.6657,4.2042,15.3289,1529
36141,-1.6867,-4.7788,17.8464,1553
36146,-13.0843,-0.5471,7.519,1519
36151,-4.4341,5.8634,3.7373,1528
36156,11.3545,6.9923,13.5931,1518
36161,7.7357,-6.1926,16.611,1523
36166,-9.5732,-0.1915,10.2879,1549
36171,-11.2994,4.5226,3.9863,1530
36176,7.3011,6.5936,9.4044,1547
36181,11.1151,-2.5151,15.7658,1503
36186,-10.24,-2.0387,14.6968,1526
36191,-12.8509,2.8623,4.6938,1533
36196,4.7561,6.8522,7.2891,1515
36201,14.868,0.4513,14.54,1525
36206,-8.4252,-3.0299,18.3635,1525
36211,-12.9754,0.4872,5.867,1527
36216,-0.5662,6.5457,3.8391,1529
36221,12.1506,4.2126,15.2295,1529
36226,-1.5443,-5.0841,18.1229,1543
36231,-13.2328,-0.6045,7.4089,1533
36236,-4.853,6.0765,3.7529,1532
36241,11.3353,6.6535,13.5452,1527
36246,7.4603,-6.1016,16.6708,1522
36251,-9.426,-0.1173,10.2053,1546
36256,-11.1426,4.6304,4.0486,1525
36261,7.5968,6.6679,9.669,1529
36266,11.0983,-2.8754,15.7574,1507
36271,-10.7308,-1.8411,14.516,1531
36276,-12.6749,2.9437,4.5562,1525
36281,4.6819,6.7708,7.4759,1527
36286,15.1589,0.2993,14.4718,1525
36291,-8.406,-2.9748,18.4246,1519
36296,-12.3876,0.5806,5.8395,1527
36301,-0.5782,6.7229,3.8199,1530
36306,11.7172,3.9313,15.2702,1519
36311,-1.7561,-4.9572,17.8081,1543
36316,-12.9395,-0.4573,7.4651,1525
36321,-4.4604,6.0466,3.6919,1531
36326,11.4191,6.6966,13.7176,1523
36331,7.1958,-6.2453,16.6325,1519
36336,-9.6774,-0.1185,10.167,1549
36341,-11.151,4.7585,3.984,1515
36346,7.774,6.59,9.8533,1541
36351,11.0097,-3.1065,15.7718,1515
36356,-10.9188,-1.6233,14.297,1533
36361,-12.6785,3.1041,4.5418,1529
36366,4.8866,6.845,7.7057,1526
36371,15.2319,-0.0766,14.6142,1528
36376,-8.521,-2.7557,18.1277,1531
36381,-12.3565,0.8272,5.7784,1532
36386,-0.3747,6.8582,3.8307,1541
36391,12.3014,3.5147,15.512,1527
36396,-2.3918,-4.7681,17.7542,1547
36401,-13.6685,-0.1484,7.2413,1543
36406,-4.1563,6.0825,3.7769,1527
36411,11.8274,6.5314,13.8959,1525
36416,7.0461,-6.4416,16.7247,1530
36421,-9.6031,0.1425,9.9204,1531
36426,-10.9223,4.9225,3.8822,1517
36431,8.1343,6.4069,9.9288,1525
36436,10.574,-3.1711,16.0675,1527
36441,-10.9798,-1.7166,14.1821,1523
36446,-12.3493,3.3064,4.3742,1523
36451,5.1559,6.8534,7.8278,1543
36456,15.3025,-0.1544,14.7148,1515
36461,-8.8789,-2.6815,18.0954,1517
36466,-12.6677,0.8116,5.7413,1519
36471,0.0144,6.7229,3.9145,1525
36476,11.8333,3.6464,15.5216,1529
36481,-2.2913,-4.9536,17.8835,1541
36486,-12.8617,-0.2658,7.2891,1528
36491,-3.9552,6.2285,3.7385,1527
36496,11.819,6.353,13.9247,1541
36501,6.1196,-6.3135,16.866,1518
36506,-9.59,-0.1245,9.6522,1544
36511,-10.6039,5.017,3.8523,1517
36516,7.8626,6.5553,10.2915,1523
36521,10.7727,-3.3651,15.846,1529
36526,-10.7045,-1.6065,13.8289,1519
36531,-12.408,3.2813,4.5059,1523
36536,5.3127,6.8714,7.9176,1542
36541,15.0368,-0.5303,14.6094,1519
36546,-9.0082,-2.4684,17.8428,1517
36551,-12.7419,0.8595,5.7832,1527
36556,0.3196,6.7481,4.1001,1529
36561,11.9985,3.3471,15.4294,1511
36566,-2.8898,-4.8135,17.917,1558
36571,-13.1909,-0.2358,7.0761,1527
36576,-3.571,6.1375,3.8259,1517
36581,11.9112,6.444,13.9331,1532
36586,5.7461,-6.2979,17.0288,1523
36591,-9.5457,-0.1425,9.4822,1547
36596,-10.3693,4.9895,3.8726,1525
36601,7.9859,6.6966,10.5201,1558
36606,10.404,-3.468,15.7503,1531
36611,-10.6781,-1.6041,13.6781,1525
36616,-12.2284,3.3148,4.4532,1524
36621,5.6659,6.9432,8.1139,1543
36626,14.8668,-0.6476,14.522,1509
36631,-9.2296,-2.3116,17.8344,1518
36636,-12.8317,0.9002,5.7174,1527
36641,0.6476,6.7409,4.1647,1558
36646,12.0069,3.3184,15.3013,1515
36651,-3.1125,-4.7944,17.9661,1551
36656,-13.2399,-0.231,7.0737,1533
36661,-3.3926,6.2501,3.8379,1545
36666,12.0536,6.3027,14.0611,1528
36671,5.3163,-6.3159,17.1676,1529
36676,-9.5313,-0.1496,9.2153,1528
36681,-10.1179,5.1044,3.6739,1545
36686,8.0541,6.5853,10.7571,1533
36691,10.2915,-3.5374,15.9705,1547
36696,-10.6745,-1.5119,13.477,1524
36701,-12.074,3.5374,4.3084,1550
36706,5.703,6.8785,8.2684,1517
36711,14.9697,-0.9421,14.6789,1515
36716,-9.6702,-2.2278,17.5471,1541
36721,-13.3297,1.081,5.521,1515
36726,0.9002,6.7516,4.3622,1547
36731,12.4965,3.0574,15.542,1513
36736,-3.7194,-4.719,18.0834,1532
36741,-13.6721,-0.0766,6.79,1531
36746,-3.049,6.3255,3.8942,1528
36751,12.3337,5.9975,14.1952,1532
36756,4.7884,-6.3877,17.3125,1527
36761,-9.5672,-0.0994,9.0034,1557
36766,-9.8485,5.3654,3.6715,1511
36771,8.4156,6.5218,11.1271,1544
36776,9.7743,-3.9133,15.9705,1541
36781,-10.914,-1.4389,13.1705,1565
36786,-11.8381,3.7529,4.1719,1533
36791,6.0154,6.9432,8.5688,1533
36796,14.8704,-1.3659,14.6633,1511
36801,-9.6786,-1.9788,17.34,1528
36806,-13.0472,1.2785,5.551,1515
36811,1.2594,6.7995,4.4664,1551
36816,12.3194,2.6408,15.6114,1518
36821,-4.0438,-4.5574,17.8176,1548
36826,-13.4578,0.0587,6.7516,1523
36831,-2.6001,6.3087,3.9421,1517
36836,12.4594,5.928,14.376,1547
36841,4.1599,-6.3494,17.3831,1515
36846,-9.6055,-0.1472,8.7903,1549
36851,-9.5086,5.3618,3.5961,1515
36856,8.4839,6.529,11.2958,1523
36861,9.5828,-3.96,15.9885,1587
36866,-10.8038,-1.3731,12.9107,1517
36871,-11.6801,3.7852,4.2162,1546
36876,6.3542,7.0174,8.7496,1507
36881,14.6944,-1.5239,14.6884,1553
36886,-9.7947,-1.8902,17.1305,1547
36891,-13.2603,1.3384,5.4863,1527
36896,1.5634,6.7792,4.4592,1545
36901,12.4235,2.5869,15.5539,1515
36906,-4.4891,-4.5753,17.8799,1503
36911,-13.6206,0.1712,6.7026,1545
36916,-2.4241,6.426,4.0354,1515
36921,12.6653,5.7233,14.4071,1551
36926,3.6763,-6.3782,17.437,1512
36931,-9.6414,-0.0443,8.6024,1543
36936,-9.232,5.5869,3.6164,1523
36941,8.4324,6.3638,11.5137,1502
36946,9.098,-4.1276,16.1465,1523
36951,-10.9918,-1.3108,12.5959,1525
36956,-11.3461,3.9768,4.1444,1547
36961,6.4907,6.9456,8.9256,1517
36966,14.6932,-1.7873,14.6729,1501
36971,-9.9515,-1.7214,16.9509,1544
36976,-13.2471,1.4688,5.4109,1515
36981,1.8543,6.7876,4.6567,1545
36986,12.5277,2.3822,15.6282,1515
36991,-4.8471,-4.4496,17.8248,1533
36996,-13.6074,0.2239,6.5673,1531
37001,-2.0111,6.4141,4.1168,1501
37006,12.7599,5.636,14.4454,1533
37011,3.2394,-6.341,17.6345,1575
37016,-9.6247,-0.0994,8.4228,1525
37021,-8.9447,5.6551,3.5602,1519
37026,8.5078,6.3386,11.7017,1512
37031,8.8597,-4.2916,16.1752,1503
37036,-10.9116,-1.306,12.4259,1527
37041,-11.2875,4.0259,4.0869,1549
37046,6.6319,7.0018,9.159,1517
37051,14.601,-2.0423,14.7004,1511
37056,-10.0772,-1.555,16.7666,1541
37061,-13.3489,1.5359,5.3846,1519
37066,2.0411,6.8342,4.8662,1560
37071,12.6905,2.1811,15.4953,1512
37076,-5.193,-4.3479,17.8476,1541
37081,-13.7726,0.2646,6.4967,1531
37086,-1.889,6.4919,4.2294,1511
37091,12.8904,5.5138,14.3425,1545
37096,2.7701,-6.3003,17.6237,1520
37101,-9.5984,-0.0994,8.351,1529
37106,-8.8741,5.7042,3.6236,1502
37111,9.153,6.4153,11.8465,1523
37116,8.3079,-4.4688,16.2099,1543
37121,-11.3916,-1.2438,12.1997,1531
37126,-10.9762,4.0666,4.1468,1543
37131,7.0138,7.1287,9.4619,1517
37136,14.6286,-2.2972,14.5125,1513
37141,-10.2077,-1.3958,16.7558,1544
37146,-13.2304,1.5155,5.3762,1525
37151,2.4469,6.7804,4.8195,1555
37156,12.5265,2.0111,15.5013,1519
37161,-5.7904,-4.0558,17.8991,1542
37166,-13.8289,0.3244,6.3554,1523
37171,-1.4222,6.4057,4.3144,1527
37176,13.1262,5.5881,14.4418,1542
37181,2.308,-6.2764,17.8117,1527
37186,-9.6678,-0.2227,8.1379,1528
37191,-8.442,5.7126,3.5099,1518
37196,9.1734,6.4799,12.0536,1545
37201,7.9368,-4.4999,16.1812,1543
37206,-11.236,-1.3096,11.971,1527
37211,-10.7847,4.1587,4.0869,1522
37216,7.2221,7.2748,9.6486,1527
37221,14.2982,-2.5486,14.5041,1507
37226,-10.2747,-1.3156,16.4386,1541
37231,-13.3154,1.5921,5.3917,1525
37236,2.7857,6.8163,5.0398,1544
37241,12.6258,1.798,15.4175,1511
37246,-6.1435,-3.9935,17.8859,1519
37251,-13.9343,0.2945,6.2501,1541
37256,-1.0738,6.3662,4.4317,1515
37261,13.1885,5.5198,14.3377,1543
37266,1.6005,-6.1782,17.9637,1517
37271,-9.6522,-0.3639,8.0361,1543
37276,-8.0924,5.6336,3.5698,1527
37281,9.645,6.7552,12.3421,1516
37286,7.4759,-4.7238,16.1094,1531
37291,-11.4407,-1.3587,11.7831,1531
37296,-10.4722,3.9863,4.13,1527
37301,7.6124,7.5202,9.9228,1531
37306,14.1186,-2.5881,14.303,1511
37311,-10.2232,-1.2079,16.4254,1541
37316,-13.3405,1.5167,5.5079,1523
37321,3.31,6.8223,5.1535,1533
37326,12.4989,1.9357,15.0368,1512
37331,-6.5948,-3.7673,17.9805,1523
37336,-13.9127,0.152,6.3027,1523
37341,-0.674,6.3494,4.4269,1527
37346,13.4147,5.4851,14.2204,1543
37351,1.1684,-5.9664,18.16,1525
37356,-9.5445,-0.3974,7.8841,1519
37361,-7.8554,5.7233,3.4237,1531
37366,9.4391,6.6391,12.3325,1529
37371,6.9851,-4.4736,16.3775,1547
37376,-11.5245,-1.3575,11.5389,1528
37381,-10.3154,4.2557,4.0199,1529
37386,7.6914,7.3706,10.0149,1543
37391,14.1976,-2.8718,14.5208,1522
37396,-10.4543,-1.0942,16.0723,1545
37401,-13.3537,1.8268,5.3271,1519
37406,3.286,6.7193,5.2505,1517
37411,12.5684,1.6005,15.4091,1519
37416,-6.8307,-3.7481,17.8069,1551
37421,-13.9666,0.4405,6.1292,1524
37426,-0.4956,6.3985,4.6855,1525
37431,13.392,5.1535,14.4275,1543
37436,0.7745,-6.013,18.172,1541
37441,-9.7312,-0.3304,7.762,1528
37446,-7.58,5.8395,3.4465,1532
37451,9.3326,6.5254,12.6402,1515
37456,7.0413,-4.6795,16.3069,1544
37461,-11.2647,-1.3012,11.4084,1532
37466,-10.2556,4.3598,4.0211,1518
37471,7.7213,7.355,10.1502,1541
37476,13.9929,-3.0143,14.4574,1513
37481,-10.2987,-1.0475,15.9777,1557
37486,-13.3094,1.8423,5.3139,1527
37491,3.2441,6.8486,5.3858,1541
37496,12.6007,1.4485,15.3624,1520
37501,-6.4943,-3.7924,17.7638,1528
37506,-13.8361,0.5052,6.1938,1523
37511,-0.656,6.4153,4.5262,1516
37516,13.313,5.0925,14.5053,1547
37521,1.0463,-6.0561,18.0942,1523
37526,-9.7336,-0.1544,7.8123,1530
37531,-7.8458,5.8909,3.5279,1523
37536,9.1818,6.4129,12.5444,1516
37541,7.3119,-4.7345,16.2207,1542
37546,-11.157,-1.2402,11.5772,1531
37551,-10.4303,4.3048,4.0761,1525
37556,7.5848,7.2963,10.0868,1519
37561,14.0456,-2.8718,14.4825,1503
37566,-10.3741,-1.0678,16.119,1548
37571,-13.3154,1.7609,5.3558,1525
37576,3.0993,6.8079,5.3403,1533
37581,12.566,1.573,15.2343,1516
37586,-6.4117,-3.8666,17.8212,1519
37591,-13.878,0.3998,6.3015,1555
37596,-0.8823,6.4332,4.4843,1519
37601,13.1909,5.1739,14.4574,1547
37606,1.2977,-6.0573,17.9314,1517
37611,-9.6774,-0.2406,7.9571,1525
37616,-7.9871,5.8203,3.5769,1524
37621,9.3721,6.4655,12.4319,1543
37626,7.5094,-4.6543,16.1285,1545
37631,-11.2707,-1.1337,11.7017,1525
37636,-10.5764,4.2725,4.0833,1525
37641,7.3849,7.2113,9.8761,1531
37646,14.2072,-2.7593,14.4993,1511
37651,-10.3453,-1.1037,16.1992,1544
37656,-13.2711,1.7741,5.3283,1525
37661,2.9054,6.7924,5.2672,1547
37666,12.6378,1.6041,15.4115,1523
37671,-6.3506,-3.9109,17.7662,1525
37676,-13.8732,0.4345,6.2453,1526
37681,-1.0235,6.4272,4.5298,1523
37686,13.198,5.2613,14.4837,1533
37691,1.6161,-6.2046,17.9086,1519
37696,-9.7839,-0.1437,7.9284,1529
37701,-8.0649,5.8,3.5961,1528
37706,9.2823,6.4524,12.3649,1513
37711,7.7201,-4.6878,16.1992,1543
37716,-11.3018,-1.2354,11.7364,1527
37721,-10.5716,4.3012,4.033,1527
37726,7.264,7.2006,9.7791,1543
37731,14.3245,-2.6647,14.5364,1517
37736,-10.3022,-1.2378,16.3129,1547
37741,-13.2088,1.7322,5.296,1519
37746,2.7174,6.8271,5.0973,1547
37751,12.6689,1.6915,15.5096,1509
37756,-6.2058,-3.954,17.753,1523
37761,-13.9726,0.4489,6.2369,1512
37766,-1.1576,6.4201,4.4305,1527
37771,13.2232,5.3259,14.4442,1555
37776,1.9261,-6.3003,17.9134,1517
37781,-9.6498,-0.1065,8.0313,1547
37786,-8.3067,5.7317,3.4824,1543
37791,9.5026,6.3889,12.1709,1519
37796,7.6459,-4.6424,16.3009,1532
37801,-11.631,-1.2833,11.7436,1556
37806,-10.5548,4.209,4.051,1524
37811,7.3179,7.252,9.7408,1528
37816,14.5544,-2.5642,14.5903,1515
37821,-10.2627,-1.2414,16.4649,1533
37826,-13.2818,1.6592,5.3582,1527
37831,2.7737,6.8043,4.95,1553
37836,12.6091,1.8016,15.5479,1508
37841,-6.2285,-4.0199,17.8224,1527
37846,-13.939,0.346,6.2525,1531
37851,-1.1995,6.3865,4.4269,1527
37856,13.2435,5.3738,14.4322,1553
37861,2.065,-6.3087,17.9828,1543
37866,-9.5828,-0.1125,7.9571,1529
37871,-8.3115,5.7616,3.4512,1515
37876,9.2237,6.3662,12.1051,1515
37881,7.7213,-4.4796,16.423,1551
37886,-11.5329,-1.3132,11.8525,1541
37891,-10.653,4.2569,4.0342,1549
37896,7.2401,7.1898,9.6654,1519
37901,14.5388,-2.4948,14.5963,1506
37906,-10.1873,-1.2953,16.514,1533
37911,-13.2124,1.6951,5.2756,1527
37916,2.6468,6.7528,4.8195,1531
37921,12.7491,1.8986,15.6844,1517
37926,-6.1016,-3.9205,17.7853,1524
37931,-13.854,0.4477,6.2991,1529
37936,-1.3001,6.3494,4.3227,1507
37941,13.3884,5.4983,14.5017,1541
37946,2.2242,-6.3279,17.8751,1519
37951,-9.5529,-0.018,8.0625,1542
37956,-8.4958,5.7964,3.4249,1525
37961,9.4272,6.4177,12.1362,1527
37966,7.5298,-4.6711,16.3883,1525
37971,-12.2763,-1.3312,11.7005,1529
37976,-10.5692,4.1863,3.9672,1549
37981,7.2856,7.3179,9.6965,1531
37986,14.8393,-2.7102,14.6106,1513
37991,-10.3537,-1.2426,16.6493,1553
37996,-13.2268,1.7107,5.2756,1523
38001,2.5809,6.8426,4.8375,1555
38006,13.0783,1.6436,15.8424,1527
38011,-6.7205,-3.7338,17.735,1544
38016,-14.2072,0.5195,6.1136,1533
38021,-1.2474,6.2297,4.5143,1523
38026,13.5883,5.5952,14.4394,1543
38031,2.6588,-6.5769,17.8715,1519
38036,-9.4571,0.1317,8.0517,1526
38041,-8.5449,5.7281,3.4512,1519
38046,9.6271,6.3829,11.9303,1519
38051,7.4867,-4.5981,16.453,1527
38056,-12.627,-1.4461,11.7041,1533
38061,-10.3801,4.0881,3.9863,1553
38066,7.1395,7.3706,9.6606,1531
38071,15.1876,-2.5091,14.4849,1513
38076,-10.3729,-1.2941,16.9079,1531
38081,-13.1909,1.6161,5.2577,1529
38086,2.381,6.6882,4.4592,1545
38091,12.7395,2.059,15.8604,1519
38096,-6.1734,-4.0115,17.82,1529
38101,-14.0468,0.4298,6.286,1545
38106,-1.4174,6.1914,4.3802,1527
38111,13.2794,5.8359,14.4765,1542
38116,3.0418,-6.5493,17.8464,1531
38121,-9.5253,0.0204,8.1989,1555
38126,-8.7233,5.5905,3.3686,1515
38131,9.0405,6.4284,11.7064,1519
38136,8.0589,-4.306,16.3919,1525
38141,-11.5915,-1.5622,12.299,1527
38146,-10.8362,3.984,4.027,1555
38151,6.8546,7.2257,9.3386,1526
38156,14.88,-2.2015,14.5615,1519
38161,-10.0736,-1.5371,16.8923,1545
38166,-13.1885,1.4916,5.3882,1523
38171,1.9932,6.7098,4.5777,1531
38176,12.4774,2.2649,15.8113,1527
38181,-5.357,-4.2545,17.8643,1548
38186,-13.8193,0.3017,6.4308,1529
38191,-1.8543,6.3159,4.1444,1543
38196,12.9323,5.7329,14.4574,1550
38201,3.3064,-6.438,17.601,1525
38206,-9.681,-0.0012,8.3917,1548
38211,-9.1159,5.6336,3.5362,1514
38216,8.9268,6.3506,11.6406,1519
38221,8.5976,-4.3491,16.2387,1543
38226,-11.5951,-1.2941,12.3313,1519
38231,-11.2085,4.0127,4.0689,1545
38236,6.6894,7.0832,9.1746,1529
38241,14.8883,-2.0039,14.6549,1519
38246,-10.0209,-1.5658,16.9641,1529
38251,-13.0963,1.4832,5.4013,1531
38256,1.907,6.7959,4.5167,1557
38261,12.8341,2.1679,15.773,1525
38266,-5.4851,-4.1456,17.7458,1545
38271,-14.0827,0.3328,6.3877,1541
38276,-1.9992,6.2237,4.2282,1523
38281,13.0999,5.8359,14.3963,1545
38286,3.65,-6.5098,17.6345,1531
38291,-9.4655,0.0706,8.5042,1545
38296,-9.238,5.527,3.5027,1513
38301,9.0824,6.3805,11.4682,1524
38306,8.3749,-4.2425,16.2686,1517
38311,-11.9375,-1.4664,12.3864,1531
38316,-10.999,3.893,4.0773,1527
38321,6.6738,7.1766,9.2739,1526
38326,15.1637,-1.8962,14.455,1511
38331,-10.058,-1.6664,17.261,1533
38336,-13.0723,1.3707,5.3714,1515
38341,1.822,6.7301,4.4281,1543
38346,12.5959,2.4229,15.6928,1517
38351,-5.2218,-4.2234,17.905,1543
38356,-13.9283,0.2011,6.5541,1530
38361,-2.0554,6.2381,4.1994,1516
38366,12.9359,5.9197,14.3401,1547
38371,3.9157,-6.4871,17.5351,1518
38376,-9.5002,-0.0168,8.6048,1546
38381,-9.2991,5.4672,3.5853,1517
38386,8.9292,6.4751,11.3952,1525
38391,8.6526,-4.1456,16.1573,1523
38396,-11.6466,-1.4257,12.5911,1531
38401,-11.157,3.8092,4.1432,1533
38406,6.5278,7.1311,9.0429,1532
38411,15.0344,-1.8004,14.4682,1513
38416,-10.0126,-1.6305,17.2622,1541
38421,-13.0233,1.2953,5.4636,1527
38426,1.6305,6.7756,4.3814,1549
38431,12.5492,2.4995,15.7024,1515
38436,-5.0506,-4.2677,17.9062,1545
38441,-13.9187,0.2059,6.529,1541
38446,-2.247,6.201,4.1384,1519
38451,12.9059,6.0011,14.37,1545
38456,3.9648,-6.5673,17.3807,1532
38461,-9.4631,0.0239,8.6538,1563
38466,-9.5241,5.3893,3.6559,1517
38471,9.1303,6.5781,11.3844,1541
38476,8.7843,-4.2784,16.0567,1527
38481,-11.819,-1.3372,12.6222,1541
38486,-11.2168,3.7769,4.1779,1527
38491,6.4943,7.2257,9.074,1527
38496,15.1529,-1.7609,14.3544,1519
38501,-9.979,-1.6807,17.3855,1524
38506,-12.9921,1.2821,5.5091,1519
38511,1.6472,6.8127,4.4388,1529
38516,12.8245,2.4672,15.5851,1513
38521,-5.3474,-4.1958,17.8416,1556
38526,-14.2419,0.1448,6.5422,1519
38531,-2.3116,6.1854,4.2808,1517
38536,13.0245,6.1112,14.2479,1544
38541,4.2832,-6.6008,17.3795,1529
38546,-9.493,0.0718,8.7317,1547
38551,-9.584,5.3834,3.6105,1519
38556,9.3865,6.5781,11.1989,1525
38561,8.7508,-4.3263,16.1309,1519
38566,-12.3349,-1.3767,12.5372,1531
38571,-11.0014,3.7062,4.1887,1543
38576,6.3889,7.2077,9.1399,1527
38581,15.4809,-1.7466,14.4119,1513
38586,-9.9635,-1.7202,17.4992,1519
38591,-13.0328,1.2749,5.4684,1527
38596,1.6747,6.7181,4.2306,1529
38601,12.8593,2.5953,15.761,1525
38606,-5.3103,-4.1575,17.9637,1544
38611,-14.3006,0.1365,6.5038,1541
38616,-2.2458,6.1052,4.1887,1528
38621,13.0245,6.2106,14.2922,1549
38626,4.5107,-6.6583,17.4657,1517
38631,-9.5181,0.0024,8.7293,1549
38636,-9.5876,5.3738,3.5051,1525
38641,9.2775,6.5422,11.0935,1527
38646,8.7496,-4.1875,16.2949,1529
38651,-12.3684,-1.5107,12.6067,1517
38656,-11.0959,3.6966,4.1503,1547
38661,6.4464,7.2125,8.9376,1523
38666,15.4797,-1.7334,14.5029,1519
38671,-9.8809,-1.7071,17.5483,1529
38676,-13.0604,1.3431,5.5103,1531
38681,1.5311,6.7301,4.1396,1531
38686,12.7695,2.5774,15.9202,1519
38691,-5.2625,-4.1647,17.8607,1555
38696,-14.1461,0.2442,6.5158,1523
38701,-2.3499,6.1136,4.118,1531
38706,12.9969,6.122,14.376,1519
38711,4.4125,-6.6774,17.4968,1526
38716,-9.6043,0.158,8.7269,1544
38721,-9.6774,5.4109,3.5159,1513
38726,9.2392,6.4823,11.1294,1513
38731,8.8334,-4.3598,16.3273,1528
38736,-12.3337,-1.3671,12.5205,1523
38741,-11.0516,3.8523,4.0953,1533
38746,6.3482,7.1407,9.0704,1525
38751,15.427,-1.7777,14.5005,1519
38756,-9.9467,-1.6843,17.4214,1523
38761,-12.8976,1.4114,5.4025,1519
38766,1.6005,6.7648,4.2461,1528
38771,12.9263,2.3762,15.84,1525
38776,-5.4731,-4.1156,17.8428,1557
38781,-14.2563,0.2897,6.5206,1519
38786,-2.1979,6.1387,4.227,1527
38791,13.2363,6.0681,14.3628,1529
38796,4.3622,-6.7493,17.4334,1523
38801,-9.566,0.1676,8.7233,1543
38806,-9.5433,5.4624,3.5243,1519
38811,9.2596,6.4727,11.1701,1529
38816,8.576,-4.2988,16.3524,1528
38821,-12.4714,-1.4461,12.5516,1523
38826,-10.9403,3.7864,4.1444,1545
38831,6.4212,7.2233,9.1494,1531
38836,15.4534,-1.9297,14.4658,1527
38841,-10.003,-1.6819,17.4262,1533
38846,-12.9646,1.3312,5.4085,1529
38851,1.5981,6.7684,4.2796,1547
38856,12.8868,2.4493,15.8341,1513
38861,-5.4384,-4.1468,17.8811,1550
38866,-14.273,0.2873,6.4799,1519
38871,-2.2649,6.1292,4.2246,1525
38876,13.0975,6.1196,14.3485,1534
38881,4.3634,-6.7361,17.4011,1527
38886,-9.5541,0.1221,8.746,1531
38891,-9.5912,5.4432,3.5518,1517
38896,9.3745,6.5481,11.23,1530
38901,8.7293,-4.3024,16.2494,1529
38906,-12.3601,-1.4269,12.5636,1531
38911,-11.048,3.7457,4.1156,1543
38916,6.4452,7.1778,9.0501,1542
38921,15.4282,-1.7442,14.4287,1515
38926,-9.9288,-1.7286,17.51,1523
38931,-12.9036,1.3575,5.5282,1523
38936,1.482,6.8079,4.221,1529
38941,12.9694,2.5319,15.8341,1516
38946,-5.4061,-4.1994,17.753,1551
38951,-14.3808,0.1963,6.5398,1529
38956,-2.3966,6.0753,4.2772,1511
38961,13.1442,6.1938,14.3077,1541
38966,4.5179,-6.8175,17.3783,1520
38971,-9.5493,0.1844,8.8406,1541
38976,-9.6905,5.3606,3.559,1512
38981,9.4667,6.5793,11.1318,1517
38986,8.831,-4.4077,16.265,1518
38991,-12.5708,-1.4305,12.5037,1541
38996,-10.9056,3.7002,4.0737,1527
39001,6.2357,7.2736,9.1171,1523
39006,15.6126,-1.6424,14.3401,1516
39011,-10.0173,-1.743,17.5639,1519
39016,-12.9706,1.3288,5.4372,1519
39021,1.6173,6.8127,4.2581,1548
39026,12.9143,2.5546,15.6856,1527
39031,-5.4348,-4.1539,17.9002,1543
39036,-14.4047,0.1951,6.4871,1523
39041,-2.2302,6.1016,4.2318,1525
39046,12.9335,6.2572,14.2766,1528
39051,4.6819,-6.7325,17.4513,1519
39056,-9.5445,0.1077,8.7628,1531
39061,-9.6139,5.3295,3.5865,1525
39066,9.262,6.5697,11.0971,1525
39071,8.9136,-4.2605,16.2686,1525
39076,-12.2499,-1.4676,12.706,1533
39081,-11.1713,3.6871,4.1216,1547
39086,6.2644,7.2712,9.0273,1517
39091,15.4211,-1.6915,14.3808,1519
39096,-9.8725,-1.8292,17.5495,1523
39101,-12.9131,1.2522,5.4815,1531
39106,1.4736,6.875,4.3084,1519
39111,13.1095,2.5486,15.6808,1518
39116,-5.4265,-4.1503,18.002,1561
39121,-14.5651,0.1568,6.5481,1524
39126,-2.5534,6.0801,4.3215,1529
39131,13.1633,6.2249,14.1258,1531
39136,4.7202,-6.8055,17.2945,1528
39141,-9.5134,0.1736,8.8478,1555
39146,-9.821,5.3439,3.6751,1519
39151,9.5648,6.6499,11.072,1529
39156,8.9866,-4.555,16.2662,1528
39161,-12.9933,-1.2929,12.4259,1523
39166,-10.9259,3.6212,4.118,1530
39171,6.183,7.2987,9.1423,1527
39176,15.8783,-1.6927,14.2838,1517
39181,-9.973,-1.7178,17.7542,1525
39186,-12.8784,1.2797,5.4803,1528
39191,1.4246,6.7924,4.1695,1527
39196,13.2914,2.5426,15.8077,1520
39201,-5.6994,-4.0797,17.9541,1547
39206,-14.8536,0.2023,6.4177,1529
39211,-2.3451,5.9771,4.3012,1528
39216,13.0903,6.426,14.2527,1543
39221,5.0661,-6.8079,17.3879,1524
39226,-9.4978,0.1496,8.8514,1543
39231,-9.7252,5.296,3.5985,1522
39236,9.481,6.6331,10.9343,1529
39241,8.9459,-4.2892,16.283,1525
39246,-12.7048,-1.4688,12.6617,1531
39251,-10.9463,3.6069,4.0282,1541
39256,6.1268,7.2293,9.0752,1519
39261,15.7503,-1.5754,14.3425,1527
39266,-9.845,-1.8711,17.7769,1527
39271,-12.9299,1.2151,5.4684,1523
39276,1.4485,6.7912,4.0498,1531
39281,13.0113,2.721,15.8532,1529
39286,-5.2756,-4.1731,17.9278,1543
39291,-14.5256,0.0934,6.4787,1528
39296,-2.4337,5.958,4.215,1523
39301,12.961,6.4428,14.3425,1543
39306,4.9692,-6.7995,17.3053,1519
39311,-9.5433,0.0742,8.8454,1544
39316,-9.7552,5.1978,3.5494,1513
39321,9.1626,6.7098,10.9415,1533
39326,9.0836,-4.13,16.1992,1515
39331,-12.1003,-1.585,12.9143,1529
39336,-11.1953,3.5626,4.0677,1549
39341,6.0753,7.2544,8.9735,1532
39346,15.3971,-1.4341,14.2551,1531
39351,-9.8114,-1.9597,17.7027,1530
39356,-12.9945,1.0846,5.5809,1529
39361,1.2797,6.7217,4.2629,1547
39366,12.7814,2.8359,15.5491,1517
39371,-4.9907,-4.2713,17.984,1553
39376,-14.4346,-0.0994,6.6379,1523
39381,-2.5893,5.9915,4.1767,1514
39386,12.6881,6.4284,14.1653,1531
39391,4.9249,-6.669,17.2634,1525
39396,-9.5445,-0.0419,9.0477,1543
39401,-9.8761,5.1858,3.7553,1525
39406,9.3685,6.7864,10.9678,1523
39411,9.2775,-4.2246,16.0423,1518
39416,-12.1709,-1.3623,12.8353,1531
39421,-11.3306,3.5279,4.1815,1533
39426,5.9891,7.1742,8.9459,1519
39431,15.5228,-1.4078,14.2898,1533
39436,-9.7564,-1.9585,17.7422,1530
39441,-12.8473,1.2234,5.5929,1517
39446,1.3216,6.8426,4.2569,1525
39451,13.4231,2.6157,15.6353,1525
39456,-5.4133,-4.1539,17.9661,1549
39461,-14.9769,0.1281,6.4476,1527
39466,-2.6659,6.0059,4.3694,1525
39471,13.0987,6.4009,14.1318,1524
39476,5.187,-6.8091,17.2263,1516
39481,-9.5062,0.164,8.9388,1554
39486,-9.9012,5.2038,3.7074,1512
39491,9.5565,6.7373,10.9343,1524
39496,9.244,-4.476,16.18,1513
39501,-12.9838,-1.3455,12.536,1523
39506,-10.9654,3.5123,4.0139,1529
39511,6.0226,7.2604,9.1782,1529
39516,15.9131,-1.4676,14.0887,1523
39521,-9.8629,-1.8735,17.917,1525
39526,-12.8904,1.1911,5.4875,1527
39531,1.4222,6.9001,4.1575,1541
39536,13.4997,2.6372,15.6329,1513
39541,-5.5318,-4.0677,18.0762,1541
39546,-15.3205,0.152,6.3973,1541
39551,-2.6025,5.9711,4.3814,1523
39556,13.1071,6.353,14.2084,1519
39561,5.3678,-6.8582,17.1389,1529
39566,-9.584,0.2837,9.074,1542
39571,-9.9491,5.3498,3.6476,1523
39576,9.6331,6.5829,10.8529,1517
39581,9.3206,-4.6029,16.3656,1526
39586,-13.0436,-1.1612,12.5181,1525
39591,-10.9822,3.6524,4.0187,1531
39596,5.8514,7.1766,9.177,1515
39601,16.0747,-1.5119,14.1952,1524
39606,-9.73,-1.8735,17.826,1529
39611,-12.7084,1.2318,5.4995,1529
39616,1.3252,6.8462,4.2413,1529
39621,13.5608,2.6372,15.706,1523
39626,-5.6276,-4.0282,18.0391,1548
39631,-15.5108,0.1089,6.3686,1523
39636,-2.3966,5.8514,4.3562,1523
39641,12.8664,6.4775,14.2431,1524
39646,5.545,-6.8666,17.1664,1529
39651,-9.6474,0.1784,9.0249,1531
39656,-9.8533,5.1655,3.7098,1531
39661,9.511,6.6918,10.8864,1526
39666,9.3015,-4.3335,16.2028,1513
39671,-12.4666,-1.3874,12.8485,1530
39676,-11.1115,3.5183,3.9433,1529
39681,5.7245,7.185,9.1016,1529
39686,15.8041,-1.2977,14.1114,1527
39691,-9.7013,-2.1033,17.8799,1516
39696,-12.797,1.1708,5.5115,1527
