timestamp_ms,ax,ay,az,acs_adc
38331,-15.4773,0.3603,7.0844,1549
38336,-5.2936,6.1818,3.6919,1525
38341,12.0225,6.5505,13.7942,1529
38346,9.657,-6.9564,15.773,1530
38351,-10.2759,0.9744,11.7651,1533
38356,-12.475,4.5562,4.4113,1547
38361,7.4879,6.6822,7.9571,1531
38366,12.5289,-3.3519,16.095,1544
38371,-11.2779,-1.1097,15.603,1531
38376,-13.9773,2.2877,5.1392,1531
38381,1.8483,6.8977,5.7221,1547
38386,15.6796,1.8998,15.0081,1541
38391,-2.5953,-5.2648,17.9673,1545
38396,-10.2556,0.8811,7.0174,1544
38401,-6.3758,6.8414,3.4596,1609
38406,12.3876,5.138,13.799,1532
38411,4.8662,-6.1998,16.775,1533
38416,-13.301,-0.0634,9.9204,1547
38421,-10.6805,5.0422,3.8463,1557
38426,8.2863,7.3191,10.5512,1533
38431,14.2383,-4.3371,14.6693,1517
38436,-10.2675,-0.4824,16.01,1533
38441,-12.9969,2.2877,5.4037,1501
38446,2.5702,7.0605,5.0578,1555
38451,13.7894,0.4836,15.8125,1530
38456,-5.9424,-3.7445,17.7769,1581
38461,-14.3688,0.6237,6.535,1527
38466,-3.5973,6.7289,4.0187,1546
38471,13.143,5.3427,14.5591,1527
38476,5.5294,-6.9887,16.3081,1508
38481,-9.7875,0.753,9.7624,1531
38486,-11.3294,5.3103,4.1946,1531
38491,9.2213,6.523,10.1849,1545
38496,10.9774,-4.64,15.6629,1497
38501,-11.4251,-0.5303,14.1437,1543
38506,-13.4159,2.8467,4.8207,1531
38511,4.2689,7.2724,6.9899,1553
38516,15.3241,-0.1209,14.5807,1567
38521,-6.444,-3.5398,18.2079,1559
38526,-11.1115,0.6165,6.2644,1545
38531,-3.2214,6.9719,3.65,1543
38536,12.8796,4.2509,14.8069,1508
38541,1.3515,-5.9484,17.4166,1525
38546,-12.7958,-0.2334,8.5317,1559
38551,-8.8454,5.6312,3.8283,1525
38556,10.3418,7.2544,12.2009,1551
38561,11.6646,-5.8167,14.9087,1533
38566,-10.5321,0.1951,14.0133,1563
38571,-13.4231,3.1927,5.1415,1531
38576,5.5641,7.082,6.6595,1548
38581,13.2974,-1.4317,15.3109,1519
38586,-8.7197,-2.3224,17.3532,1525
38591,-13.951,1.0068,6.0142,1545
38596,-0.5878,7.0318,4.4939,1541
38601,14.2299,3.6152,14.7231,1563
38606,0.674,-6.0166,17.413,1529
38611,-9.5529,0.4094,8.1068,1561
38616,-9.1183,6.2824,3.7601,1527
38621,11.0169,6.0322,12.4403,1549
38626,8.1439,-5.618,15.925,1523
38631,-11.8381,-0.1879,11.9578,1531
38636,-12.5588,3.984,4.367,1547
38641,7.0545,7.3634,8.7759,1531
38646,14.5759,-2.6767,14.5591,1541
38651,-9.2404,-1.4581,17.2275,1528
38656,-12.4247,1.3815,5.7389,1549
38661,0.3508,7.1275,4.2174,1531
38666,13.532,2.0446,15.627,1547
38671,-2.7414,-4.6088,17.6429,1542
38676,-13.0879,0.2861,7.355,1549
38681,-5.9484,6.4631,3.5506,1541
38686,12.2918,5.9987,13.884,1529
38691,7.9559,-6.5422,15.8568,1541
38696,-9.8988,0.5794,11.23,1533
38701,-12.6893,4.5981,4.4197,1549
38706,7.8973,6.3111,8.5856,1531
38711,12.0811,-3.3052,15.7622,1528
38716,-11.2276,-1.0942,15.439,1528
38721,-13.5488,2.0255,5.3115,1541
38726,2.8491,7.1239,5.7102,1525
38731,15.2822,1.0271,15.1733,1525
38736,-4.2114,-4.3479,18.178,1598
38741,-10.4507,0.5351,6.6511,1544
38746,-5.5833,6.7289,3.1412,1532
38751,12.3625,4.7381,14.4837,1529
38756,4.1647,-5.8167,16.8911,1549
38761,-12.5588,0.1137,9.5624,1531
38766,-10.3621,5.193,3.717,1548
38771,9.3673,7.003,10.9559,1531
38776,13.2806,-4.81,15.0272,1527
38781,-10.6554,0.0563,15.1804,1541
38786,-13.4003,2.6588,5.2241,1528
38791,3.4931,6.6056,5.1056,1533
38796,13.8098,0.0443,16.4793,1530
38801,-7.0844,-3.0538,17.7075,1550
38806,-13.8636,0.808,6.3015,1549
38811,-2.5654,6.7169,3.7565,1533
38816,13.8397,4.6627,15.2068,1531
38821,3.6966,-6.6128,16.8372,1531
38826,-9.742,0.7554,8.9735,1554
38831,-10.6793,5.7186,3.8128,1543
38836,9.8761,6.116,11.0038,1529
38841,10.1562,-4.9692,16.0471,1524
38846,-11.4156,-0.1939,13.2878,1558
38851,-13.1897,3.401,4.5514,1543
38856,5.2481,7.0258,7.1012,1554
38861,15.0404,-1.1073,15.2032,1511
38866,-7.744,-2.5522,17.6429,1546
38871,-11.7711,1.0894,6.0657,1533
38876,-1.8507,7.0126,3.4967,1523
38881,13.2447,3.2226,15.6748,1557
38886,-0.1808,-5.3283,17.4094,1568
38891,-12.7012,0.1041,8.1439,1562
38896,-7.8578,6.0813,3.5805,1531
38901,11.4156,6.5278,12.876,1559
38906,10.0664,-6.2812,15.4833,1523
38911,-10.392,0.6093,12.7802,1545
38916,-13.3848,3.9014,4.8399,1518
38921,6.5242,6.5625,7.0162,1541
38926,12.955,-2.2338,15.943,1563
38931,-9.6235,-1.6819,16.4398,1547
38936,-13.6505,1.658,5.8047,1581
38941,0.8739,7.0617,4.7022,1529
38946,14.8321,2.3786,15.2642,1531
38951,-1.4138,-5.2337,17.5351,1543
38956,-10.0329,0.6189,7.6854,1544
38961,-7.6878,6.6667,3.4261,1531
38966,11.6861,5.2002,13.1561,1530
38971,6.2453,-5.5641,16.4063,1547
38976,-12.5815,-0.0479,11.0864,1545
38981,-11.6346,4.689,4.2569,1551
38986,8.6886,7.2365,9.4439,1544
38991,14.0851,-3.9744,15.026,1545
38996,-9.827,-0.4345,16.2231,1545
39001,-13.0604,2.1296,5.7054,1544
39006,1.6855,6.7888,4.2006,1528
39011,13.7762,1.2043,16.3835,1545
39016,-4.8076,-3.8223,17.3999,1547
39021,-13.4063,0.6919,7.0988,1545
39026,-4.3048,6.6583,3.7409,1547
39031,13.5488,5.2804,14.4586,1543
39036,6.037,-6.7756,16.2447,1548
39041,-10.0485,0.9804,10.2759,1528
39046,-11.9207,5.3044,4.1575,1547
39051,8.7317,5.9412,9.4559,1525
39056,11.327,-4.2533,16.1764,1523
39061,-11.5269,-0.5806,14.3951,1559
39066,-13.4255,3.0179,4.8914,1530
39071,3.972,6.9384,6.3027,1557
39076,15.5312,-0.2227,15.3588,1523
39081,-5.9795,-3.3662,17.7578,1556
39086,-11.1414,1.0822,6.4117,1547
39091,-3.6595,6.9863,3.4165,1529
39096,13.1118,3.7745,15.287,1519
39101,1.9237,-5.6264,17.1233,1549
39106,-13.0556,0.2418,8.685,1543
39111,-8.7544,5.8012,3.5877,1533
39116,10.2855,6.5805,11.977,1544
39121,12.074,-5.709,15.4462,1531
39126,-10.6255,0.6704,13.781,1559
39131,-13.2639,3.5111,4.9081,1541
39136,4.8758,6.359,6.0418,1555
39141,13.9893,-1.4102,16.6397,1524
39146,-8.9064,-2.0279,17.0252,1533
39151,-14.6358,1.6712,5.6934,1546
39156,-0.577,6.5721,4.3634,1555
39161,14.8848,3.5997,15.694,1543
39166,0.8607,-6.1519,17.4609,1519
39171,-9.9898,0.899,7.7656,1553
39176,-8.5784,6.189,3.4213,1529
39181,11.0301,5.7365,12.3206,1549
39186,8.1738,-5.849,16.6229,1525
39191,-12.3134,0.0503,11.4766,1577
39196,-11.6945,4.3383,3.899,1528
39201,6.2728,6.8438,8.7915,1531
39206,15.5875,-2.6396,15.1481,1529
39211,-9.5146,-1.4868,17.1533,1532
39216,-12.6031,1.8016,5.545,1543
39221,0.4836,6.8522,3.9025,1523
39226,14.3221,1.9872,16.3021,1546
39231,-3.6236,-4.6292,17.9421,1543
39236,-15.1397,0.3771,6.9109,1542
39241,-5.2613,6.2668,3.5338,1528
39246,12.2128,6.2848,14.139,1529
39251,8.588,-6.9791,16.016,1532
39256,-10.3681,0.9074,11.0887,1543
39261,-12.2451,4.7585,4.2401,1560
39266,8.1068,6.5553,8.6467,1527
39271,12.5253,-3.9828,16.2435,1523
39276,-10.9104,-0.735,15.3265,1531
39281,-14.4909,2.6803,4.8902,1531
39286,2.3056,6.6894,5.7018,1544
39291,15.4821,1.1648,15.6186,1519
39296,-4.4831,-4.4436,17.9086,1547
39301,-10.8685,0.9756,6.505,1531
39306,-4.8734,6.8797,3.3818,1541
39311,12.9215,4.3287,14.8273,1542
39316,3.5338,-6.0346,16.8971,1557
39321,-12.1997,0.2849,9.1016,1525
39326,-9.9659,5.5881,3.5733,1547
39331,8.9364,6.5697,11.3796,1503
39336,12.9526,-5.0386,15.1613,1519
39341,-10.7799,0.0539,14.5855,1558
39346,-13.2471,3.1077,5.0051,1517
39351,4.1108,6.7552,5.8514,1549
39356,14.2299,-1.0008,16.2255,1533
39361,-7.5884,-2.648,17.3221,1560
39366,-14.2467,1.3276,5.9149,1544
39371,-1.9585,6.7265,3.948,1541
39376,13.7762,3.869,15.6114,1541
39381,2.3583,-6.1806,16.7738,1533
39386,-10.0245,0.8751,8.3905,1556
39391,-9.6199,6.1375,3.7062,1543
39396,10.3801,5.63,11.9914,1561
39401,9.6271,-5.539,15.9107,1527
39406,-11.3437,0.1712,12.5037,1561
39411,-12.7874,4.1084,4.3658,1529
39416,5.6407,6.6116,8.0014,1533
39421,15.1768,-2.0231,15.427,1531
39426,-8.8909,-1.8232,17.2131,1542
39431,-12.2607,1.5359,5.6874,1533
39436,-0.6273,6.9001,3.9109,1529
39441,14.0552,2.3188,16.1537,1557
39446,-1.9728,-4.9632,17.6022,1527
39451,-13.7212,0.4501,7.1635,1555
39456,-6.2417,6.274,3.4536,1523
39461,11.4527,6.0454,13.8936,1543
39466,9.3254,-6.541,15.8412,1531
39471,-10.4926,0.826,11.57,1533
39476,-12.6031,4.5215,4.2413,1541
39481,7.495,6.5398,8.2528,1579
39486,13.1921,-3.4728,16.0938,1545
39491,-10.6147,-0.9086,15.8305,1523
39496,-14.7004,2.4193,4.9225,1554
39501,1.6448,6.6607,5.4312,1527
39506,15.2702,1.6388,15.6772,1533
39511,-3.4596,-4.8686,17.9517,1546
39516,-10.6937,0.8607,6.7337,1497
39521,-5.6204,6.7337,3.3674,1553
39526,12.8509,4.7621,14.5113,1531
39531,4.616,-6.2225,16.8109,1553
39536,-11.6155,0.2215,9.6462,1533
39541,-10.5931,5.2936,3.6452,1562
39546,8.3797,6.6679,10.8194,1541
39551,13.2483,-4.4652,15.123,1528
39556,-10.5908,-0.3148,15.1864,1549
39561,-13.3465,2.727,5.12,1531
39566,3.7553,6.8534,5.551,1553
39571,14.1725,-0.2658,15.943,1528
39576,-6.9276,-3.0682,17.6812,1547
39581,-14.0707,0.9804,6.1196,1545
39586,-2.4744,6.7445,3.7074,1529
39591,13.5715,4.4568,15.3851,1531
39596,3.0789,-6.3135,16.9079,1541
39601,-9.912,0.6907,8.6503,1554
39606,-9.9431,5.9029,3.6703,1529
39611,10.1335,6.0825,11.5101,1545
39616,10.0461,-5.3822,15.8604,1517
39621,-11.4598,0.0479,12.9131,1565
39626,-13.0005,3.8199,4.3754,1531
39631,5.4253,6.7732,7.616,1543
39636,15.3085,-1.7083,15.3109,1523
39641,-8.6598,-2.1153,17.5136,1533
39646,-12.1422,1.4054,5.691,1553
39651,-0.9254,6.936,3.7266,1523
39656,13.9127,2.7473,16.0591,1544
39661,-1.64,-5.2134,17.7075,1545
39666,-13.3788,0.3448,7.3442,1545
39671,-6.59,6.1926,3.3507,1543
39676,11.4838,6.3578,13.6398,1544
39681,9.2344,-6.6104,15.8101,1531
39686,-10.4615,0.6716,11.7543,1532
39691,-12.7611,4.3275,4.3862,1543
39696,7.5489,6.79,8.2325,1527
39701,12.8916,-3.3686,15.8113,1519
39706,-10.398,-1.148,15.9921,1531
39711,-14.2383,2.1811,5.2098,1525
39716,1.8459,6.8462,5.217,1527
39721,14.8836,1.6496,15.4163,1531
39726,-3.6727,-4.7704,17.8691,1528
39731,-10.58,0.7087,6.8905,1531
39736,-5.6096,6.7864,3.3651,1527
39741,12.5971,5.0111,14.37,1541
39746,4.5119,-5.9975,16.6445,1549
39751,-11.9243,0.091,9.7456,1549
39756,-10.6027,5.2972,3.7326,1554
39761,9.1925,6.9671,10.805,1542
39766,12.9251,-4.7262,15.026,1523
39771,-10.6267,-0.0646,15.0978,1547
39776,-13.441,2.7162,5.2672,1545
39781,3.8032,6.7337,5.4109,1595
39786,14.0264,-0.2717,16.1249,1541
39791,-7.1682,-3.0047,17.5399,1557
39796,-14.127,1.0439,6.1806,1530
39801,-2.1416,6.6164,3.8427,1541
39806,13.9594,4.4436,15.3217,1523
39811,2.7845,-6.4859,16.9821,1530
39816,-9.9898,0.7039,8.6143,1557
39821,-9.9132,5.879,3.6308,1544
39826,10.386,6.1268,11.5879,1533
39831,9.5313,-5.4564,15.9645,1518
39836,-11.6897,-0.0682,12.7503,1564
39841,-12.9347,3.8235,4.3754,1525
39846,5.8778,6.9899,7.7931,1543
39851,15.0919,-1.9249,15.0847,1525
39856,-8.7281,-2.0231,17.4106,1547
39861,-12.2428,1.3946,5.8454,1543
39866,-0.5507,6.9767,3.8403,1528
39871,13.9139,2.6264,15.9119,1542
39876,-1.9417,-4.9524,17.6632,1531
39881,-13.3465,0.3807,7.44,1561
39886,-6.3794,6.2549,3.4117,1527
39891,12.0368,6.2848,13.7511,1548
39896,8.6179,-6.6331,15.8999,1533
39901,-10.3693,0.8033,11.4586,1541
39906,-12.5827,4.5717,4.3155,1541
39911,7.5741,6.4272,8.2456,1543
39916,12.7826,-3.3878,16.107,1531
39921,-10.823,-0.8607,15.6246,1530
39926,-14.0947,2.4553,5.0051,1549
39931,2.3331,6.7098,5.43,1529
39936,15.676,1.4437,15.7191,1529
39941,-4.3455,-4.5035,18.1109,1547
39946,-10.6745,0.8428,6.4655,1555
39951,-5.1104,6.6272,3.1376,1549
39956,12.7994,4.8662,14.6908,1519
39961,3.8343,-6.1746,17.1616,1546
39966,-13.1118,0.0323,9.0525,1543
39971,-9.2823,5.3151,3.48,1554
39976,8.7724,6.9779,11.2492,1525
39981,13.8074,-5.0147,15.3097,1515
39986,-10.9235,0.0108,14.9697,1560
39991,-13.3345,2.8814,4.9153,1543
39996,4.1156,6.7217,5.296,1547
40001,14.4993,-0.5028,16.4374,1541
40006,-8.3103,-2.818,17.7458,1557
40011,-15.7084,1.1528,5.6707,1532
40016,-1.4581,6.4679,4.0546,1523
40021,14.2527,4.871,15.3301,1529
40026,2.7043,-6.8031,17.571,1541
40031,-9.8581,0.7147,8.1499,1560
40036,-9.3111,5.8778,3.3519,1543
40041,10.9008,6.4069,11.649,1549
40046,9.1351,-5.8287,16.5894,1542
40051,-11.9375,-0.1963,12.1793,1558
40056,-12.5348,3.9169,3.9768,1529
40061,5.6024,6.9276,8.2289,1555
40066,15.6952,-1.8806,15.0895,1527
40071,-9.0836,-2.1715,17.6692,1549
40076,-12.5205,1.4581,5.6778,1542
40081,-0.0467,6.9576,3.7433,1529
40086,14.3221,2.5582,15.9825,1545
40091,-2.9353,-5.0051,18.075,1547
40096,-14.1186,0.1724,7.0629,1545
40101,-5.9041,6.2381,3.3746,1525
40106,11.6789,6.5254,13.9594,1541
40111,8.57,-6.7493,15.9597,1546
40116,-10.3178,0.559,11.2396,1551
40121,-12.3792,4.5322,4.3215,1549
40126,7.9942,6.8091,8.7496,1541
40131,12.6665,-3.7637,15.7802,1533
40136,-10.6997,-0.8607,15.6569,1529
40141,-14.4849,2.4002,5.0637,1547
40146,2.3044,6.7912,5.5929,1523
40151,15.0895,1.3623,15.3061,1519
40156,-4.5274,-4.5765,18.0583,1551
40161,-10.9176,0.668,6.6224,1547
40166,-4.8231,6.7325,3.5015,1543
40171,12.9335,4.9201,14.5963,1542
40176,3.6823,-6.1854,16.9174,1548
40181,-11.5113,0.0898,9.2775,1532
40186,-10.0688,5.4097,3.6033,1549
40191,9.0644,6.9073,11.2635,1541
40196,12.5181,-4.9333,15.1158,1518
40201,-10.8864,-0.0646,14.6082,1554
40206,-13.3632,2.9305,5.0589,1527
40211,4.5083,6.9025,6.1818,1559
40216,14.1234,-0.8416,15.6593,1529
40221,-7.944,-2.6899,17.5363,1557
40226,-13.9115,1.1061,5.9197,1541
40231,-1.5766,6.772,3.9995,1527
40236,13.7762,3.9313,15.3049,1549
40241,1.4018,-6.0669,17.1473,1533
40246,-10.1598,0.6261,8.1439,1555
40251,-9.0273,6.1232,3.6679,1545
40256,10.8625,5.9256,12.5301,1547
40261,9.0453,-5.6982,15.7898,1527
40266,-11.1103,0.2598,12.287,1557
40271,-12.7336,4.1839,4.3179,1543
40276,6.2321,6.6894,8.339,1544
40281,14.5148,-2.4038,15.1649,1527
40286,-9.5289,-1.5095,16.945,1543
40291,-12.6725,1.6137,5.6228,1543
40296,0.4154,6.9552,4.3539,1533
40301,14.1437,1.9441,15.8927,1549
40306,-2.8575,-4.6998,17.6261,1530
40311,-12.6342,0.4477,7.0282,1547
40316,-5.715,6.4703,3.4824,1525
40321,11.9495,5.7473,14.1713,1544
40326,7.3957,-6.4703,16.0316,1525
40331,-10.2975,0.6955,10.7428,1543
40336,-11.9483,4.8327,4.1731,1545
40341,8.2325,6.5745,9.3254,1532
40346,12.4762,-3.9313,15.6593,1543
40351,-10.7691,-0.5962,15.3157,1530
40356,-14.0588,2.6348,4.9273,1543
40361,2.8934,6.7301,5.9185,1531
40366,15.287,0.8751,15.4067,1525
40371,-5.3486,-3.9947,18.1804,1556
40376,-11.1151,0.7757,6.3602,1531
40381,-4.0689,6.7493,3.2992,1555
40386,13.1561,4.7142,15.0212,1528
40391,2.7952,-6.1064,17.1784,1541
40396,-12.8066,0.0275,8.7508,1519
40401,-8.9064,5.4719,3.5147,1543
40406,9.341,7.0066,11.716,1525
40411,12.8988,-5.3582,15.178,1529
40416,-10.8852,0.1472,14.3401,1549
40421,-13.3836,3.0622,4.8351,1541
40426,4.9452,6.9779,6.0693,1557
40431,14.2491,-1.1684,15.9873,1531
40436,-8.7939,-2.5055,17.601,1562
40441,-15.3217,1.2007,5.6731,1549
40446,-0.9912,6.62,4.2473,1528
40451,14.1689,4.3694,15.2343,1553
40456,1.1983,-6.3853,17.6536,1530
40461,-9.9503,0.5411,7.9464,1557
40466,-8.6538,6.037,3.4536,1525
40471,11.3952,6.444,12.402,1559
40476,8.2756,-5.952,16.3201,1531
40481,-11.4467,-0.0515,11.8202,1553
40486,-12.3696,4.0833,4.0833,1529
40491,6.45,7.1275,8.6574,1547
40496,14.8022,-2.5343,14.9051,1554
40501,-9.6343,-1.6077,17.2251,1529
40506,-12.7276,1.5562,5.5617,1543
40511,0.8619,7.0018,4.1994,1526
40516,14.1964,2.071,15.9334,1541
40521,-3.7816,-4.5047,18.1265,1541
40526,-13.9199,0.2945,6.8127,1545
40531,-5.0649,6.3434,3.3734,1533
40536,12.1901,6.2022,14.3736,1529
40541,7.3981,-6.7876,16.2578,1543
40546,-10.1813,0.6153,10.4986,1542
40551,-11.8848,4.8339,4.0366,1553
40556,8.4288,6.7229,9.3458,1525
40561,12.396,-4.1659,15.8891,1543
40566,-11.1079,-0.5088,15.1158,1548
40571,-14.2539,2.7282,4.7166,1544
40576,2.9592,6.7828,6.1268,1543
40581,15.4318,0.8009,15.3361,1541
40586,-5.7952,-4.0546,18.2582,1553
40591,-11.309,0.82,6.2094,1544
40596,-3.7338,6.8331,3.3627,1551
40601,13.4051,4.5741,15.0787,1525
40606,2.2314,-6.1758,17.3125,1540
40611,-12.2882,-0.0144,8.5557,1532
40616,-8.8621,5.6264,3.3914,1543
40621,9.5289,7.0557,11.9758,1547
40626,12.2727,-5.4923,15.3337,1524
40631,-10.7943,0.0826,13.9965,1563
40636,-13.3656,3.2082,4.8495,1525
40641,5.3702,7.0761,6.3961,1563
40646,14.1174,-1.4736,15.7922,1525
40651,-9.098,-2.2841,17.4789,1545
40656,-15.1074,1.2306,5.5713,1527
40661,-0.6823,6.6643,4.3515,1533
40666,14.2647,3.9456,15.3397,1543
40671,0.3184,-6.2046,17.7758,1528
40676,-10.0616,0.4741,7.7129,1553
40681,-8.1594,6.1423,3.5087,1525
40686,11.5987,6.3351,12.8425,1553
40691,7.9464,-6.1782,16.2985,1525
40696,-11.2958,-0.006,11.4922,1545
40701,-12.1386,4.2988,4.0067,1526
40706,6.6176,7.0581,9.0896,1527
40711,14.4945,-2.8683,14.8309,1541
40716,-10.0185,-1.4329,16.8839,1531
40721,-12.9838,1.6999,5.4851,1545
40726,1.5036,7.0677,4.5502,1547
40731,14.2778,1.6209,15.7,1547
40736,-4.4053,-4.3814,18.0451,1533
40741,-13.3513,0.3017,6.7086,1533
40746,-4.7429,6.4871,3.5183,1528
40751,12.2691,5.9604,14.443,1530
40756,6.347,-6.6355,16.3285,1549
40761,-10.1311,0.4681,10.2125,1545
40766,-11.4982,5.0159,4.0713,1555
40771,8.9543,6.8606,9.9515,1528
40776,11.9327,-4.4807,15.5108,1528
40781,-10.999,-0.4262,14.8644,1549
40786,-14.0528,2.7713,4.7824,1543
40791,3.5805,6.9061,6.353,1541
40796,15.1445,0.4166,15.1397,1523
40801,-6.5086,-3.5997,18.239,1555
40806,-11.5125,0.7242,6.2142,1547
40811,-3.0131,6.7612,3.48,1553
40816,13.3477,4.4424,15.2104,1541
40821,1.5071,-6.0035,17.4489,1544
40826,-12.5109,-0.0766,8.2648,1545
40831,-8.2744,5.6012,3.4405,1531
40836,9.9252,7.0785,12.3301,1545
40841,11.8142,-5.7341,15.378,1515
40846,-10.7344,0.2346,13.544,1563
40851,-13.2926,3.3543,4.7621,1544
40856,5.7377,7.0952,6.7098,1553
40861,14.0516,-1.7214,15.7048,1519
40866,-9.5409,-2.0686,17.3651,1545
40871,-15.2152,1.403,5.4504,1551
40876,-0.2143,6.6738,4.5442,1527
40881,14.4598,3.7685,15.2223,1544
40886,-0.2562,-6.0717,17.9793,1541
40891,-10.0556,0.4657,7.5178,1560
40896,-7.7967,6.1615,3.4189,1531
40901,11.886,6.3183,12.979,1531
40906,7.3909,-6.2201,16.435,1530
40911,-11.4598,-0.0479,11.1414,1553
40916,-11.734,4.3132,3.9349,1529
40921,6.9288,7.252,9.3075,1527
40926,14.5663,-3.0083,14.8381,1541
40931,-10.1143,-1.3288,16.8767,1525
40936,-13.0436,1.7442,5.4863,1543
40941,1.8124,7.0485,4.5107,1530
40946,14.2419,1.6101,15.7239,1533
40951,-4.9045,-4.288,18.2306,1531
40956,-14.1198,0.231,6.6403,1528
40961,-4.3886,6.4763,3.5829,1527
40966,12.5145,6.1136,14.4346,1532
40971,6.201,-6.784,16.4925,1544
40976,-10.0856,0.4046,10.0724,1528
40981,-11.4754,5.0278,4.0749,1561
40986,9.268,7.0018,10.003,1530
40991,11.564,-4.5825,15.5791,1541
40996,-11.0038,-0.5399,14.7423,1527
41001,-14.0528,2.7761,4.8674,1541
41006,3.8295,7.0126,6.4081,1549
41011,14.8967,0.2191,14.9757,1529
41016,-6.7098,-3.5745,18.0942,1557
41021,-11.6586,0.6919,6.2357,1553
41026,-2.7964,6.9216,3.614,1545
41031,13.3429,4.2868,15.0224,1529
41036,1.2941,-6.0011,17.3639,1544
41041,-11.6047,-0.0491,8.3474,1543
41046,-8.77,5.8526,3.5925,1543
41051,10.3142,6.9204,12.3325,1549
41056,10.7188,-5.7844,15.2678,1525
41061,-10.7428,0.1951,13.2375,1559
41066,-13.2387,3.5267,4.871,1527
41071,6.1471,7.0617,7.2868,1545
41076,13.6877,-1.9477,15.3037,1481
41081,-9.2943,-1.8675,17.2095,1547
41086,-14.0384,1.4078,5.6671,1547
41091,0.1281,6.8271,4.4879,1525
41096,14.2072,3.128,15.2475,1548
41101,-1.3455,-5.5593,17.82,1529
41106,-10.3118,0.3519,7.3945,1560
41111,-7.2269,6.3566,3.5386,1541
41116,11.7436,6.037,13.4207,1547
41121,7.0832,-6.1064,16.2375,1519
41126,-11.2013,-0.0084,10.9475,1544
41131,-11.5712,4.5897,4.0079,1531
41136,7.5896,7.0749,9.6175,1530
41141,13.9762,-3.4441,14.88,1541
41146,-10.4124,-0.9026,16.3644,1543
41151,-13.2471,1.9154,5.4324,1529
41156,2.3798,7.0533,4.8566,1527
41161,14.2431,1.1325,15.5767,1529
41166,-5.5653,-4.0127,18.1169,1547
41171,-13.9522,0.3316,6.4584,1531
41176,-3.7673,6.5517,3.6727,1543
41181,12.7982,5.7281,14.5603,1517
41186,5.205,-6.7109,16.769,1553
41191,-9.9719,0.3208,9.5828,1547
41196,-11.0169,5.2265,3.9373,1549
41201,9.7109,6.9192,10.4998,1541
41206,11.1678,-4.9536,15.5659,1530
41211,-11.1115,-0.4238,14.2192,1549
41216,-13.8229,2.9736,4.7501,1529
41221,4.3682,7.0294,6.8378,1550
41226,14.9123,-0.328,14.9027,1531
41231,-7.4029,-3.1412,18.1564,1560
41236,-11.9351,0.8332,6.0693,1547
41241,-1.9417,6.9731,3.6512,1541
41246,13.6757,3.9229,15.214,1545
41251,0.2741,-5.6886,17.6094,1543
41256,-11.9854,-0.0539,8.0038,1557
41261,-7.9643,5.9508,3.4381,1519
41266,10.6195,6.9001,12.7898,1557
41271,10.1646,-5.9711,15.512,1527
41276,-10.5836,0.2598,12.6953,1553
41281,-13.0436,3.7577,4.6878,1541
41286,6.6607,7.0198,7.5932,1547
41291,13.538,-2.4325,15.439,1525
41296,-9.8749,-1.5993,16.9043,1553
41301,-14.5244,1.5933,5.4576,1558
41306,0.7793,6.7684,4.7716,1529
41311,14.552,2.8036,15.3037,1545
41316,-2.1512,-5.3558,18.0283,1541
41321,-10.4507,0.3807,7.094,1548
41326,-6.5709,6.426,3.395,1519
41331,12.123,5.8359,13.8181,1531
41336,6.1842,-6.2608,16.514,1545
41341,-11.4251,0.0156,10.337,1553
41346,-10.9523,4.8028,3.784,1533
41351,7.768,7.0665,10.0748,1548
41356,13.9726,-3.8475,14.9458,1531
41361,-10.6267,-0.6812,16.0543,1531
41366,-13.3285,2.2087,5.3139,1532
41371,2.8659,7.0018,5.1044,1543
41376,14.4466,0.5567,15.8736,1549
41381,-6.4177,-3.6488,18.0391,1549
41386,-14.3149,0.6333,6.1842,1549
41391,-3.2561,6.5972,3.723,1549
41396,13.0388,5.3343,14.9793,1541
41401,4.3993,-6.6834,16.8624,1562
41406,-10.0126,0.5495,9.1363,1530
41411,-10.5369,5.5174,3.7781,1555
41416,10.0317,6.6954,11.0253,1543
41421,10.7607,-5.2517,15.767,1513
41426,-11.2252,-0.1185,13.6685,1559
41431,-13.6278,3.3543,4.4616,1533
41436,4.5861,6.8929,7.1898,1561
41441,15.0847,-0.9445,15.1888,1542
41446,-8.1092,-2.715,17.8165,1549
41451,-12.0931,1.0606,5.8239,1531
41456,-1.3755,7.009,3.7649,1516
41461,13.9091,3.2908,15.6557,1529
41466,-0.5842,-5.4588,17.6584,1545
41471,-12.141,0.158,7.6124,1557
41476,-7.3694,6.0837,3.3603,1531
41481,10.8996,6.4883,13.2998,1551
41486,9.7252,-6.2201,15.5827,1518
41491,-10.6793,0.486,12.0919,1561
41496,-12.8305,4.1156,4.4736,1527
41501,7.0222,6.8414,8.09,1542
41506,13.4602,-2.9509,15.6629,1533
41511,-10.2807,-1.1815,16.4913,1532
41516,-14.5424,1.9345,5.2122,1547
41521,1.2486,6.7469,4.9799,1529
41526,14.7962,2.1895,15.6018,1557
41531,-3.0861,-4.9979,17.9565,1519
41536,-10.7859,0.6105,6.8594,1553
41541,-5.94,6.626,3.3543,1531
41546,12.5851,5.3056,14.3437,1529
41551,5.3798,-6.2776,16.5942,1543
41556,-11.3174,0.2418,9.9048,1531
41561,-10.7428,5.1116,3.6476,1555
41566,8.3031,6.8319,10.5788,1543
41571,13.3477,-4.3371,15.1182,1547
41576,-10.811,-0.3232,15.342,1529
41581,-12.3182,1.2594,5.7796,1530
41586,3.6033,6.9743,5.5282,1531
41591,14.0552,2.891,15.8305,1533
41596,-7.1012,-3.2286,17.741,1528
41601,-12.1985,0.2682,7.3897,1530
41606,-2.721,6.7229,3.8068,1541
41611,11.1007,6.2429,13.629,1527
41616,3.0586,-6.3913,16.8755,1548
41621,-10.6422,0.5926,11.7843,1543
41626,-9.8665,5.8012,3.7242,1543
41631,7.4208,6.7373,8.4827,1528
41636,10.2185,-5.5174,15.6437,1516
41641,-10.4507,-1.0367,16.2291,1563
41646,-13.2591,3.6571,4.4197,1518
41651,1.646,6.8366,5.1404,1559
41656,14.7387,-1.6077,15.208,1517
41661,-3.8247,-4.6352,17.8105,1547
41666,-12.3888,1.3156,5.8012,1529
41671,-5.3163,6.7169,3.4417,1519
41676,14.0037,2.727,15.7838,1543
41681,4.8028,-6.2046,16.5882,1542
41686,-12.0943,0.3089,7.416,1545
41691,-10.5716,5.29,3.7122,1529
41696,11.4191,6.1363,13.6601,1554
41701,12.7671,-4.6184,15.1661,1541
41706,-10.6027,0.5938,11.4203,1543
41711,-13.3704,2.6995,5.0422,1528
41716,7.6219,6.6954,8.679,1527
41721,14.3616,-0.4286,15.9119,1541
41726,-10.5584,-0.8464,16.0148,1531
41731,-14.1545,0.9649,5.9831,1544
41736,1.998,6.687,5.3343,1530
41741,13.6912,4.4209,15.3432,1545
41746,2.2865,-6.2872,17.1616,1519
41751,-10.1538,0.6141,8.3079,1529
41756,-9.4427,5.8969,3.5518,1529
41761,10.7811,6.2572,12.062,1531
41766,9.6187,-5.7341,15.9717,1555
41771,-11.3114,0.1484,12.5839,1524
41776,-12.8449,3.9121,4.2294,1558
41781,5.6479,6.7792,8.0397,1547
41786,14.9602,-1.9321,15.1828,1527
41791,-9.2189,-1.9237,17.4011,1532
41796,-12.5696,1.4353,5.6156,1545
41801,-0.0718,6.9587,4.0522,1542
41806,14.3197,2.2697,16.0052,1541
41811,-2.5079,-4.9847,17.7171,1560
41816,-12.6677,0.3472,7.1048,1545
41821,-6.2465,6.3782,3.4249,1530
41826,11.6119,6.025,14.0192,1523
41831,8.1283,-6.4452,15.9657,1529
41836,-10.5225,0.68,11.1713,1533
41841,-12.3397,4.6531,4.2246,1527
41846,8.0493,6.596,8.9184,1555
41851,12.9586,-3.7457,15.7143,1520
41856,-10.7548,-0.6069,15.6461,1556
41861,-14.3197,2.484,4.9811,1531
41866,2.3667,6.6439,5.5091,1560
41871,15.0176,1.1899,15.7155,1527
41876,-4.9285,-4.1348,17.9996,1545
41881,-11.2144,0.7745,6.3961,1545
41886,-4.3934,6.7145,3.3674,1527
41891,12.985,4.7166,15.0751,1549
41896,3.6943,-6.1627,16.8983,1541
41901,-11.6047,0.2634,9.08,1555
41906,-9.4858,5.5138,3.4931,1523
41911,8.9423,6.6236,11.4862,1545
41916,12.6941,-5.035,15.3337,1524
41921,-10.9834,0.1365,14.4143,1549
41926,-13.3991,3.1101,4.8937,1549
41931,4.6388,6.8522,6.1339,1545
41936,14.5101,-1.0331,16.1094,1533
41941,-8.4659,-2.4301,17.5531,1541
41946,-14.953,1.2797,5.6743,1531
41951,-1.3372,6.6116,4.0666,1528
41956,14.1378,4.1132,15.4641,1531
41961,1.3024,-6.2441,17.4849,1543
41966,-10.1718,0.6141,7.9033,1543
41971,-8.7233,6.0849,3.474,1541
41976,11.4108,6.1375,12.5133,1527
41981,8.6586,-6.0549,16.2471,1549
41986,-11.3605,0.2251,11.9004,1543
41991,-12.5037,4.2174,4.0163,1561
41996,6.11,6.7888,8.582,1533
42001,14.8991,-2.484,15.1804,1517
42006,-9.7372,-1.5107,17.0467,1543
42011,-12.8712,1.6855,5.5246,1541
42016,0.7865,6.9492,4.2593,1545
42021,14.5484,1.7657,16.0423,1527
42026,-3.7709,-4.5502,17.8955,1553
42031,-13.3106,0.3675,6.7636,1529
42036,-5.3103,6.3829,3.3974,1478
42041,12.0728,5.9017,14.3652,1523
42046,7.2544,-6.5601,16.2854,1527
42051,-10.2783,0.6668,10.4447,1547
42056,-11.8633,4.9213,4.0055,1522
42061,8.6586,6.6248,9.505,1559
42066,12.4187,-4.3179,15.7203,1523
42071,-11.0983,-0.3998,15.0332,1563
42076,-14.4322,2.7689,4.707,1525
42081,3.0394,6.778,6.0705,1531
42086,15.348,0.571,15.5611,1543
42091,-6.0765,-3.796,18.1109,1541
42096,-11.4958,0.8559,6.2165,1530
42101,-3.5051,6.8702,3.4345,1541
42106,13.5955,4.2066,15.3037,1553
42111,2.138,-6.031,17.2215,1533
42116,-11.7675,0.2885,8.4898,1544
42121,-8.8573,5.7377,3.3782,1527
42126,9.5493,6.6056,12.1254,1526
42131,11.7831,-5.4696,15.4222,1543
42136,-10.8685,0.2957,13.6661,1543
42141,-13.3046,3.4357,4.7058,1557
42146,5.5402,6.8606,6.6918,1525
42151,14.2491,-1.8471,15.9478,1528
42156,-9.1961,-1.9776,17.2215,1528
42161,-14.7878,1.4868,5.4887,1541
42166,-0.4477,6.7505,4.294,1529
42171,14.3688,3.3758,15.6796,1531
42176,-0.3915,-5.7736,17.6453,1549
42181,-10.3729,0.5722,7.4484,1531
42186,-7.6938,6.2979,3.4249,1557
42191,11.813,5.8957,13.2747,1526
42196,7.61,-6.2812,16.2746,1557
42201,-11.248,0.243,11.2013,1547
42206,-11.807,4.5107,3.8331,1545
42211,6.8378,6.8522,9.3051,1531
42216,14.4251,-3.2801,15.1457,1523
42221,-10.3633,-1.0283,16.5104,1562
42226,-13.125,1.9872,5.3427,1547
42231,1.8842,7.0138,4.6926,1555
42236,14.6358,1.0738,15.9921,1525
42241,-5.217,-4.1108,17.9912,1511
42246,-13.6182,0.5303,6.4177,1547
42251,-4.2425,6.5493,3.4872,1532
42256,12.6438,5.533,14.7339,1541
42261,5.5318,-6.6894,16.6457,1531
42266,-10.1945,0.6285,9.7217,1553
42271,-11.1318,5.2768,3.8846,1527
42276,9.5301,6.7074,10.3992,1553
42281,11.5796,-4.9596,15.7119,1529
42286,-11.2013,-0.1365,14.2982,1547
42291,-13.8852,3.0933,4.561,1533
42296,4.027,6.8378,6.6224,1541
42301,15.117,-0.3065,15.3217,1543
42306,-7.4124,-3.0933,18.0259,1531
42311,-11.9159,0.9445,5.9939,1549
42316,-2.2098,6.9204,3.5937,1531
42321,13.8241,3.8271,15.4426,1557
42326,0.4106,-5.7688,17.5016,1530
42331,-12.0177,0.176,7.9763,1532
42336,-7.9128,5.9927,3.3794,1533
42341,10.4794,6.6487,12.8281,1532
42346,10.4555,-6.0537,15.5922,1547
42351,-10.732,0.4441,12.6438,1547
42356,-13.0604,3.8942,4.5777,1554
42361,6.6403,6.9444,7.5334,1549
42366,13.6757,-2.5929,15.6916,1529
42371,-9.985,-1.4605,16.8013,1543
42376,-14.6262,1.7669,5.3127,1533
42381,0.8045,6.8175,4.7884,1546
42386,14.7172,2.5714,15.4558,1519
42391,-2.3954,-5.2852,17.9876,1560
42396,-10.5836,0.5004,7.1419,1532
42401,-6.3375,6.5948,3.3411,1541
42406,12.5995,5.7078,13.9654,1531
42411,5.6,-6.3398,16.5978,1543
42416,-11.3641,0.0718,10.2615,1543
42421,-10.9954,4.9201,3.7625,1533
42426,8.2528,7.0162,10.1825,1545
42431,13.3501,-4.2006,15.1014,1527
42436,-10.6626,-0.4669,15.6629,1565
42441,-13.3968,2.3727,5.2385,1528
42446,3.456,7.009,5.2648,1541
42451,14.3975,0.1796,15.8293,1542
42456,-6.8809,-3.3076,17.9589,1529
42461,-14.1246,0.7542,6.1483,1547
42466,-2.7054,6.6224,3.6619,1543
42471,13.4722,4.9991,15.1433,1555
42476,3.0813,-6.5769,17.0802,1523
42481,-10.1287,0.5207,8.77,1553
42486,-9.9419,5.7174,3.6715,1530
42491,10.6291,6.6415,11.6167,1533
42496,9.9359,-5.6371,15.8652,1531
42501,-11.248,0.0395,13.0891,1547
42506,-13.204,3.6919,4.3311,1548
42511,5.545,6.9157,7.6854,1517
42516,14.7028,-1.646,15.05,1533
42521,-9.0058,-2.2134,17.5375,1529
42526,-12.5097,1.2294,5.8155,1531
42531,-0.1736,6.9935,4.063,1532
42536,14.0839,2.8084,15.5575,1543
42541,-2.1871,-5.1822,17.7925,1547
42546,-12.4343,0.1772,7.3586,1529
42551,-6.3758,6.3063,3.4285,1554
42556,11.7831,6.3853,13.7679,1520
42561,7.9835,-6.5206,15.8951,1529
42566,-10.4663,0.5303,11.2958,1531
42571,-12.3864,4.5526,4.2377,1527
42576,8.2145,6.9061,8.9292,1553
42581,12.6737,-3.7984,15.4558,1525
42586,-10.6829,-0.7685,15.7814,1565
42591,-14.1545,2.3032,5.0877,1527
42596,2.5917,6.8187,5.5426,1555
42601,14.8345,1.1013,15.4354,1519
42606,-5.2756,-4.0689,18.0104,1548
42611,-11.3102,0.6237,6.541,1545
42616,-4.1875,6.8007,3.3555,1519
42621,13.2363,4.8076,14.9554,1545
42626,3.0538,-6.2034,16.9689,1528
42631,-11.3006,0.1065,9.0453,1561
42636,-9.6474,5.5534,3.547,1530
42641,9.6438,6.8558,11.6777,1549
42646,11.6705,-5.4061,15.2535,1529
42651,-10.9391,0.1173,14.0073,1541
42656,-13.4339,3.1663,4.853,1545
42661,5.375,7.0749,6.6475,1543
42666,14.0791,-1.4641,15.6042,1532
42671,-8.8143,-2.2709,17.4178,1529
42676,-13.8433,1.1875,5.7102,1543
42681,-0.7386,6.8402,4.1168,1533
42686,13.9965,3.565,15.3564,1530
42691,-0.4238,-5.8622,17.5483,1547
42696,-10.4112,0.3903,7.7452,1528
42701,-7.9236,6.3099,3.5698,1543
42706,11.7208,6.128,13.0927,1546
42711,7.6866,-6.1507,16.0471,1555
42716,-10.9247,0.1856,11.5424,1527
42721,-12.2954,4.4951,4.1659,1549
42726,7.4771,6.9276,9.0166,1529
42731,13.5715,-3.2298,15.1086,1517
42736,-10.1933,-0.9888,16.4386,1554
42741,-13.2136,1.8938,5.4875,1519
42746,2.1105,6.9372,4.7836,1563
42751,14.2216,1.2665,15.6964,1519
42756,-4.9787,-4.1084,17.9266,1549
42761,-12.8305,0.4345,6.6415,1547
42766,-4.2677,6.608,3.5482,1531
42771,12.8593,5.4265,14.6956,1531
42776,4.8435,-6.5805,16.6241,1525
42781,-10.2795,0.5399,9.6355,1548
42786,-10.8673,5.3726,3.8379,1519
42791,9.6822,6.7098,10.7404,1547
42796,11.2408,-5.0182,15.5934,1518
42801,-11.1474,-0.1796,14.224,1533
42806,-13.6051,3.1627,4.6555,1541
42811,4.5382,6.8857,6.7385,1528
42816,14.6956,-0.6991,15.2858,1517
42821,-7.8661,-2.7928,17.7638,1542
42826,-12.226,0.978,5.952,1527
42831,-1.555,6.9635,3.7649,1527
42836,13.9115,3.5231,15.4091,1544
42841,-0.1939,-5.6755,17.4621,1543
42846,-11.6131,0.1844,7.9547,1555
42851,-7.7764,6.2058,3.4177,1545
42856,11.1282,6.4284,12.9538,1531
42861,9.0285,-6.1902,15.7251,1541
42866,-10.7368,0.4274,12.1554,1531
42871,-12.8652,4.1384,4.4676,1553
42876,7.2796,6.8857,8.2468,1525
42881,13.2148,-3.0694,15.5192,1522
42886,-10.1825,-1.1851,16.3799,1561
42891,-13.9953,1.9058,5.3678,1525
42896,1.6113,6.8797,4.9668,1558
42901,14.5771,1.7561,15.4306,1533
42906,-3.8666,-4.6843,17.8691,1556
42911,-11.0253,0.5411,6.8534,1545
42916,-5.3822,6.7265,3.4608,1519
42921,12.8365,5.1882,14.388,1553
42926,4.6112,-6.3386,16.5894,1543
42931,-10.8936,0.2993,9.8234,1557
42936,-10.7931,5.3594,3.8044,1541
42941,9.1123,6.7385,10.75,1547
42946,12.0764,-4.7058,15.2978,1529
42951,-10.8804,-0.1089,14.7207,1532
42956,-13.4925,2.8826,5.0206,1529
42961,4.4664,6.9516,6.0932,1528
42966,14.2383,-0.6404,15.6054,1533
42971,-7.6806,-2.8311,17.5962,1531
42976,-13.1921,0.9122,5.9783,1533
42981,-1.8208,6.8271,3.9157,1527
42986,13.775,3.8762,15.3959,1555
42991,0.9936,-5.9807,17.1916,1528
42996,-10.5082,0.5279,8.1834,1528
43001,-8.7005,6.1387,3.5686,1528
43006,11.2085,6.1603,12.566,1529
43011,8.9124,-5.9268,15.8017,1545
43016,-11.1043,0.2849,12.3218,1523
43021,-12.6522,4.2066,4.288,1562
43026,6.602,6.7971,8.4036,1525
43031,13.9797,-2.6264,15.1828,1520
43036,-9.8605,-1.391,16.7786,1544
43041,-13.0867,1.7418,5.5354,1527
43046,1.2234,6.9827,4.5047,1553
43051,14.3137,1.7478,15.7443,1541
43056,-3.7266,-4.555,17.686,1547
43061,-12.226,0.4621,6.9599,1548
43066,-5.2373,6.6499,3.4764,1525
43071,12.5121,5.5534,14.3868,1531
43076,5.8143,-6.5374,16.3596,1527
43081,-10.5668,0.5698,10.2903,1553
43086,-11.382,5.2241,3.9863,1531
43091,9.1135,6.7169,10.1502,1545
43096,11.8393,-4.6543,15.4785,1523
43101,-10.9714,-0.2454,14.7986,1560
43106,-13.6697,2.9209,4.8961,1529
43111,3.8786,6.8031,6.2261,1544
43116,14.698,-0.2155,15.4378,1544
43121,-7.0066,-3.1783,17.7602,1547
43126,-11.9255,0.8859,6.1471,1549
43131,-2.5151,6.9025,3.6943,1531
43136,13.7044,3.8978,15.3229,1554
43141,1.0283,-5.9233,17.1604,1543
43146,-11.3581,0.2502,8.3785,1532
43151,-8.6107,6.0047,3.4991,1519
43156,10.6243,6.5062,12.5313,1523
43161,9.9012,-5.8849,15.5671,1545
43166,-10.8338,0.4453,12.8652,1532
43171,-13.0676,3.8355,4.6196,1559
43176,6.5661,6.93,7.61,1531
43181,13.6912,-2.5247,15.4582,1512
43186,-9.7097,-1.5179,16.7462,1542
43191,-13.9965,1.6831,5.4719,1545
43196,0.6692,6.8235,4.6172,1533
43201,14.4562,2.4744,15.4821,1528
43206,-2.569,-5.114,17.7985,1561
43211,-10.8134,0.5327,7.1623,1553
43216,-6.3554,6.5481,3.4201,1543
43221,12.475,5.6683,13.8672,1533
43226,5.9256,-6.3291,16.3991,1531
43231,-11.0445,0.2538,10.5046,1551
43236,-11.1977,5.017,3.8367,1527
43241,8.254,6.8714,10.0497,1548
43246,13.0304,-4.1647,15.1326,1509
43251,-10.7308,-0.4693,15.5432,1558
43256,-13.4542,2.3882,5.1858,1524
43261,3.4488,6.9432,5.4229,1547
43266,14.4107,0.1137,15.6892,1527
43271,-6.6607,-3.3674,17.8117,1547
43276,-13.4865,0.741,6.2692,1541
43281,-2.7749,6.7457,3.7517,1525
43286,13.4746,4.7441,15.0655,1555
43291,2.7114,-6.4272,16.9641,1531
43296,-10.3561,0.4872,8.8657,1559
43301,-9.7504,5.8179,3.6559,1517
43306,10.6051,6.5541,11.7053,1531
43311,9.8809,-5.6443,15.7335,1531
43316,-11.1366,0.1113,13.1705,1528
43321,-13.1298,3.7026,4.4017,1559
43326,5.6503,6.8642,7.5968,1530
43331,14.5352,-1.8148,15.1756,1547
43336,-9.013,-1.9992,17.3807,1519
43341,-12.6665,1.3479,5.7892,1544
43346,-0.1425,6.9803,4.0989,1541
43351,14.2395,2.63,15.6629,1529
43356,-2.2434,-5.1739,17.7195,1545
43361,-12.238,0.2406,7.3334,1531
43366,-6.2596,6.3494,3.3567,1545
43371,11.7914,6.2189,13.7571,1525
43376,7.592,-6.541,16.0986,1545
43381,-10.5273,0.5507,11.1761,1549
43386,-12.1602,4.6687,4.1851,1543
43391,8.2863,6.9228,9.0836,1501
43396,12.6426,-3.9073,15.463,1523
43401,-10.7811,-0.656,15.6593,1559
43406,-14.1497,2.4505,5.0302,1532
43411,2.6827,6.7935,5.63,1553
43416,14.8871,1.0199,15.3815,1519
43421,-5.527,-4.1204,18.1229,1549
43426,-11.382,0.6524,6.5074,1553
43431,-3.9576,6.7648,3.4548,1543
43436,13.374,4.9057,14.8189,1549
43441,2.7378,-6.2309,17.0802,1529
43446,-11.4311,0.1365,8.9962,1549
43451,-9.3494,5.6168,3.5458,1532
43456,9.5864,6.9336,11.6897,1527
43461,11.5676,-5.375,15.3768,1527
43466,-10.8637,0.079,13.9666,1547
43471,-13.3728,3.1711,4.8267,1547
43476,5.442,7.0318,6.5912,1531
43481,14.1557,-1.4497,15.5755,1542
43486,-8.9699,-2.2134,17.4346,1541
43491,-14.3245,1.2582,5.709,1547
43496,-0.5878,6.7576,4.2952,1523
43501,14.2706,3.6344,15.2918,1531
43506,-0.4525,-5.8754,17.6943,1541
43511,-10.4483,0.4094,7.6842,1547
43516,-7.7464,6.3147,3.4596,1483
43521,11.8489,6.2225,13.064,1533
43526,7.4699,-6.2058,16.265,1557
43531,-11.0648,0.0886,11.4347,1528
43536,-11.9878,4.4592,4.0091,1543
43541,7.1479,7.0952,9.1219,1533
43546,13.8552,-3.3243,15.0907,1519
43551,-10.1981,-1.1528,16.3668,1563
43556,-13.2639,1.8519,5.4839,1525
43561,2.0423,7.1347,4.8327,1561
43566,14.4239,1.0965,15.627,1525
43571,-4.9452,-4.2318,17.8093,1555
43576,-12.457,0.3855,6.7193,1547
43581,-4.5693,6.7636,3.5518,1527
43586,12.7874,5.3439,14.5148,1547
43591,4.6148,-6.5242,16.5775,1525
43596,-10.4722,0.4501,9.8102,1547
43601,-10.9571,5.4049,4.0151,1534
43606,9.6762,6.7457,10.7212,1543
43611,11.236,-4.9249,15.4378,1533
43616,-10.9499,-0.1413,14.3317,1550
43621,-13.5512,3.0718,4.8734,1531
43626,4.5286,6.8558,6.6116,1527
43631,14.5089,-0.68,15.2487,1545
43636,-7.7189,-2.8575,17.6728,1525
43641,-12.2475,1.0247,6.0789,1531
43646,-1.7262,6.9552,3.9109,1529
43651,13.6793,3.6631,15.3037,1543
43656,0.1915,-5.7329,17.3771,1525
43661,-11.467,0.2011,8.0361,1533
43666,-7.9978,6.207,3.5494,1542
43671,11.0421,6.4236,12.8545,1531
43676,9.3027,-6.0825,15.7012,1553
43681,-10.8218,0.4166,12.3864,1546
43686,-12.979,4.0701,4.4987,1559
43691,7.0725,6.9432,8.0266,1543
43696,13.471,-2.9281,15.4474,1519
43701,-10.0173,-1.2953,16.5356,1553
43706,-13.7966,1.8902,5.4085,1527
43711,1.1468,6.8797,4.8949,1553
43716,14.5029,1.9273,15.5168,1542
43721,-3.3423,-4.8507,17.7051,1561
43726,-11.1151,0.571,6.9851,1545
43731,-5.6922,6.6966,3.5015,1519
43736,12.5935,5.2589,14.212,1532
43741,5.2577,-6.3422,16.4386,1541
43746,-10.9212,0.3196,10.1933,1517
43751,-11.0193,5.2672,3.9014,1546
43756,8.7819,6.7038,10.3896,1547
43761,12.3541,-4.5382,15.1888,1527
43766,-10.7631,-0.2765,15.0116,1559
43771,-13.4518,2.6659,5.108,1529
43776,4.0067,6.9504,5.9568,1543
43781,14.2587,-0.3579,15.4522,1541
43786,-7.1359,-3.0765,17.6572,1500
43791,-13.2459,0.7685,6.268,1554
43796,-2.3439,6.8103,3.9337,1524
43801,13.7595,4.2748,14.8943,1555
43806,1.6783,-6.2668,17.1066,1544
43811,-10.4447,0.4262,8.6862,1541
43816,-9.4176,5.9987,3.8176,1525
43821,11.1809,6.3363,11.9985,1542
43826,9.0908,-5.7593,15.6988,1547
43831,-10.9798,0.2334,12.9431,1527
43836,-13.0376,4.0163,4.5909,1546
43841,6.3865,6.7648,7.8913,1543
43846,13.8026,-2.2482,15.0547,1519
43851,-9.1638,-1.658,16.8516,1547
43856,-12.8557,1.6077,5.8155,1531
43861,0.6009,6.9468,4.47,1541
43866,14.1186,1.9896,15.4653,1531
43871,-2.7605,-4.7477,17.437,1549
43876,-11.9782,0.4465,7.4567,1543
43881,-6.1244,6.6858,3.5733,1546
43886,12.5456,5.4815,13.9139,1529
43891,6.3015,-6.3279,16.0471,1531
43896,-10.5273,0.6524,10.9307,1553
43901,-11.9938,5.1092,4.1647,1527
43906,8.831,6.3686,9.5996,1533
43911,11.9195,-4.1719,15.451,1527
43916,-10.7057,-0.4549,15.1457,1556
43921,-13.8684,2.9161,5.1296,1523
43926,3.5865,6.6559,5.9376,1545
43931,14.6932,-0.0634,15.4606,1523
43936,-6.0549,-3.4357,17.4549,1546
43941,-11.734,0.9685,6.4691,1543
43946,-3.2956,6.9815,3.6057,1531
43951,13.6673,3.7445,15.1445,1548
43956,1.9118,-5.8299,16.7247,1567
43961,-11.2216,0.4764,9.0261,1549
43966,-9.4535,6.1842,3.6057,1529
43971,10.7571,6.025,12.0488,1513
43976,10.0509,-5.5246,15.4809,1547
43981,-10.744,0.4298,13.313,1554
43986,-13.1286,3.881,4.6627,1556
43991,6.1555,6.3794,7.1347,1527
43996,13.5979,-1.9321,15.8341,1530
44001,-9.1231,-1.5502,16.866,1541
44006,-13.9426,1.7801,5.679,1526
44011,0.5986,6.5948,4.3311,1529
44016,14.9937,2.6492,15.8652,1529
44021,-1.8806,-5.0446,17.8033,1549
44026,-10.4483,0.5555,7.2125,1545
44031,-6.9001,6.3973,3.1568,1554
44036,12.1434,5.527,13.6745,1524
44041,6.2034,-6.0645,16.6409,1545
44046,-12.724,-0.012,10.3681,1529
44051,-10.4854,4.7896,3.6236,1507
44056,8.017,6.8606,9.9443,1517
44061,14.5735,-4.1025,15.2666,1519
44066,-10.7607,-0.4022,16.1621,1557
44071,-13.453,2.2721,5.1571,1527
44076,2.8192,6.76,4.4496,1561
44081,14.777,0.5794,16.514,1528
44086,-6.7516,-3.5937,17.9709,1531
44091,-15.5204,0.7314,6.1591,1553
44096,-2.9066,6.3099,3.6404,1525
44101,13.8026,5.5617,14.9422,1553
44106,4.3958,-7.0174,17.0527,1543
44111,-9.9168,0.5842,9.268,1559
44116,-10.4986,5.5414,3.6368,1563
44121,10.7715,6.6679,10.6662,1545
44126,9.9946,-5.3546,16.2399,1523
44131,-11.4383,-0.2705,13.3668,1546
44136,-13.3501,3.4225,4.3515,1529
44141,5.138,6.9468,7.1563,1532
44146,15.3744,-1.0175,15.1218,1547
44151,-8.2875,-2.6492,17.9805,1544
44156,-12.3469,1.1013,5.9448,1543
44161,-0.9984,6.8989,3.4405,1545
44166,14.1354,3.3435,15.7299,1545
44171,-1.5706,-5.2888,17.8045,1547
44176,-13.2914,0.0024,7.6782,1545
44181,-7.039,6.1435,3.389,1531
44186,11.7555,6.8151,13.3716,1519
44191,8.9663,-6.5625,15.621,1543
44196,-10.6781,0.5878,12.0979,1541
44201,-12.8365,4.3658,4.4472,1547
44206,7.8757,6.8295,8.2229,1531
44211,12.7491,-3.3926,15.6066,1516
44216,-10.2939,-1.0774,16.1716,1549
44221,-14.4131,2.1955,5.3319,1529
44226,2.2254,6.7469,5.0913,1557
44231,14.7459,1.6053,15.3588,1523
44236,-4.1683,-4.5849,17.7566,1549
44241,-11.0875,0.4836,6.9576,1547
44246,-5.102,6.8067,3.4788,1524
44251,13.0185,5.0386,14.3832,1544
44256,3.8367,-6.1351,16.6493,1529
44261,-11.1941,-0.0132,9.827,1549
44266,-10.6877,5.4935,3.7936,1525
44271,10.0114,6.9623,10.9176,1547
44276,11.5233,-4.9919,15.099,1519
44281,-10.6231,-0.0515,14.6836,1556
44286,-13.6158,2.909,5.1918,1532
44291,4.9464,6.7888,6.0262,1545
44296,13.6865,-0.6955,15.5324,1543
44301,-7.9224,-2.5522,17.51,1540
44306,-13.7655,1.0558,6.2764,1546
44311,-1.0534,6.6726,3.9061,1527
44316,14.613,4.0235,15.0942,1547
44321,0.7446,-5.9197,17.3999,1543
44326,-9.9515,0.5399,8.2516,1575
44331,-9.074,6.1806,3.4548,1525
44336,11.5053,5.9975,12.2655,1531
44341,8.1259,-5.6072,16.18,1543
44346,-12.2583,0.0215,11.9746,1545
44351,-12.1901,4.3287,4.0917,1563
44356,7.2101,6.9216,8.4096,1525
44361,15.0643,-3.0263,15.3636,1527
44366,-9.9108,-0.8691,16.9474,1544
44371,-12.8748,1.9321,5.4552,1529
44376,0.8751,6.7828,3.7625,1555
44381,14.4263,1.5431,16.8947,1519
44386,-4.2856,-4.0905,17.686,1559
44391,-14.6932,0.7805,6.7433,1543
44396,-4.464,6.4033,3.3579,1541
44401,13.3908,5.6132,14.8824,1529
44406,7.0318,-7.0653,16.3057,1543
44411,-10.4663,1.16,10.2424,1559
44416,-11.8525,5.266,3.7529,1550
44421,8.8645,6.0645,9.2225,1541
44426,11.8848,-4.7752,16.6086,1523
44431,-11.5329,-0.4058,14.4825,1567
44436,-14.0384,3.3016,4.4065,1518
44441,3.5662,6.705,6.3494,1553
44446,15.7287,-0.255,15.8161,1525
44451,-6.359,-3.6631,17.7949,1543
44456,-11.6909,1.1588,6.128,1549
44461,-3.0861,7.1587,3.3926,1533
44466,14.0097,3.4381,15.5863,1546
44471,0.8906,-5.855,17.1664,1544
44476,-12.2212,0.2131,8.3737,1559
44481,-8.8466,6.1902,3.3794,1528
44486,10.7847,6.3901,12.5037,1528
44491,10.3022,-6.0166,15.433,1527
44496,-10.7931,0.413,13.1262,1545
44501,-13.3201,3.9923,4.7788,1553
44506,6.4691,6.7313,7.3227,1527
44511,13.3908,-2.496,15.7802,1531
44516,-9.2129,-1.652,16.6517,1546
44521,-13.8086,1.8854,5.685,1527
44526,0.5974,6.8654,4.4748,1525
44531,14.6262,2.1632,15.6856,1526
44536,-2.077,-5.1188,17.2538,1529
44541,-10.6997,0.7254,7.428,1542
44546,-6.9456,6.7995,3.4967,1553
44551,12.2583,5.0242,13.8924,1531
44556,6.098,-6.0442,16.101,1532
44561,-11.1534,0.3472,10.7308,1541
44566,-11.6849,5.2637,3.9588,1544
44571,8.4815,6.5098,9.9371,1543
44576,13.0316,-4.221,15.1685,1529
44581,-10.7703,-0.3543,15.524,1559
44586,-13.3812,2.569,5.2241,1531
44591,3.1184,6.8582,5.4085,1555
44596,14.3329,0.0311,15.7742,1545
44601,-6.2201,-3.5015,17.5196,1546
44606,-12.9598,0.7985,6.3817,1544
44611,-3.1149,6.8331,3.8738,1523
44616,13.4674,4.4365,14.9578,1533
44621,2.9185,-6.438,16.6636,1531
44626,-10.4842,0.5722,9.1518,1545
44631,-9.9539,5.9412,3.8211,1543
44636,10.5919,6.3698,11.5879,1523
44641,9.9467,-5.4612,15.5336,1527
44646,-11.0409,0.0215,13.4243,1551
44651,-13.2304,3.8008,4.634,1548
44656,5.8095,6.766,7.4855,1528
44661,14.303,-1.7885,15.0835,1542
44666,-8.8466,-1.9836,17.2694,1533
44671,-12.6378,1.3228,5.9113,1529
44676,-0.2418,7.0294,4.1084,1544
44681,14.1665,2.5726,15.6078,1533
44686,-1.9776,-5.0218,17.5327,1553
44691,-12.2763,0.2897,7.5142,1549
44696,-6.511,6.3626,3.5075,1544
44701,11.9411,6.0956,13.6733,1525
44706,7.671,-6.511,15.8568,1556
44711,-10.6961,0.5698,11.3401,1527
44716,-12.311,4.6244,4.3167,1533
44721,8.2588,6.8989,9.0644,1525
44726,12.6234,-3.9181,15.3492,1515
44731,-10.7775,-0.6488,15.767,1558
44736,-14.0444,2.3559,5.1236,1541
44741,2.66,6.9013,5.6216,1545
44746,14.7495,0.826,15.2223,1531
44751,-5.3271,-4.0989,17.9206,1545
44756,-11.4323,0.6812,6.6499,1541
44761,-3.9863,6.8773,3.5985,1529
44766,13.392,4.6663,14.6896,1544
44771,2.9748,-6.2022,16.8241,1545
44776,-11.0911,0.1784,9.1973,1559
44781,-9.675,5.6443,3.6117,1525
44786,9.8222,6.8977,11.576,1548
44791,11.3066,-5.3127,15.2008,1519
44796,-10.9607,0.1413,14.0252,1531
44801,-13.3872,3.2166,4.8902,1543
44806,5.5079,7.0234,6.7516,1530
44811,14.0348,-1.4078,15.2367,1567
44816,-8.9208,-2.1787,17.5399,1531
44821,-14.1653,1.1396,5.8071,1547
44826,-0.486,6.76,4.3311,1527
44831,14.1952,3.7122,15.1661,1548
44836,-0.5435,-5.8586,17.7159,1527
44841,-10.5704,0.3053,7.7464,1547
44846,-7.6614,6.1543,3.5721,1544
44851,11.9004,6.4428,13.0496,1525
44856,7.592,-6.3542,16.0495,1553
44861,-11.1797,0.2167,11.6586,1546
44866,-12.0512,4.3586,4.0809,1555
44871,7.258,7.1766,9.2021,1523
44876,13.8038,-3.3112,14.7351,1527
44881,-10.392,-1.0295,16.5655,1540
44886,-13.2507,1.8651,5.5294,1523
44891,2.1572,7.1228,4.9368,1547
44896,14.4514,1.0953,15.2942,1530
44901,-5.1056,-4.1204,17.941,1565
44906,-12.39,0.4501,6.7935,1547
44911,-4.4556,6.7253,3.5769,1563
44916,12.9012,5.3091,14.455,1523
44921,4.4041,-6.5625,16.429,1525
44926,-10.5656,0.4693,9.8653,1553
44931,-10.8673,5.4887,4.0318,1531
44936,9.9144,6.7552,10.9343,1551
44941,11.0229,-5.1272,15.2211,1517
44946,-11.0983,0.0419,14.37,1558
44951,-13.5715,3.1304,4.9512,1527
44956,4.804,6.9707,6.6619,1545
44961,14.2611,-1.0415,15.1278,1545
44966,-7.8254,-2.6492,17.3915,1527
44971,-12.3672,1.1349,6.1699,1547
44976,-1.6305,7.0174,4.0773,1541
44981,13.9438,3.1795,15.2235,1557
44986,0.0838,-5.703,16.9749,1526
44991,-10.9666,0.5794,8.2133,1543
44996,-8.4132,6.3698,3.6751,1525
45001,11.5329,5.9879,12.9466,1541
45006,8.4467,-6.1519,15.5192,1545
45011,-11.2384,0.6297,12.2679,1576
45016,-12.8102,4.4089,4.4975,1557
45021,7.2868,6.7193,8.5772,1533
45026,13.3836,-3.2501,15.1385,1527
45031,-10.0568,-1.0475,16.277,1533
45036,-13.1956,1.9956,5.5378,1525
45041,1.5814,6.9851,5.0015,1548
45046,14.4275,1.0786,15.5072,1542
45051,-3.9097,-4.4257,17.3268,1547
45056,-11.5005,0.7709,7.0557,1517
45061,-5.3307,6.8905,3.6919,1543
45066,12.967,4.7848,14.4322,1543
45071,4.8518,-6.3626,16.0938,1543
45076,-10.9583,0.7542,10.2615,1547
45081,-11.1498,5.5318,4.0199,1531
45086,9.4739,6.3973,10.6566,1545
45091,11.5592,-4.8459,15.1744,1531
45096,-11.0768,0.0072,14.6142,1560
45101,-13.4626,3.134,5.0422,1523
45106,4.4915,6.8498,6.3937,1527
45111,14.3125,-0.9493,15.4618,1527
45116,-7.3622,-2.7282,17.261,1531
45121,-12.3661,1.1911,6.2285,1542
45126,-1.919,7.0342,3.9971,1530
45131,14.0157,3.1903,15.3732,1558
45136,0.5794,-5.7329,16.8145,1553
45141,-11.0205,0.674,8.3941,1547
45146,-8.4575,6.3662,3.6404,1519
45151,11.2779,5.7868,12.7276,1531
45156,8.8502,-5.9987,15.6222,1548
45161,-11.1666,0.6105,12.3816,1531
45166,-12.615,4.4041,4.3993,1555
45171,6.851,6.5613,8.3199,1527
45176,13.7415,-3.0335,15.3995,1533
45181,-10.003,-1.0618,16.4218,1545
45186,-13.2435,1.9776,5.5079,1525
45191,1.2881,6.9168,4.8578,1532
45196,14.6561,1.4018,15.7395,1546
45201,-3.8918,-4.537,17.4693,1553
45206,-11.7543,0.7841,6.8953,1553
45211,-5.1559,6.7397,3.4895,1544
45216,12.7168,5.0781,14.4023,1523
45221,5.1559,-6.4943,16.441,1528
45226,-10.8852,0.7278,10.0856,1547
45231,-10.9032,5.4145,3.8906,1524
45236,9.1147,6.4715,10.4782,1545
45241,12.038,-4.8782,15.5037,1531
45246,-11.2264,0.0467,14.5711,1531
45251,-13.5943,3.2238,4.7226,1542
45256,3.9684,6.7337,6.4165,1545
45261,15.1002,-0.7063,15.6844,1525
45266,-7.744,-2.8467,17.6213,1547
45271,-12.238,1.1576,5.9867,1557
45276,-2.0243,6.9037,3.7397,1543
45281,14.0803,3.5458,15.6353,1561
45286,0.3089,-5.8694,17.3137,1529
45291,-12.0704,0.4824,7.9511,1547
45296,-7.4436,6.1351,3.3914,1533
45301,10.6326,6.2297,12.9095,1519
45306,10.1682,-6.2596,15.864,1530
45311,-10.9882,0.7027,12.3529,1541
45316,-12.7072,4.1659,4.3155,1557
45321,6.7421,6.8043,7.6291,1528
45326,14.0827,-3.207,15.9885,1543
45331,-10.5872,-1.1085,16.3955,1525
45336,-15.2547,2.2745,5.0218,1530
45341,1.2055,6.6331,5.108,1545
45346,15.4845,2.1991,15.5396,1527
45351,-3.3172,-5.2158,18.2426,1551
45356,-10.9858,0.7326,6.7397,1541
45361,-5.6934,6.6463,3.2322,1549
45366,13.3513,5.4492,14.1425,1529
45371,4.7309,-6.7062,17.0359,1547
45376,-12.0716,0.1879,9.742,1543
45381,-9.9742,5.1104,3.3267,1527
45386,8.1247,7.0713,10.7296,1541
45391,13.8133,-4.7776,15.2415,1528
45396,-11.066,-0.2789,15.2582,1565
45401,-13.3872,2.7533,4.9572,1547
45406,4.0606,7.179,5.5103,1557
45411,14.9781,-0.644,15.9298,1543
45416,-8.1211,-2.9664,17.9026,1528
45421,-15.214,0.9984,5.794,1527
45426,-1.8555,6.6104,3.8906,1531
45431,13.8744,4.7022,15.1936,1560
45436,1.98,-6.5912,17.5543,1523
45441,-10.246,0.5279,8.2564,1563
45446,-9.0932,5.9508,3.4872,1523
45451,11.394,6.5888,11.9818,1549
45456,9.1578,-6.1699,16.2267,1523
45461,-11.3952,0.1784,12.2547,1527
45466,-12.9,4.0342,3.9732,1555
45471,5.7988,7.1287,8.3701,1575
45476,15.0751,-2.3272,15.0488,1545
45481,-9.8557,-1.8759,17.3041,1546
45486,-12.8916,1.5251,5.515,1543
45491,0.668,7.1048,4.3383,1543
45496,14.7591,2.0458,15.5025,1528
45501,-3.8451,-5.0182,18.1373,1560
45506,-12.3744,0.2574,6.9109,1542
45511,-5.3247,6.3937,3.45,1577
45516,12.0357,6.1902,14.0899,1525
45521,6.4967,-6.7648,16.3153,1557
45526,-10.6183,0.4046,10.5165,1533
45531,-11.5041,4.9344,4.1084,1529
45536,8.9902,7.1718,9.839,1527
45541,12.2631,-4.5382,15.3013,1523
45546,-11.0935,-0.4369,15.2463,1565
45551,-14.0181,2.6372,4.9536,1533
45556,3.6344,7.0868,6.098,1551
45561,14.7698,0.1508,15.0236,1507
45566,-7.0797,-3.4836,18.184,1533
45571,-12.0728,0.6788,6.2381,1553
45576,-2.5654,6.8618,3.7697,1525
45581,13.5943,4.5047,14.929,1559
45586,1.3348,-6.1962,17.3951,1532
45591,-11.1701,0.0886,8.4396,1560
45596,-8.4036,5.7856,3.5231,1560
45601,10.4076,6.9492,12.3038,1542
45606,10.2999,-5.9903,15.4893,1519
45611,-10.9858,0.2023,13.0484,1543
45616,-13.0328,3.6655,4.6029,1546
45621,6.4883,7.2688,7.5753,1545
45626,13.9043,-2.4217,15.1709,1529
45631,-9.9288,-1.64,17.1892,1544
45636,-14.2419,1.5886,5.5174,1527
45641,0.6596,6.9288,4.6843,1529
45646,14.5053,2.6683,15.0787,1541
45651,-2.5558,-5.3463,17.9876,1559
45656,-10.8757,0.3735,7.2377,1547
45661,-6.3123,6.5314,3.4069,1542
45666,12.6222,5.9508,13.7463,1523
45671,5.8945,-6.5948,16.3608,1547
45676,-10.9786,0.2035,10.5955,1531
45681,-11.2659,4.8961,3.9444,1547
45686,8.2959,7.1216,10.0353,1544
45691,12.8233,-4.209,14.9255,1529
45696,-10.7847,-0.571,15.6928,1555
45701,-13.362,2.3882,5.2876,1525
45706,3.5578,7.0641,5.6192,1557
45711,14.3161,0.1484,15.2475,1542
45716,-6.6643,-3.5111,17.9553,1557
45721,-12.9562,0.6021,6.4033,1543
45726,-2.8479,6.8139,3.7769,1522
45731,13.3668,4.8351,14.7579,1547
45736,2.5331,-6.3686,17.0036,1525
45741,-10.4256,0.3723,8.8945,1544
45746,-9.6414,5.8227,3.7733,1524
45751,10.5584,6.7612,11.6634,1531
45756,10.0772,-5.6024,15.506,1531
45761,-11.1941,0.1329,13.3836,1544
45766,-13.149,3.6296,4.5334,1531
45771,5.685,6.9504,7.5884,1544
45776,14.3664,-1.8256,15.0093,1524
45781,-9.1937,-2.0961,17.3747,1527
45786,-12.7276,1.3431,5.7748,1541
45791,-0.0994,6.9911,4.294,1525
45796,14.2383,2.6085,15.5288,1543
45801,-2.0542,-5.1392,17.7075,1531
45806,-11.734,0.3795,7.3885,1533
45811,-6.3626,6.3985,3.4165,1541
45816,11.7639,5.9723,13.7284,1525
45821,7.5274,-6.4739,15.9143,1559
45826,-10.8038,0.5387,11.2001,1529
45831,-12.0608,4.6938,4.1791,1563
45836,8.1954,6.8331,9.2296,1543
45841,12.8652,-4.0402,15.3552,1519
45846,-10.908,-0.6105,15.7969,1544
45851,-14.036,2.4409,5.0494,1541
45856,2.6959,6.9599,5.6288,1548
45861,14.8812,0.7374,15.3205,1529
45866,-5.5881,-4.0139,18.008,1567
45871,-11.5568,0.723,6.4895,1547
45876,-3.9277,6.8534,3.5255,1525
45881,13.4303,4.6352,14.8704,1541
45886,2.9066,-6.3195,16.9486,1525
45891,-11.1055,0.2765,9.0465,1563
45896,-9.4583,5.6767,3.5937,1533
45901,9.7157,6.7205,11.5975,1560
45906,11.4251,-5.4181,15.3971,1531
45911,-11.0265,0.1915,13.8816,1555
45916,-13.3584,3.3459,4.7968,1525
45921,5.4528,7.0174,6.7708,1546
45926,14.2228,-1.6376,15.5503,1527
45931,-8.9795,-2.1644,17.352,1545
45936,-14.1689,1.3384,5.6743,1546
45941,-0.516,6.8079,4.2294,1533
45946,14.2886,3.4189,15.3576,1560
45951,-0.6213,-5.8466,17.6692,1541
45956,-10.586,0.4944,7.6471,1541
45961,-7.5968,6.3255,3.4321,1523
45966,11.9507,6.1016,13.1777,1541
45971,7.5166,-6.3482,16.2243,1529
45976,-11.2324,0.2251,11.3784,1485
45981,-11.8417,4.5538,3.9361,1563
45986,7.2065,6.9671,9.2225,1511
45991,14.0408,-3.3806,15.0667,1528
45996,-10.4818,-1.0666,16.4769,1543
46001,-13.3237,1.9896,5.3247,1547
46006,2.2649,7.106,4.7908,1542
46011,14.5436,1.0199,15.7766,1543
46016,-5.3546,-4.1132,18.0343,1549
46021,-13.2124,0.5339,6.5386,1546
46026,-4.039,6.687,3.5063,1527
46031,12.8712,5.3331,14.6693,1528
46036,4.7441,-6.6714,16.6804,1514
46041,-10.3501,0.5351,9.5828,1543
46046,-10.7847,5.4971,3.8211,1527
46051,9.8533,6.7133,10.726,1545
46056,11.1414,-5.1164,15.6653,1517
46061,-11.242,-0.1281,14.1306,1557
46066,-13.6948,3.2238,4.61,1527
46071,4.5238,6.9228,6.8223,1542
46076,14.8608,-0.7889,15.2116,1529
46081,-7.9739,-2.9054,17.8464,1543
46086,-12.2416,1.0355,5.9747,1541
46091,-1.6113,6.9935,3.7781,1529
46096,14.0181,3.4836,15.4546,1545
46101,-0.2957,-5.7521,17.51,1517
46106,-11.7148,0.2083,7.9176,1618
46111,-7.7417,6.1507,3.4596,1527
46116,11.0624,6.5254,12.955,1523
46121,9.2452,-6.262,15.7155,1528
46126,-10.8409,0.4705,12.2499,1544
46131,-12.9059,4.1216,4.4652,1553
46136,7.3071,7.0078,8.1187,1524
46141,13.4183,-3.1412,15.3947,1525
46146,-10.2544,-1.1684,16.6241,1531
46151,-13.89,1.8483,5.3834,1542
46156,1.3563,6.869,4.8914,1532
46161,14.4873,1.834,15.4701,1525
46166,-3.5925,-4.7764,17.8308,1545
46171,-11.1115,0.5016,6.954,1547
46176,-5.5366,6.681,3.4213,1551
46181,12.6462,5.3103,14.2467,1523
46186,5.1643,-6.3542,16.4254,1555
46191,-10.8386,0.3388,10.1598,1543
46196,-10.9223,5.2469,3.8595,1541
46201,8.91,6.784,10.5046,1565
46206,12.3349,-4.555,15.1828,1519
46211,-10.9499,-0.2191,15.0691,1565
46216,-13.4578,2.739,5.0063,1531
46221,4.1061,6.9121,5.8311,1561
46226,14.3305,-0.3436,15.6258,1509
46231,-7.3801,-3.0203,17.7937,1553
46236,-13.4303,0.893,6.1711,1533
46241,-2.0889,6.8043,3.7912,1525
46246,13.702,4.2557,15.1529,1555
46251,1.8076,-6.2249,17.1066,1543
46256,-10.483,0.4286,8.4515,1557
46261,-9.1794,5.9807,3.559,1531
46266,10.9487,6.4464,12.1877,1541
46271,9.4152,-5.934,15.7024,1519
46276,-11.315,0.1844,12.797,1553
46281,-12.8772,3.9492,4.3335,1531
46286,6.1327,6.9013,8.0122,1533
46291,14.3018,-2.2613,15.0164,1526
46296,-9.3817,-1.7514,17.2251,1527
46301,-12.8748,1.4844,5.7461,1541
46306,0.4657,7.1096,4.2389,1527
46311,14.37,2.1668,15.5396,1548
46316,-2.7952,-4.859,17.6848,1546
46321,-12.2667,0.3136,7.2197,1531
46326,-5.9592,6.4883,3.3998,1543
46331,12.1757,5.9376,13.9067,1545
46336,6.845,-6.5003,16.1166,1559
46341,-10.55,0.4992,10.9295,1527
46346,-12.0213,4.8327,4.1492,1546
46351,8.5712,6.7959,9.3829,1541
46356,12.3601,-4.1372,15.4163,1520
46361,-10.8613,-0.4537,15.4953,1553
46366,-13.9833,2.5558,5.0075,1531
46371,3.0394,6.8486,5.7485,1559
46376,14.8213,0.5974,15.3672,1541
46381,-5.9089,-3.8283,17.9733,1553
46386,-11.5987,0.7207,6.5098,1533
46391,-3.6009,6.8271,3.4752,1545
46396,13.4782,4.5179,14.9937,1518
46401,2.4409,-6.2297,16.9126,1525
46406,-11.3437,0.2682,9.0285,1543
46411,-9.3769,5.7593,3.6093,1527
46416,10.0556,6.7493,11.8333,1543
46421,11.1414,-5.5641,15.2271,1521
46426,-11.0588,0.2693,13.8385,1554
46431,-13.3309,3.383,4.7561,1529
46436,5.7389,6.9803,6.784,1540
46441,14.024,-1.8184,15.5108,1529
46446,-9.0261,-2.0183,17.3675,1548
46451,-13.9474,1.4006,5.7281,1543
46456,-0.3364,6.8307,4.2389,1529
46461,14.2898,3.2262,15.5025,1547
46466,-0.9098,-5.6288,17.5758,1529
46471,-10.6015,0.4609,7.6339,1544
46476,-7.5166,6.3925,3.3938,1525
46481,11.9758,5.9855,13.3872,1545
46486,7.2736,-6.2369,16.0878,1547
46491,-11.248,0.2598,11.4048,1553
46496,-11.959,4.6076,4.0306,1549
46501,7.5705,6.9288,9.2213,1545
46506,13.69,-3.5195,15.0571,1523
46511,-10.3813,-0.8332,16.338,1533
46516,-13.289,2.0662,5.4073,1525
46521,2.3415,7.0126,4.8399,1534
46526,14.5208,0.8559,15.8795,1543
46531,-5.3247,-3.978,17.8009,1549
46536,-13.2735,0.6177,6.5446,1543
46541,-3.9863,6.6523,3.4692,1533
46546,13.0831,5.3151,14.8045,1523
46551,4.5633,-6.693,16.4925,1531
46556,-10.4878,0.6201,9.7324,1543
46561,-10.8924,5.4887,3.8199,1533
46566,10.0245,6.6056,10.8002,1545
46571,10.9343,-5.2577,15.536,1527
46576,-11.2144,-0.0275,14.2527,1561
46581,-13.5979,3.2801,4.6687,1533
46586,4.6902,6.8498,6.8283,1541
46591,14.613,-0.899,15.2475,1517
46596,-7.835,-2.7821,17.6632,1517
46601,-12.2499,1.063,6.0837,1533
46606,-1.5526,6.954,3.7601,1523
46611,13.9151,3.4572,15.4139,1529
46616,-0.1053,-5.7066,17.3029,1529
46621,-11.5496,0.2406,8.1032,1553
46626,-7.8769,6.201,3.45,1531
46631,11.2444,6.4488,12.9909,1531
46636,9.0609,-6.1459,15.5922,1531
46641,-10.8541,0.4836,12.39,1541
46646,-12.8497,4.0977,4.452,1555
46651,7.2784,6.9157,8.0206,1543
46656,13.4111,-2.9748,15.4246,1542
46661,-10.2149,-1.2246,16.6289,1519
46666,-14.1414,1.907,5.3355,1579
46671,1.4521,6.7636,4.8016,1523
46676,14.6262,2.0662,15.5072,1525
46681,-3.5171,-4.9297,17.8979,1561
46686,-11.1462,0.4824,6.9587,1547
46691,-5.5833,6.6319,3.4321,1554
46696,12.7779,5.5689,14.2347,1530
46701,5.0949,-6.5003,16.4494,1549
46706,-11.145,0.2514,10.2101,1543
46711,-10.7476,5.2062,3.7373,1545
46716,8.8226,6.9839,10.5046,1511
46721,12.5313,-4.6448,15.0679,1529
46726,-10.8733,-0.2514,15.275,1549
46731,-13.4806,2.6312,5.1427,1533
46736,4.1096,7.1036,5.7317,1560
46741,14.2994,-0.4298,15.5719,1518
46746,-7.2281,-3.0682,17.7925,1553
46751,-13.3704,0.8775,6.1974,1541
46756,-2.296,6.8163,3.7757,1525
46761,13.7272,4.3946,15.0978,1551
46766,1.8519,-6.2896,17.0563,1523
46771,-10.477,0.4705,8.6491,1554
46776,-9.347,5.9927,3.5901,1519
46781,11.0301,6.4679,12.0895,1547
46786,9.3613,-5.8646,15.706,1527
46791,-11.2132,0.1472,12.8796,1544
46796,-13.0041,3.9109,4.3718,1530
46801,6.207,6.8917,7.8087,1529
46806,14.1665,-2.2254,15.1481,1529
46811,-9.3099,-1.7789,17.1688,1549
46816,-12.888,1.4593,5.7569,1586
46821,0.401,7.0234,4.2246,1543
46826,14.2766,2.2793,15.5575,1549
46831,-2.5977,-5.0733,17.5794,1527
46836,-11.9961,0.3065,7.3526,1545
46841,-6.1627,6.5493,3.456,1543
46846,12.1709,5.9448,13.8876,1525
46851,6.845,-6.529,16.0076,1531
46856,-10.7081,0.5447,11.0875,1527
46861,-12.0488,4.8626,4.2042,1549
46866,8.7041,6.8953,9.4427,1529
46871,12.3529,-4.1946,15.2391,1528
46876,-10.7955,-0.5638,15.591,1553
46881,-13.787,2.4337,5.1296,1528
46886,3.1436,6.9288,5.6755,1545
46891,14.4789,0.4345,15.202,1553
46896,-5.8873,-3.8774,17.765,1563
46901,-11.71,0.7518,6.5613,1543
46906,-3.5925,6.9336,3.6751,1527
46911,13.4135,4.4784,14.783,1523
46916,2.6911,-6.2381,16.7199,1543
46921,-10.9463,0.3555,9.1985,1562
46926,-9.8114,5.9029,3.7074,1545
46931,10.3262,6.5817,11.6238,1555
46936,10.5441,-5.4959,15.2487,1527
46941,-11.0756,0.1664,13.8217,1549
46946,-13.3034,3.5147,4.8123,1527
46951,5.8179,6.8893,7.0354,1544
46956,13.9151,-1.7119,15.433,1515
46961,-8.7664,-2.0183,17.3113,1530
46966,-13.4291,1.33,5.8419,1541
46971,-0.3627,6.9145,4.1911,1529
46976,14.2036,3.0347,15.427,1561
46981,-1.0534,-5.5162,17.4238,1531
46986,-10.8565,0.486,7.7943,1545
46991,-7.4101,6.4584,3.4836,1507
46996,12.0249,5.9185,13.3261,1519
47001,7.2963,-6.3434,15.8736,1548
47006,-11.1342,0.4597,11.6119,1531
47011,-12.0799,4.7274,4.1468,1553
47016,7.7752,6.7684,9.1303,1532
47021,13.2339,-3.6164,15.1326,1523
47026,-10.404,-0.6835,16.1465,1544
47031,-13.3537,2.2553,5.3929,1525
47036,2.405,6.9815,4.9201,1545
47041,14.4311,0.6704,15.8508,1532
47046,-5.0889,-3.9025,17.5555,1559
47051,-12.6534,0.7422,6.6595,1533
47056,-4.2066,6.79,3.5003,1531
47061,13.1944,4.7489,14.9099,1523
47066,4.2413,-6.5469,16.4398,1527
47071,-10.6805,0.7733,9.6989,1544
47076,-10.7847,5.7269,3.8427,1541
47081,10.0509,6.3231,10.9894,1545
47086,11.0241,-5.2972,15.5384,1525
47091,-11.2527,0.1592,14.133,1559
47096,-13.465,3.4572,4.6699,1533
47101,4.8231,6.7205,6.8151,1604
47106,14.516,-1.2055,15.524,1524
47111,-8.029,-2.6121,17.3556,1547
47116,-12.3804,1.2629,5.934,1546
47121,-1.4461,6.9731,3.8463,1529
47126,14.0013,3.0586,15.6533,1553
47131,-0.1532,-5.6324,17.097,1528
47136,-11.4539,0.4908,8.0589,1559
47141,-7.8733,6.3949,3.5075,1525
47146,11.3605,5.9915,13.1597,1543
47151,8.819,-6.2309,15.5683,1530
47156,-11.0959,0.6512,12.2966,1543
47161,-12.7611,4.3754,4.4185,1545
47166,7.288,6.7301,8.3725,1545
47171,13.3968,-3.2417,15.3875,1541
47176,-10.1323,-1.0642,16.3967,1543
47181,-13.7415,2.1129,5.3774,1525
47186,1.4808,6.9456,4.8495,1525
47191,14.5831,1.3982,15.7395,1529
47196,-3.6476,-4.6436,17.4872,1541
47201,-11.382,0.753,7.0102,1541
47206,-5.4324,6.857,3.4716,1556
47211,12.8413,4.8471,14.4981,1529
47216,5.0841,-6.438,16.1788,1541
47221,-11.1845,0.6009,10.222,1547
47226,-10.9331,5.4911,3.7816,1533
47231,8.983,6.4212,10.5776,1525
47236,12.232,-4.7812,15.208,1525
47241,-11.0708,0.0215,14.9219,1549
47246,-13.3429,2.976,4.9979,1523
47251,4.0474,6.9013,5.9927,1534
47256,14.4921,-0.7673,15.8041,1523
47261,-7.2317,-2.8778,17.4621,1554
47266,-13.0412,1.1349,6.1591,1528
47271,-2.302,6.869,3.7972,1533
47276,13.7834,3.802,15.4773,1548
47281,1.6867,-6.1842,16.8923,1544
47286,-10.7512,0.6955,8.5305,1548
47291,-9.1674,6.1088,3.5757,1459
47296,10.9846,6.1723,12.3577,1560
47301,9.5888,-5.9723,15.5276,1525
47306,-11.4179,0.4489,12.8952,1553
47311,-12.8988,4.0474,4.4077,1550
47316,6.0801,6.8115,7.9954,1549
47321,14.3927,-2.4481,15.2008,1543
47326,-9.4763,-1.652,17.03,1544
47331,-12.7563,1.6807,5.6491,1549
47336,0.3364,7.1,4.2725,1517
47341,14.4706,1.9393,15.7251,1595
47346,-2.7031,-4.9548,17.5411,1527
47351,-12.293,0.5818,7.2425,1544
47356,-5.964,6.5853,3.4177,1545
47361,12.2092,5.6324,14.0504,1519
47366,7.1132,-6.5577,16.004,1542
47371,-10.7667,0.7398,10.9726,1527
47376,-11.9938,4.9608,4.0869,1557
47381,8.6072,6.7014,9.3984,1519
47386,12.5408,-4.294,15.506,1519
47391,-10.963,-0.4549,15.5096,1549
47396,-14.0875,2.6683,4.974,1523
47401,2.9808,6.8474,5.7293,1559
47406,14.965,0.3938,15.5767,1527
47411,-5.8442,-3.8403,17.7937,1561
47416,-11.7591,0.8751,6.4212,1542
47421,-3.6488,6.9097,3.4931,1561
47426,13.6565,4.3539,15.1852,1533
47431,2.5833,-6.2549,16.7774,1543
47436,-11.4527,0.3915,8.9639,1559
47441,-9.2572,5.7988,3.535,1557
47446,9.9455,6.6164,11.8501,1548
47451,11.2767,-5.6731,15.3169,1530
47456,-11.1235,0.3388,13.8672,1557
47461,-13.3142,3.4632,4.7549,1527
47466,5.6252,6.9851,6.79,1529
47471,14.1725,-1.8316,15.6042,1525
47476,-9.0034,-2.0674,17.2849,1545
47481,-14.3664,1.4784,5.6551,1533
47486,-0.4166,6.7457,4.2557,1589
47491,14.4299,3.2441,15.5312,1551
47496,-0.5914,-5.8574,17.5519,1541
47501,-10.6578,0.5997,7.7464,1560
47506,-7.683,6.3566,3.4488,1529
47511,12.0524,6.0082,13.1753,1531
47516,7.5322,-6.3386,16.1261,1541
47521,-11.491,0.3579,11.5101,1541
47526,-11.8501,4.6208,3.899,1553
47531,7.1419,6.8893,9.1901,1543
47536,14.2754,-3.4943,15.1086,1532
47541,-10.3944,-0.9601,16.5152,1542
47546,-13.1382,2.0494,5.369,1547
47551,1.9405,7.0114,4.6412,1545
47556,14.8081,0.9373,15.9562,1544
47561,-5.0937,-4.1671,17.7506,1548
47566,-13.4626,0.6812,6.6367,1529
47571,-4.2497,6.5517,3.4895,1553
47576,12.9586,5.3439,14.7172,1515
47581,5.223,-6.7289,16.4135,1544
47586,-10.5776,0.7733,9.8749,1543
47591,-11.0624,5.442,3.9744,1531
47596,9.748,6.5637,10.4375,1531
47601,11.4503,-5.1392,15.6772,1519
47606,-11.3533,0.0192,14.3473,1555
47611,-13.89,3.3327,4.6256,1541
47616,4.1132,6.7971,6.5829,1563
47621,15.1242,-0.6776,15.4199,1529
47626,-7.525,-3.0155,17.6165,1551
47631,-12.1135,1.142,6.0777,1533
47636,-2.0626,7.0665,3.7517,1531
47641,14.1988,3.3279,15.5563,1541
47646,0.2646,-5.7976,17.17,1527
47651,-11.728,0.4058,8.1343,1561
47656,-7.9595,6.1794,3.383,1531
47661,10.89,6.3386,12.8054,1545
47666,9.7576,-6.1639,15.5707,1518
47671,-10.999,0.5375,12.6713,1530
47676,-12.9742,4.0893,4.5406,1589
47681,6.9288,6.8019,7.7297,1529
47686,13.6637,-2.9066,15.615,1527
47691,-9.9802,-1.3539,16.6014,1541
47696,-14.3868,1.9585,5.3534,1546
47701,0.9936,6.8235,4.8028,1533
47706,14.7662,2.1225,15.5527,1561
47711,-2.7665,-5.1284,17.6955,1543
47716,-11.0169,0.7051,7.1599,1527
47721,-6.201,6.7026,3.4153,1532
47726,12.8748,5.3391,14.0611,1531
47731,5.5929,-6.4667,16.2602,1541
47736,-11.2444,0.4369,10.5273,1529
47741,-11.1271,5.1643,3.8642,1555
47746,8.43,6.7421,10.1634,1546
47751,12.9634,-4.4101,15.1924,1527
47756,-10.9116,-0.261,15.4426,1554
47761,-13.465,2.6516,5.1799,1529
47766,3.5075,6.9204,5.5366,1583
47771,14.5472,-0.1664,15.7622,1525
47776,-6.6607,-3.3124,17.6177,1555
47781,-13.3309,0.9445,6.3027,1543
47786,-2.812,6.7361,3.802,1560
47791,13.6541,4.4676,15.1828,1527
47796,2.6887,-6.4105,16.8097,1523
47801,-10.5872,0.6728,8.8897,1549
47806,-9.7468,5.8263,3.7014,1515
47811,10.7667,6.4572,11.6957,1543
47816,10.0509,-5.7245,15.615,1519
47821,-11.3138,0.2502,13.3345,1560
47826,-13.2507,3.7457,4.47,1514
47831,5.6096,6.8115,7.4891,1547
47836,14.5723,-1.7873,15.0488,1525
47841,-9.0716,-2.0686,17.4202,1547
47846,-12.7419,1.3048,5.946,1563
47851,-0.2155,6.9815,4.1396,1533
47856,14.3939,2.7174,15.4965,1551
47861,-1.8998,-5.2529,17.5854,1523
47866,-12.0093,0.3484,7.5381,1511
47871,-6.5637,6.3626,3.4285,1543
47876,11.8633,6.1854,13.5488,1527
47881,7.7488,-6.4584,15.8652,1549
47886,-10.7823,0.662,11.5987,1547
47891,-12.3972,4.64,4.2665,1549
47896,8.2229,6.8223,8.8957,1527
47901,12.803,-3.869,15.4175,1529
47906,-10.6841,-0.6225,15.9502,1529
47911,-14.1617,2.3727,5.1583,1527
47916,2.3427,6.7792,5.3319,1529
47921,14.783,0.9086,15.5467,1529
47926,-4.8423,-4.2282,17.6608,1545
47931,-11.4682,0.7661,6.7732,1549
47936,-4.5837,6.8666,3.4848,1553
47941,13.4279,4.5993,14.7196,1541
47946,3.5997,-6.3279,16.4661,1532
47951,-11.0504,0.4405,9.7085,1529
47956,-10.4351,5.6719,3.8164,1525
47961,9.839,6.5529,11.1737,1533
47966,11.2444,-5.1834,15.1888,1517
47971,-10.9487,0.164,14.443,1553
47976,-13.4614,3.1532,5.0386,1531
47981,5.1404,6.8331,6.4009,1598
47986,13.9833,-1.1839,15.3804,1531
47991,-7.8805,-2.4361,17.4178,1553
47996,-13.3369,1.1672,6.1699,1529
48001,-1.2785,6.7696,3.9768,1528
48006,14.0755,3.6129,15.2989,1544
48011,0.4381,-5.8035,17.0778,1542
48016,-10.5357,0.5148,8.3402,1553
48021,-8.5605,6.2752,3.5578,1529
48026,11.5604,6.0262,12.5743,1543
48031,8.3103,-5.855,15.7586,1520
48036,-11.242,0.3112,12.463,1528
48041,-12.6534,4.4185,4.2557,1533
48046,7.0844,6.6056,8.2959,1523
48051,14.03,-2.879,15.2199,1553
48056,-9.7755,-1.1396,16.7989,1532
48061,-13.1106,1.8543,5.5881,1547
48066,1.1349,6.8773,4.2641,1533
48071,14.376,1.385,16.1465,1543
48076,-3.6859,-4.4137,17.425,1530
48081,-13.0807,0.6967,7.1587,1553
48086,-5.2708,6.6068,3.4453,1546
48091,12.9251,5.284,14.364,1544
48096,6.1304,-6.6092,15.9609,1555
48101,-10.6398,0.9134,10.7847,1545
48106,-11.7986,5.2888,4.0414,1557
48111,9.3529,6.28,9.7492,1545
48116,11.625,-4.5933,15.597,1530
48121,-10.9451,-0.2538,14.9542,1544
48126,-13.8816,3.0754,4.9584,1526
48131,3.9014,6.6008,5.8646,1557
48136,15.014,-0.1688,15.7036,1518
48141,-6.3758,-3.1424,17.6776,1556
48146,-11.6801,1.0247,6.4488,1553
48151,-3.0562,6.9204,3.3878,1533
48156,13.7463,3.7182,15.4558,1529
48161,1.4808,-5.6443,16.9246,1525
48166,-12.6354,0.3867,8.679,1560
48171,-8.6107,5.9412,3.3423,1525
48176,10.9439,6.3925,12.1805,1547
48181,10.975,-5.9101,15.5707,1543
48186,-10.9307,0.8835,13.3584,1556
48191,-13.307,3.8559,4.5873,1541
48196,5.9604,6.4033,6.5266,1545
48201,14.0827,-2.302,16.6158,1527
48206,-9.7755,-1.3455,16.7187,1542
48211,-15.0021,2.1751,5.2553,1523
48216,0.3555,6.4009,4.4185,1543
48221,15.4965,2.6384,16.3201,1548
48226,-1.3396,-5.4803,17.674,1525
48231,-10.5704,1.1061,7.0916,1547
48236,-7.203,6.5242,2.9916,1541
48241,12.4211,4.9464,13.7236,1529
48246,6.5757,-6.3063,16.7031,1529
48251,-12.5049,0.3903,10.5381,1549
48256,-10.8529,5.0697,3.3423,1543
48261,7.2784,6.5457,9.9036,1543
48266,15.0164,-4.0809,15.4163,1529
48271,-10.9666,-0.644,16.2123,1547
48276,-13.4422,2.393,5.0099,1527
48281,2.6049,6.8809,4.4987,1532
48286,15.0751,0.1808,16.6577,1543
48291,-6.3243,-3.808,17.8548,1545
48296,-14.461,0.6249,6.2309,1547
48301,-3.5614,6.5948,3.4153,1542
48306,13.3405,5.1727,15.123,1530
48311,4.3922,-6.7253,16.5822,1542
48316,-10.2675,0.6548,9.5421,1547
48321,-10.7536,5.7377,3.7433,1527
48326,10.5417,6.3698,10.896,1553
48331,10.4591,-5.1846,15.8795,1516
48336,-11.0073,-0.0371,13.8433,1555
48341,-13.854,3.4848,4.5167,1527
48346,4.9763,6.7002,6.6667,1562
48351,14.7902,-1.1468,15.6246,1527
48356,-7.9823,-2.5247,17.4765,1547
48361,-12.4044,1.1983,6.0346,1555
48366,-1.4784,7.0461,3.711,1525
48371,14.2419,2.8503,15.9334,1556
48376,-0.4693,-5.3187,17.2215,1533
48381,-11.2994,0.5016,7.8913,1555
48386,-7.9248,6.4584,3.2537,1529
48391,11.4886,5.7712,13.3429,1526
48396,8.576,-6.037,15.7119,1524
48401,-11.1761,0.6728,11.9794,1549
48406,-12.6402,4.5633,4.2533,1549
48411,7.1587,6.3494,8.4695,1527
48416,13.6398,-3.1484,15.6928,1531
48421,-10.3777,-0.844,16.332,1542
48426,-13.8193,2.1117,5.1942,1547
48431,1.6771,6.7433,4.7764,1531
48436,14.8165,1.3539,16.1082,1524
48441,-4.2282,-4.4137,17.6979,1545
48446,-11.5281,0.7027,6.6607,1545
48451,-5.126,6.608,3.3339,1543
48456,12.949,5.053,14.7112,1529
48461,4.9093,-6.4344,16.5487,1543
48466,-10.9786,0.5375,9.8713,1543
48471,-10.7631,5.3714,3.6871,1555
48476,9.1794,6.614,10.7548,1527
48481,12.2392,-4.8818,15.3576,1527
48486,-11.2073,-0.0263,14.7698,1555
48491,-13.55,2.9916,4.8183,1532
48496,4.2964,6.8678,6.0322,1562
48501,14.6214,-0.6668,15.8077,1518
48506,-7.7931,-2.8096,17.7003,1559
48511,-13.3453,1.0726,5.9197,1548
48516,-1.8399,6.8175,3.8283,1527
48521,14.0073,3.8786,15.5132,1527
48526,1.148,-6.0011,17.2694,1545
48531,-10.6135,0.5243,8.1702,1560
48536,-8.7999,6.1423,3.3603,1543
48541,11.1977,6.0777,12.5061,1541
48546,9.3111,-5.8849,15.9681,1519
48551,-11.3557,0.3879,12.3684,1547
48556,-12.6941,4.2473,4.0079,1527
48561,6.213,6.5434,8.084,1546
48566,14.8776,-2.5151,15.5479,1531
48571,-9.9766,-1.4473,17.1293,1541
48576,-13.1681,1.7741,5.3989,1547
48581,0.7949,6.8283,3.9887,1531
48586,14.8093,1.9249,16.3572,1549
48591,-3.729,-4.6495,17.941,1533
48596,-13.7451,0.4214,6.8007,1526
48601,-5.0147,6.3458,3.2094,1524
48606,12.4211,6.0202,14.382,1531
48611,7.0234,-6.7696,16.4637,1549
48616,-10.5058,0.6249,10.5297,1527
48621,-11.9423,4.9201,3.8463,1558
48626,9.2584,6.8522,9.4559,1531
48631,12.1877,-4.6088,15.8568,1517
48636,-11.1989,-0.4465,15.1194,1532
48641,-14.4358,2.7617,4.6699,1529
48646,3.3459,6.7912,5.782,1548
48651,15.0332,0.4322,15.5515,1515
48656,-6.3829,-3.644,18.1792,1531
48661,-11.8298,0.7805,6.2453,1547
48666,-3.0466,6.9085,3.2645,1531
48671,13.8265,4.2916,15.2223,1542
48676,1.67,-5.9592,17.3089,1531
48681,-11.3473,0.073,8.6275,1555
48686,-9.1758,5.8694,3.3746,1520
48691,10.4651,6.669,12.0871,1559
48696,10.55,-5.6826,15.5539,1517
48701,-10.9547,0.1772,13.4638,1561
48706,-13.4985,3.6105,4.6436,1532
48711,6.2776,6.8666,6.9875,1547
48716,13.7691,-2.0039,15.5863,1519
48721,-9.3733,-1.8663,17.3089,1531
48726,-13.7104,1.3312,5.7054,1529
48731,0.0766,6.7924,4.1611,1553
48736,14.2718,2.9137,15.5851,1555
48741,-1.737,-5.3546,17.6692,1525
48746,-10.8469,0.346,7.4663,1549
48751,-7.203,6.456,3.3543,1564
48756,12.2655,5.8885,13.6254,1541
48761,6.8534,-6.1746,16.0854,1533
48766,-10.8386,0.2382,11.3509,1549
48771,-12.4391,4.8004,4.0785,1587
48776,8.4372,6.772,9.2368,1545
48781,12.7012,-3.699,15.1697,1543
48786,-10.4686,-0.7278,16.0412,1543
48791,-13.6422,2.2051,5.3534,1545
48796,3.0287,6.924,5.0721,1529
48801,14.2467,0.6871,15.67,1529
48806,-5.3283,-3.6356,17.8344,1547
48811,-12.1434,0.5519,6.6774,1541
48816,-3.808,6.7804,3.2944,1548
48821,13.4662,4.7621,14.9458,1530
48826,3.4477,-5.9915,16.6996,1544
48831,-10.4914,0.3496,9.3996,1546
48836,-10.4651,5.782,3.5566,1541
48841,10.2065,6.2261,11.139,1553
48846,10.7452,-4.9943,15.6006,1528
48851,-10.9583,0.0263,13.9211,1571
48856,-13.5057,3.5183,4.555,1531
48861,5.375,6.4584,6.59,1556
48866,14.5137,-1.1576,15.8819,1528
48871,-8.3977,-2.1548,17.5998,1571
48876,-12.7587,1.1983,5.7652,1531
48881,-0.7997,6.7648,3.4979,1499
48886,14.0863,3.1987,16.0795,1553
48891,-0.8691,-5.3211,17.5447,1557
48896,-12.6438,0.2526,7.6351,1553
48901,-6.8738,6.1292,3.1591,1523
48906,11.6418,6.2872,13.4267,1531
48911,9.0441,-6.3315,16.0352,1556
48916,-10.6159,0.6105,11.8669,1531
48921,-12.8305,4.3586,4.0917,1544
48926,7.6806,6.7133,7.8721,1533
48931,13.2423,-3.3136,16.0471,1543
48936,-10.72,-1.0127,16.1992,1527
48941,-14.6417,2.3224,4.9081,1541
48946,1.9022,6.5457,5.0314,1543
48951,15.3576,1.7861,15.8125,1533
48956,-4.1384,-4.6819,18.3336,1541
48961,-11.0504,0.5794,6.6295,1545
48966,-5.1415,6.6152,2.9939,1533
48971,13.4243,5.2433,14.5998,1533
48976,4.0103,-6.2668,17.0946,1525
48981,-11.9866,0.0132,9.5337,1527
48986,-10.1382,5.2241,3.3734,1549
48991,9.0273,7.009,10.8469,1529
48996,12.9012,-4.8076,15.3684,1520
49001,-10.9271,-0.1844,15.0523,1548
49006,-13.7559,2.7713,4.9524,1519
49011,4.6148,6.9683,5.5366,1557
49016,14.3496,-0.6859,16.0531,1523
49021,-8.0278,-2.7461,17.8787,1561
49026,-14.4095,0.9756,5.8969,1533
49031,-1.7717,6.6786,3.5686,1519
49036,14.1533,4.2892,15.5863,1544
49041,1.4473,-6.1495,17.3113,1527
49046,-10.2149,0.5351,8.2552,1555
49051,-9.1674,6.1124,3.2441,1545
49056,11.3425,6.128,12.2763,1546
49061,9.0022,-5.7856,16.0412,1541
49066,-11.2444,0.1808,12.3541,1544
49071,-12.9107,4.1755,3.9911,1520
49076,6.2716,6.6655,7.9691,1545
49081,14.6489,-2.3691,15.5515,1531
49086,-9.7731,-1.4593,17.1987,1543
49091,-13.0951,1.6029,5.4193,1541
49096,0.6201,6.918,4.0306,1509
49101,14.6226,1.962,16.3081,1555
49106,-3.2394,-4.6831,17.8248,1533
49111,-12.4953,0.4094,6.857,1544
49116,-5.6647,6.4931,3.1328,1516
49121,12.3325,5.7652,14.3892,1531
49126,6.8977,-6.5625,16.2878,1533
49131,-10.5728,0.6093,10.5177,1548
49136,-11.9471,5.0087,3.8894,1575
49141,8.6514,6.5649,9.4499,1524
49146,12.5959,-4.2808,15.8999,1523
49151,-11.1618,-0.4357,15.2295,1548
49156,-14.2802,2.7725,4.6603,1524
49161,2.9951,6.7684,5.6443,1544
49166,15.1996,0.4214,15.8388,1532
49171,-6.2788,-3.8283,18.0188,1544
49176,-11.8142,0.7973,6.1591,1578
49181,-3.6583,6.8342,3.3531,1547
49186,13.9067,4.3515,15.3875,1529
49191,2.3774,-6.347,17.0575,1531
49196,-10.9307,0.3496,8.734,1557
49201,-9.7516,5.7557,3.4369,1520
49206,10.1885,6.7217,11.8992,1553
49211,10.8374,-5.5534,15.4055,1519
49216,-11.2683,0.1437,13.6888,1567
49221,-13.4027,3.5063,4.6412,1531
49226,5.7305,6.9647,7.1335,1561
49231,14.1246,-1.6616,15.4043,1526
49236,-9.0477,-2.138,17.4801,1555
49241,-13.1418,1.172,5.7197,1589
49246,-0.3352,6.9492,3.96,1533
49251,14.218,3.0837,15.6617,1547
49256,-1.2067,-5.4121,17.6357,1564
49261,-10.9499,0.3496,7.5525,1560
49266,-7.3789,6.3674,3.371,1529
49271,11.9112,6.1112,13.4506,1529
49276,7.7776,-6.1938,15.9322,1542
49281,-10.9882,0.4094,11.5317,1516
49286,-12.3122,4.5334,4.0594,1509
49291,7.7632,6.7971,8.9591,1549
49296,13.3884,-3.4189,15.4234,1549
49301,-10.7595,-0.7183,16.2746,1528
49306,-13.7906,2.1249,5.1607,1533
49311,2.2877,6.7924,4.974,1541
49316,14.795,1.2246,15.9202,1545
49321,-5.1092,-4.0701,18.0595,1553
49326,-11.8681,0.5219,6.4883,1545
49331,-4.2629,6.5888,3.2681,1547
49336,13.1657,5.2385,14.8764,1533
49341,4.1527,-6.4667,16.8217,1559
49346,-10.8565,0.3424,9.3601,1533
49351,-10.1682,5.3451,3.5446,1541
49356,9.4056,6.8175,10.9619,1532
49361,11.9207,-5.0709,15.5216,1524
49366,-11.1989,0.0503,14.3975,1541
49371,-13.556,3.0287,4.7321,1526
49376,4.7788,6.9097,6.3003,1561
49381,14.6202,-0.9062,15.5994,1525
49386,-8.5222,-2.5582,17.905,1557
49391,-13.957,1.0295,5.7664,1547
49396,-1.1827,6.6499,3.8666,1548
49401,14.1713,4.0067,15.4139,1541
49406,0.3687,-6.0549,17.7746,1527
49411,-10.4675,0.3735,7.8398,1559
49416,-8.3917,6.0681,3.292,1523
49421,11.6993,6.4655,12.6522,1549
49426,8.5234,-6.1495,16.101,1529
49431,-11.2767,0.2394,12.0129,1551
49436,-12.4965,4.2389,4.0043,1531
49441,6.6631,6.8797,8.43,1543
49446,14.3748,-2.7414,15.2906,1527
49451,-10.1251,-1.3228,16.9785,1533
49456,-13.2974,1.7454,5.4097,1554
49461,1.4605,6.9504,4.2964,1542
49466,14.7052,1.6891,16.01,1543
49471,-4.2701,-4.3527,18.0535,1545
49476,-13.2375,0.407,6.7241,1495
49481,-4.7609,6.456,3.2417,1532
49486,12.6665,5.8251,14.5388,1516
49491,6.1184,-6.5649,16.5152,1557
49496,-10.4447,0.498,10.0197,1529
49501,-11.412,5.1164,3.7745,1543
49506,9.3326,6.7935,9.9575,1530
49511,12.0404,-4.7226,15.8544,1517
49516,-11.3318,-0.2562,14.8584,1531
49521,-14.3054,2.9844,4.4484,1525
49526,3.7769,6.7516,6.1675,1545
49531,15.4845,0.0108,15.4929,1523
49536,-7.1754,-3.3567,18.3779,1557
49541,-12.1314,0.8487,5.9508,1543
49546,-2.4505,6.8342,3.3555,1524
49551,14.2371,4.1324,15.5731,1525
49556,0.7506,-5.9328,17.6824,1529
49561,-12.3265,0.1341,8.005,1547
49566,-7.7752,5.8119,3.0634,1543
49571,10.3394,6.8115,12.6043,1531
49576,11.0397,-6.0549,15.7455,1525
49581,-10.9714,0.4226,12.9323,1571
49586,-13.2184,3.7972,4.3467,1525
49591,6.6212,7.021,7.1108,1541
49596,14.267,-2.6552,16.0735,1527
49601,-10.3154,-1.403,17.0611,1544
49606,-15.5168,1.8208,5.0266,1523
49611,0.6081,6.6714,4.5011,1532
49616,15.1242,2.9389,15.7742,1549
49621,-2.3703,-5.4372,18.3288,1541
49626,-10.7512,0.5303,6.8917,1605
49631,-6.4057,6.444,3.1065,1541
49636,12.9179,5.9137,13.8469,1533
49641,5.9376,-6.5446,16.9138,1542
49646,-11.6514,0.0982,10.1071,1542
49651,-10.6362,4.7752,3.3734,1543
49656,7.6231,7.1934,10.1263,1527
49661,14.4718,-4.1922,15.2894,1531
49666,-11.1223,-0.6333,15.9825,1519
49671,-13.6398,2.3882,4.938,1527
49676,3.3651,7.0545,4.8698,1544
49681,15.111,0.3029,16.1692,1523
49686,-7.5286,-3.4105,18.5,1555
49691,-15.4558,0.6452,5.8646,1529
49696,-2.3774,6.4512,3.535,1549
49701,13.6481,5.4923,15.202,1523
49706,3.6739,-6.8833,17.492,1545
49711,-10.1299,0.4106,8.5401,1549
49716,-9.9347,5.6647,3.3686,1525
49721,10.8936,6.8594,11.2444,1545
49726,10.3693,-5.788,16.3572,1533
49731,-11.5389,0.0383,13.0831,1563
49736,-13.8026,3.6835,3.9181,1533
49741,4.9548,7.0425,7.586,1557
49746,15.7263,-1.4473,15.3827,1519
49751,-9.2799,-2.4193,18.0451,1549
49756,-12.7479,1.1803,5.5234,1547
49761,-0.431,7.0629,3.723,1520
49766,14.8357,2.9269,15.9334,1545
49771,-2.4313,-5.4265,18.3372,1533
49776,-12.6845,0.0503,7.021,1561
49781,-6.0753,6.0202,3.0442,1530
49786,11.3485,6.8199,13.8648,1533
49791,8.7783,-6.7325,16.0938,1527
49796,-10.7835,0.4082,11.2527,1549
49801,-12.3661,4.4257,4.0881,1533
49806,8.1343,7.1311,8.5066,1527
49811,13.5236,-3.8714,15.8029,1544
49816,-11.3521,-0.656,16.2099,1525
49821,-15.129,2.2577,4.7884,1541
49826,2.326,6.7816,5.1751,1529
49831,15.3708,1.6269,15.603,1541
49836,-5.4612,-4.5215,18.7047,1547
49841,-11.5975,0.486,6.3255,1541
49846,-4.2581,6.6655,3.3339,1577
49851,13.5009,5.363,14.7124,1523
49856,3.5207,-6.6355,17.4477,1557
49861,-11.5065,0.0227,8.8645,1545
49866,-9.2596,5.2134,3.1867,1555
49871,9.0405,7.4041,11.4287,1520
49876,12.8605,-5.3079,15.372,1529
49881,-11.3114,-0.0862,14.5232,1549
49886,-13.556,2.8982,4.6831,1532
49891,5.035,7.3155,6.2153,1559
49896,14.8848,-1.136,15.5503,1528
49901,-9.3398,-2.5367,18.1696,1561
49906,-14.9075,1.0247,5.4779,1531
49911,-0.7901,6.6679,4.0007,1533
49916,14.2371,4.3479,15.3373,1546
49921,0.2478,-6.262,18.1277,1543
49926,-10.4184,0.2741,7.5836,1545
49931,-8.0876,6.043,3.3459,1525
49936,11.9064,6.7193,12.7084,1548
49941,8.424,-6.4153,16.3763,1527
49946,-11.2887,0.2682,11.6825,1542
49951,-12.5983,4.1863,3.7601,1545
49956,6.5577,7.2784,8.8358,1541
49961,14.7734,-3.0299,15.1326,1518
49966,-10.7548,-1.3132,17.0503,1544
49971,-13.2723,1.6628,5.1966,1531
49976,1.5754,7.0689,4.5215,1543
49981,15.0511,1.6855,15.7981,1557
49986,-5.1475,-4.4796,18.6305,1550
49991,-12.8772,0.2753,6.3961,1555
49996,-4.2856,6.2848,3.2465,1541
50001,12.6318,6.195,14.5675,1545
50006,5.6994,-6.9839,16.8384,1532
50011,-10.6446,0.4106,9.6414,1529
50016,-10.9511,5.0254,3.7745,1543
50021,9.4786,7.3275,10.3465,1529
50026,12.226,-5.0685,15.6689,1519
50031,-11.552,-0.1748,14.607,1527
50036,-14.3999,2.9676,4.4209,1528
50041,4.0534,7.1431,6.4835,1549
50046,15.4163,-0.1269,15.0763,1541
50051,-8.084,-3.2609,18.6065,1555
50056,-12.287,0.747,5.855,1547
50061,-2.0375,6.8773,3.6009,1545
50066,14.2778,4.3814,15.2092,1532
50071,0.1664,-6.1603,18.0487,1523
50076,-11.6837,-0.0994,7.6818,1549
50081,-7.5322,5.679,3.2334,1529
50086,10.4842,7.3873,12.7671,1544
50091,10.5369,-6.3434,15.7203,1543
50096,-11.0947,0.2095,12.6019,1563
50101,-12.9574,3.7014,4.4197,1525
50106,6.8378,7.5022,7.744,1543
50111,14.3077,-2.806,15.2714,1531
50116,-10.8206,-1.4377,17.2514,1522
50121,-15.0021,1.6388,5.12,1547
50126,1.075,6.8283,4.7118,1525
50131,14.8608,2.9149,15.1397,1553
50136,-3.2214,-5.3654,18.8088,1523
50141,-10.9427,0.2191,6.8103,1553
50146,-5.8694,6.3722,3.2884,1531
50151,12.9323,6.3722,13.799,1543
50156,5.7808,-6.7145,16.9246,1545
50161,-11.2204,0.0335,10.0868,1542
50166,-10.8242,4.7297,3.5195,1555
50171,7.999,7.6076,10.3585,1543
50176,13.8684,-4.3479,15.0332,1528
50181,-11.2695,-0.6141,15.7862,1545
50186,-13.5703,2.2158,4.9799,1529
50191,3.5458,7.2077,5.3702,1528
50196,14.9877,0.2753,15.5144,1523
50201,-7.7009,-3.4884,18.5622,1547
50206,-14.1461,0.5866,6.0226,1531
50211,-2.2865,6.4859,3.6787,1557
50216,13.5344,5.4588,14.8608,1517
50221,2.8371,-6.7624,17.6369,1527
50226,-10.4112,0.2274,8.4288,1529
50231,-9.5433,5.5929,3.6045,1529
50236,10.8733,7.3251,11.6334,1531
50241,10.2256,-6.0118,15.9729,1525
50246,-11.4168,0.0622,13.0927,1553
50251,-13.5775,3.6547,4.148,1526
50256,5.4025,7.2556,7.6602,1563
50261,15.1302,-1.6939,14.9494,1528
50266,-9.645,-2.2075,17.8907,1553
50271,-11.3689,0.4082,6.5302,1541
50276,-0.2011,7.0557,4.0426,1531
50281,13.3944,5.5749,14.3317,1558
50286,-2.5007,-5.3989,18.3204,1529
50291,-11.0971,0.2023,9.396,1545
50296,-6.2261,6.1268,3.292,1529
50301,8.9711,7.3921,10.9834,1541
50306,7.8877,-6.7265,16.2291,1529
50311,-11.4479,-0.1448,14.7567,1557
50316,-12.0213,4.4748,4.1527,1543
50321,4.4772,7.2401,6.2908,1529
50326,13.3608,-3.9612,15.2954,1529
50331,-8.5258,-2.8419,18.1445,1529
50336,-14.1306,2.2182,5.0135,1529
50341,-1.4102,6.7193,3.8942,1543
50346,14.9805,1.0403,15.1792,1531
50351,0.5854,-6.2956,17.747,1555
50356,-11.8525,0.4549,6.3506,1542
50361,-8.2744,5.9484,3.5291,1523
50366,13.4111,5.2924,14.6477,1516
50371,9.2009,-6.2321,15.9238,1557
50376,-11.1175,0.1137,9.0022,1551
50381,-12.6845,4.0091,4.1994,1547
50386,9.7384,7.3358,11.5113,1523
50391,14.3915,-2.739,14.8369,1517
50396,-11.406,0.0299,14.0875,1561
50401,-13.2519,1.5179,5.4193,1532
50406,5.3594,7.2676,6.851,1562
50411,14.7004,2.1165,15.196,1523
50416,-9.3613,-2.2637,18.0331,1559
50421,-12.4427,0.1903,6.8031,1541
50426,-4.5801,6.3291,3.3531,1531
50431,12.4463,6.2572,14.0611,1547
50436,5.9687,-6.778,16.7474,1527
50441,-10.5728,0.2777,9.9898,1549
50446,-10.987,4.9117,3.8307,1532
50451,9.1925,7.3382,10.0975,1555
50456,12.3098,-4.7597,15.4665,1519
50461,-11.4359,-0.267,14.9781,1549
50466,-14.3963,2.8802,4.5622,1531
50471,3.8942,7.021,6.3554,1543
50476,15.5623,0.1544,15.02,1528
50481,-7.7596,-3.2908,18.7681,1525
50486,-12.2164,0.7219,5.958,1543
50491,-2.296,6.7864,3.3651,1541
50496,14.3018,4.6316,15.1948,1553
50501,0.4226,-6.1842,18.0786,1525
50506,-12.6653,-0.1137,7.8266,1541
50511,-7.1646,5.5354,3.0718,1545
50516,10.2627,7.452,12.7587,1516
50521,11.4,-6.3207,15.7934,1543
50526,-11.0433,0.3029,12.8186,1533
50531,-13.1166,3.6667,4.288,1561
50536,6.7098,7.3346,7.1539,1555
50541,14.5424,-2.6719,15.8077,1527
50546,-10.8673,-1.4162,17.2682,1553
50551,-16.01,1.804,4.8961,1533
50556,0.8775,6.5517,4.7537,1553
50561,15.3923,3.3112,15.3205,1525
50566,-2.5774,-5.7425,18.8711,1559
50571,-10.7536,0.3831,6.7924,1551
50576,-6.1495,6.2584,3.1196,1541
50581,13.1178,6.4476,13.6266,1544
50586,5.6647,-6.7373,17.2885,1529
50591,-12.2846,-0.2634,10.0712,1562
50596,-10.0628,4.604,3.2382,1517
50601,7.5549,7.7452,10.41,1543
50606,14.8213,-4.2437,14.8836,1527
50611,-11.1773,-0.8906,16.253,1553
50616,-13.6051,2.1249,5.0685,1541
50621,3.5901,7.3047,4.9404,1531
50626,15.1038,0.4058,15.5623,1548
50631,-7.7488,-3.5542,18.7765,1571
50636,-15.4222,0.407,5.9735,1531
50641,-2.2015,6.4021,3.6093,1519
50646,13.5141,5.9173,14.7243,1557
50651,3.3435,-6.8151,17.6405,1541
50656,-10.082,0.1245,8.6981,1547
50661,-9.7372,5.4995,3.5985,1529
50666,11.1666,7.3574,11.303,1531
50671,9.9599,-5.8921,16.0447,1549
50676,-11.3258,-0.1748,13.113,1541
50681,-13.7703,3.4967,4.1108,1533
50686,5.3223,7.3729,7.744,1527
50691,15.1744,-1.5287,14.7267,1515
50696,-9.5181,-2.3284,18.1325,1527
50701,-12.8042,0.9553,5.6958,1541
50706,0.018,7.0294,4.0546,1529
50711,14.6262,3.1184,15.1529,1544
50716,-2.7928,-5.2577,18.5132,1555
50721,-12.2032,-0.1784,7.1491,1547
50726,-5.7604,5.9292,3.1699,1547
50731,11.6023,7.1347,13.5943,1533
50736,7.8757,-6.6942,16.2267,1533
50741,-10.5692,0.0706,11.145,1554
50746,-11.9973,4.3311,4.2306,1530
50751,8.4994,7.616,9.1363,1541
50756,13.0029,-3.8714,15.1385,1511
50761,-11.1606,-0.7386,16.1106,1557
50766,-14.8871,2.1548,4.9787,1525
50771,2.8695,7.0006,5.5761,1529
50776,15.1002,1.482,14.8045,1525
50781,-6.122,-4.1037,19.0555,1541
50786,-11.6789,0.2909,6.3829,1533
50791,-3.5757,6.5757,3.3124,1531
50796,13.5775,5.5462,14.6058,1557
50801,2.5307,-6.3578,17.686,1531
50806,-12.1194,-0.2933,8.6562,1556
50811,-8.2576,5.1727,3.1639,1511
50816,9.3649,7.7297,11.7627,1525
50821,12.6569,-5.5162,15.3337,1541
50826,-11.0792,-0.1532,14.2048,1547
50831,-13.4734,2.976,4.6567,1549
50836,5.6838,7.3059,6.2441,1531
50841,14.6705,-1.3874,15.5408,1531
50846,-9.991,-2.1787,18.0726,1533
50851,-16.3009,1.1708,5.3582,1527
50856,-0.067,6.5278,4.3886,1529
50861,14.7447,4.4377,14.9255,1530
50866,-0.3926,-6.2764,18.6664,1551
50871,-10.3298,0.1856,7.4304,1528
50876,-7.4316,6.0082,3.2214,1544
50881,12.6043,7.0018,12.7838,1527
50886,7.1539,-6.4979,16.7822,1531
50891,-11.5891,-0.2191,11.1067,1530
50896,-11.546,4.1767,3.5279,1531
50901,6.8031,7.604,9.3733,1559
50906,15.044,-3.1699,14.7531,1519
50911,-10.6566,-1.2893,17.0707,1555
50916,-13.4782,1.8531,5.3379,1531
50921,2.4481,7.1898,4.3898,1564
50926,15.093,1.2653,15.8652,1533
50931,-6.2788,-4.0031,18.7131,1549
50936,-15.1888,0.3436,6.213,1547
50941,-3.3088,6.3051,3.2813,1529
50946,12.9059,6.201,14.8249,1549
50951,5.4815,-7.0425,17.0096,1523
50956,-10.2759,0.425,9.3948,1553
50961,-10.7571,5.3271,3.6476,1529
50966,10.1885,7.1275,10.5548,1527
50971,11.4718,-5.5019,16.1154,1527
50976,-11.6873,-0.0622,13.86,1549
50981,-14.5939,3.4225,4.0211,1549
50986,4.1432,7.0868,7.0449,1529
50991,15.9502,-0.5926,15.2942,1526
50996,-8.4443,-3.0382,18.4222,1527
51001,-12.3493,1.069,5.6575,1524
51006,-1.5071,6.9935,3.5937,1525
51011,14.7016,3.5698,15.6425,1543
51016,-1.0367,-5.8407,18.2055,1547
51021,-12.6318,0.0108,7.3334,1553
51026,-6.669,5.8395,3.0239,1553
51031,10.6829,7.1275,13.3596,1544
51036,10.2675,-6.5769,15.9478,1551
51041,-10.9307,0.346,11.995,1531
51046,-12.6881,4.0522,4.2737,1533
51051,7.3694,7.4017,7.9691,1516
51056,14.0288,-3.3651,15.676,1517
51061,-11.1031,-1.1768,16.6205,1554
51066,-15.5587,2.0075,4.9021,1526
51071,1.6496,6.8989,5.0961,1571
51076,15.2786,2.3272,15.3277,1541
51081,-4.1946,-5.0973,18.7753,1559
51086,-11.1989,0.3651,6.4332,1541
51091,-5.0853,6.6283,3.2034,1543
51096,13.295,5.8454,14.2826,1543
51101,4.5382,-6.7481,17.3017,1531
51106,-11.6705,-0.0611,9.3757,1560
51111,-9.76,5.0075,3.2274,1529
51116,8.345,7.6638,11.0433,1541
51121,13.8265,-5.023,15.093,1547
51126,-11.4934,-0.34,15.1565,1557
51131,-13.4506,2.5642,4.8363,1544
51136,4.294,7.3993,5.8191,1523
51141,15.2247,-0.5734,15.5108,1519
51146,-8.8609,-2.9341,18.5012,1533
51151,-15.3025,0.7518,5.6312,1531
51156,-1.1229,6.4739,3.9768,1533
51161,14.0815,5.1703,14.8381,1551
51166,1.5371,-6.7888,18.1899,1527
51171,-10.3334,0.0946,7.9128,1541
51176,-8.6682,5.6922,3.4907,1531
51181,11.5831,7.3861,12.1482,1529
51186,9.1482,-6.3207,16.3979,1548
51191,-11.5484,-0.1401,12.1147,1529
51196,-12.7563,3.8702,3.7457,1561
51201,5.9759,7.6363,8.6191,1525
51206,15.5767,-2.2913,14.5831,1531
51211,-10.4303,-1.9285,17.9445,1543
51216,-13.1801,1.3048,5.4791,1525
51221,0.9852,7.2137,4.13,1551
51226,15.0392,2.4002,15.4402,1528
51231,-4.4939,-4.9177,18.9238,1560
51236,-13.6446,-0.0383,6.6056,1531
51241,-4.5298,6.0956,3.134,1532
51246,12.0225,6.9145,14.212,1523
51251,7.2065,-6.9994,16.7881,1525
51256,-10.3753,0.2682,10.2077,1551
51261,-11.546,4.7824,3.8571,1531
51266,9.2201,7.5597,9.6414,1553
51271,12.7012,-4.78,15.682,1519
51276,-11.6011,-0.4741,15.1409,1553
51281,-14.9793,2.8204,4.4436,1531
51286,3.3615,7.1287,6.2237,1541
51291,15.5156,0.4932,15.1517,1515
51296,-7.3023,-3.8128,18.8328,1527
51301,-12.0728,0.6823,5.8646,1543
51306,-2.6863,6.918,3.4429,1530
51311,14.0133,4.6196,15.0835,1551
51316,1.1564,-6.3949,18.0212,1528
51321,-11.7902,-0.0491,8.011,1553
51326,-7.859,5.6096,3.1328,1515
51331,9.8821,7.4591,12.6115,1529
51336,11.5065,-6.2022,15.6126,1533
51341,-11.2767,0.1185,13.0352,1517
51346,-12.9658,3.5877,4.4173,1553
51351,6.3279,7.5369,7.3406,1544
51356,14.625,-2.46,15.4522,1523
51361,-10.5668,-1.6747,17.5878,1546
51366,-15.2379,1.5012,5.1451,1541
51371,0.8092,6.8163,4.5298,1547
51376,14.8189,3.3172,15.2858,1529
51381,-2.5654,-5.6312,18.8926,1554
51386,-10.8793,0.1963,6.7002,1549
51391,-6.0478,6.3794,3.1065,1543
51396,12.4534,6.5589,13.7774,1541
51401,6.3901,-6.7552,17.1197,1528
51406,-11.9602,-0.1712,10.0437,1543
51411,-10.1335,4.7226,3.1556,1532
51416,7.4232,7.8015,10.3825,1531
51421,14.9626,-4.276,15.0081,1529
51426,-11.4048,-0.7937,16.2866,1566
51431,-13.5644,2.1069,4.9177,1557
51436,3.2836,7.349,4.9763,1532
51441,15.2319,0.6704,15.6724,1588
51446,-7.8781,-3.6751,19.0136,1531
51451,-15.6401,0.3615,5.7593,1547
51456,-1.7717,6.1196,3.7781,1523
51461,13.4901,6.4596,14.5113,1559
51466,3.7876,-7.3849,18.0511,1527
51471,-10.0102,0.0838,8.5425,1561
51476,-9.6391,5.1415,3.4788,1531
51481,10.92,7.9895,11.0109,1523
51486,10.3968,-5.8514,16.0675,1531
51491,-11.8681,-0.5878,13.222,1542
51496,-13.2004,3.3591,3.7972,1543
51501,5.0422,7.7129,8.0337,1541
51506,15.9921,-0.9948,14.0983,1545
51511,-9.596,-2.7964,19.0459,1547
51516,-12.8593,0.8116,5.7269,1527
51521,-0.103,7.0785,3.5925,1525
51526,14.7686,3.8164,14.9937,1544
51531,-2.9365,-5.4408,19.0806,1547
51536,-14.0528,-0.5339,7.0725,1545
51541,-5.1727,5.5917,3.0789,1549
51546,11.1175,7.9308,13.5452,1519
51551,9.4355,-6.8594,16.1788,1531
51556,-10.3741,-0.1185,11.4563,1529
51561,-12.3756,4.0318,4.1635,1529
51566,8.406,7.9452,8.4659,1547
51571,13.3441,-3.7625,15.3325,1518
51576,-11.5197,-1.0762,16.4757,1563
51581,-16.0423,2.065,4.6855,1530
51586,2.46,7.167,5.7808,1557
51591,15.4318,2.1859,14.3568,1531
51596,-5.3056,-4.8447,19.4637,1555
51601,-11.3665,0.0706,6.4201,1543
51606,-4.1132,6.5984,3.3315,1544
51611,13.7044,6.1723,14.0468,1549
51616,2.9389,-6.6176,17.8703,1530
51621,-11.6945,-0.5351,8.9076,1543
51626,-8.9148,4.8638,3.207,1525
51631,8.8119,8.3653,11.5532,1528
51636,13.113,-5.2924,14.9302,1530
51641,-11.1103,-0.4884,14.7555,1549
51646,-13.5584,2.6612,4.9632,1531
51651,5.3463,7.7656,6.2249,1544
51656,14.6238,-1.0355,14.9638,1531
51661,-9.5349,-2.6109,18.5347,1527
51666,-15.3385,0.6764,5.6216,1547
51671,-0.6955,6.6954,4.1156,1543
51676,13.9019,4.8147,14.625,1531
51681,0.249,-6.4715,18.3863,1527
51686,-10.2927,-0.1233,7.7417,1549
51691,-8.0445,5.9053,3.5207,1523
51696,12.0261,7.4041,12.5576,1523
51701,8.3318,-6.4871,16.2566,1554
51706,-11.0852,-0.1496,11.6861,1543
51711,-12.7096,3.9349,3.9983,1560
51716,6.8702,8.0673,8.9495,1527
51721,14.303,-2.9509,14.3951,1519
51726,-10.8194,-1.585,17.2825,1553
51731,-13.283,1.3084,5.4312,1544
51736,1.8447,7.3801,4.8997,1557
51741,14.4382,1.9656,14.6729,1532
51746,-5.1583,-4.5981,18.9836,1557
51751,-12.2954,-0.1688,6.6427,1546
51756,-4.148,6.3662,3.4285,1533
51761,12.4391,6.5757,14.0743,1547
51766,5.2637,-6.79,16.9785,1528
51771,-10.4722,-0.152,9.7085,1550
51776,-10.6159,4.8806,3.9552,1543
51781,9.4344,7.8877,10.6243,1543
51786,12.0476,-4.9225,15.0511,1523
51791,-11.3605,-0.4896,14.8656,1543
51796,-14.1294,2.569,4.774,1531
51801,4.5059,7.5226,6.675,1548
51806,14.8201,-0.073,14.291,1525
51811,-8.3426,-3.1939,18.907,1565
51816,-12.5025,0.3879,6.1088,1545
51821,-1.6029,6.8869,3.7565,1531
51826,13.8445,4.7824,14.5532,1548
51831,0.1173,-6.1687,18.184,1525
51836,-11.4299,-0.4298,7.9703,1548
51841,-7.3765,5.5917,3.3279,1527
51846,10.5943,7.7955,12.5755,1531
51851,10.0628,-6.2273,15.6222,1553
51856,-10.7943,-0.091,12.572,1531
51861,-12.8365,3.5793,4.5119,1553
51866,7.1,7.8434,7.9104,1529
51871,13.9091,-2.5941,14.8405,1533
51876,-10.6985,-1.4952,17.4825,1547
51881,-15.0547,1.4353,5.2553,1541
51886,1.3587,7.0138,4.7872,1559
51891,14.5927,3.0335,14.8213,1529
51896,-3.4477,-5.2409,19.0842,1561
51901,-11.0648,-0.0682,6.7684,1543
51906,-5.4767,6.3961,3.2549,1541
51911,12.7288,6.5984,13.854,1529
51916,5.5629,-6.7493,17.115,1529
51921,-11.5017,-0.2526,9.7983,1547
51926,-9.9766,4.7238,3.3543,1529
51931,7.9799,7.9511,10.6745,1549
51936,14.1773,-4.5298,14.8728,1529
51941,-11.2755,-0.68,15.7131,1563
51946,-13.5536,2.1811,4.9883,1531
51951,3.9468,7.4053,5.4013,1531
51956,14.8967,0.3053,15.2175,1525
51961,-8.57,-3.2166,18.9513,1531
51966,-15.7826,0.4621,5.7018,1551
51971,-1.1025,6.207,3.9492,1541
51976,13.7092,6.177,14.4777,1554
51981,2.7078,-7.1323,18.518,1543
51986,-9.9335,-0.067,8.0816,1557
51991,-8.8777,5.2888,3.2968,1533
51996,11.0337,8.0002,11.4311,1524
52001,9.7229,-5.9604,16.4158,1540
52006,-12.396,-0.8535,12.6713,1545
52011,-12.062,3.6464,3.5829,1548
52016,5.4097,7.8111,8.5545,1525
52021,16.089,-1.5706,14.1653,1523
52026,-10.2723,-2.5618,18.8795,1529
52031,-13.2387,0.9996,5.4983,1553
52036,0.3891,7.0797,3.6356,1543
52041,14.7555,3.5171,15.2475,1530
52046,-3.7074,-5.3175,19.18,1557
52051,-14.8297,-0.5375,6.9109,1532
52056,-4.549,5.7257,3.2609,1541
52061,11.4874,7.8362,13.7128,1525
52066,8.8131,-7.2233,16.429,1545
52071,-10.3944,-0.0898,11.0193,1541
52076,-12.2236,4.1539,4.1288,1531
52081,8.8992,8.1343,8.8957,1547
52086,12.8856,-4.2198,15.3217,1523
52091,-11.4144,-1.0044,16.0579,1553
52096,-15.8041,2.0135,4.7944,1519
52101,2.7988,7.4292,5.9843,1559
52106,15.032,1.6113,14.1449,1529
52111,-5.7569,-4.5059,19.1847,1547
52116,-11.497,-0.0144,6.5182,1551
52121,-3.7577,6.7852,3.6296,1543
52126,13.7619,5.709,14.0109,1550
52131,2.484,-6.4991,17.7626,1531
52136,-10.8565,-0.4537,8.8969,1549
52141,-9.341,5.1008,3.48,1528
52146,9.5181,8.2025,11.5987,1543
52151,11.746,-5.3498,15.0224,1517
52156,-11.0792,-0.3843,14.2108,1545
52161,-13.3836,2.8323,4.9165,1547
52166,5.5893,7.689,6.875,1525
52171,14.279,-1.1061,14.4718,1531
52176,-9.566,-2.3786,18.4042,1543
52181,-14.4897,0.6548,5.6958,1544
52186,-0.1353,6.8307,4.3024,1531
52191,13.9151,4.3826,14.4849,1543
52196,-0.7027,-6.0537,18.5718,1547
52201,-10.5213,-0.2622,7.4484,1549
52206,-7.2736,5.9149,3.4848,1545
52211,11.7555,7.4436,12.8365,1525
52216,8.0756,-6.438,16.3368,1548
52221,-11.163,-0.2574,11.3545,1542
52226,-11.8238,4.039,3.7493,1547
52231,6.9887,8.0529,9.4403,1541
52236,14.7411,-3.0897,14.3113,1519
52241,-10.9475,-1.4617,17.3149,1557
52246,-13.5512,1.4401,5.3618,1533
52251,2.3152,7.4244,4.7585,1551
52256,14.7303,1.8016,14.8692,1525
52261,-6.0274,-4.361,19.2159,1555
52266,-14.3269,-0.1496,6.3662,1531
52271,-3.2094,6.1746,3.4788,1527
52276,12.457,6.7708,14.1581,1545
52281,5.7126,-7.1048,17.194,1527
52286,-10.0233,-0.1341,9.4679,1555
52291,-10.7129,4.7896,3.7888,1525
52296,10.0844,8.1582,10.4136,1548
52301,11.5867,-5.2768,15.4282,1519
52306,-11.4802,-0.5243,14.54,1543
52311,-14.6968,2.7533,4.4065,1530
52316,4.3132,7.7261,7.0258,1530
52321,15.3277,-0.0611,14.0839,1530
52326,-8.2109,-3.3172,19.1333,1543
52331,-12.293,0.3244,6.025,1553
52336,-1.5538,7.0162,3.6703,1531
52341,14.2395,4.604,14.5699,1559
52346,-0.5614,-6.0406,18.5515,1531
52351,-11.8298,-0.5567,7.768,1545
52356,-7.1946,5.5103,3.2226,1519
52361,10.483,8.0122,12.8557,1528
52366,10.1981,-6.3398,15.6329,1532
52371,-10.6841,-0.17,12.548,1543
52376,-12.961,3.6093,4.5394,1555
52381,7.4041,8.0074,7.9978,1544
52386,13.8205,-2.8898,14.8429,1527
52391,-10.8314,-1.4533,17.3316,1497
52396,-14.7998,1.421,5.2792,1541
52401,1.3815,7.1275,4.8243,1531
52406,14.4035,2.7845,14.7854,1543
52411,-3.7338,-5.2074,18.8519,1549
52416,-11.133,-0.0742,6.7481,1547
52421,-5.3882,6.4584,3.4608,1531
52426,12.6546,6.4727,13.8924,1527
52431,5.545,-6.8043,16.9294,1526
52436,-11.0073,-0.1712,9.8474,1545
52441,-10.6662,4.7728,3.5877,1544
52446,8.5198,8.0565,10.7009,1543
52451,13.3022,-4.701,14.7459,1527
52456,-11.4431,-0.6069,15.5623,1559
52461,-13.5141,2.1871,4.9752,1528
52466,4.0953,7.5417,5.9628,1545
52471,14.7255,0.103,14.7375,1517
52476,-8.3007,-3.2741,19.0902,1530
52481,-14.5388,0.2777,5.8466,1541
52486,-1.3156,6.4871,3.8487,1531
52491,13.3968,5.6288,14.5125,1545
52496,2.0578,-6.6607,18.2714,1522
52501,-10.1873,-0.2861,8.0074,1562
52506,-8.7628,5.4265,3.3866,1527
52511,11.0026,7.9954,11.9806,1543
52516,9.8725,-6.2189,15.9382,1532
52521,-11.57,-0.419,12.6186,1528
52526,-12.9419,3.4608,3.8415,1549
52531,5.7413,8.0541,8.4862,1545
52536,15.3528,-1.8926,14.0133,1544
52541,-10.2412,-2.2302,18.4581,1553
52546,-13.0831,0.8272,5.6683,1531
52551,0.6213,7.3107,4.2473,1531
52556,14.6573,3.061,14.6836,1546
52561,-3.7745,-5.2948,19.1057,1555
52566,-12.7156,-0.4741,6.9384,1543
52571,-5.1427,5.8395,3.2729,1549
52576,11.6107,7.6602,13.6194,1528
52581,7.671,-6.8785,16.4769,1541
52586,-10.2388,-0.1628,10.817,1533
52591,-11.9483,4.2377,4.2078,1532
52596,8.9974,8.2815,9.4008,1532
52601,12.7994,-4.2808,14.9219,1527
52606,-11.4251,-0.7542,16.0124,1555
52611,-14.7387,2.0423,4.9177,1542
52616,3.128,7.4603,5.7748,1558
52621,14.7184,1.1552,14.4346,1525
52626,-6.6044,-4.1084,19.1213,1549
52631,-11.8573,0.1065,6.3063,1525
52636,-3.4046,6.8079,3.6045,1533
52641,13.4063,5.5342,14.358,1551
52646,2.6312,-6.6092,17.6285,1525
52651,-10.884,-0.2107,8.6742,1549
52656,-9.3637,5.3187,3.5793,1525
52661,9.9024,7.993,11.801,1541
52666,11.412,-5.788,15.123,1545
52671,-11.5029,-0.1532,13.884,1555
52676,-13.1885,2.9485,4.725,1541
52681,5.6419,7.8422,7.2975,1531
52686,14.3532,-1.5778,14.4694,1530
52691,-9.6822,-2.4074,18.2414,1525
52696,-13.228,0.7195,5.7604,1547
52701,-0.1999,7.1635,4.391,1529
52706,14.0252,3.6811,14.5268,1532
52711,-1.4162,-5.8419,18.3204,1547
52716,-11.139,-0.1377,7.3885,1549
52721,-6.924,6.1399,3.5303,1549
52726,11.6574,7.1156,13.1394,1523
52731,7.9667,-6.5745,16.0783,1560
52736,-10.987,0.0251,11.4084,1533
52741,-12.1518,4.1228,4.2234,1544
52746,7.9021,7.8781,9.2644,1544
52751,13.4434,-3.6117,14.6214,1515
52756,-11.151,-0.9158,16.6876,1553
52761,-13.526,1.7023,5.1739,1533
52766,2.4325,7.3418,5.363,1551
52771,14.5101,1.397,14.7555,1545
52776,-5.5438,-4.3946,18.7442,1553
52781,-11.8417,0.1353,6.4236,1541
52786,-4.0342,6.6523,3.5542,1526
52791,12.9299,5.7952,14.2694,1527
52796,4.1503,-6.7289,17.1066,1543
52801,-10.7691,0.0168,9.3326,1555
52806,-10.1598,5.1104,3.7086,1524
52811,9.7037,7.671,11.1737,1557
52816,11.7328,-5.2325,15.1625,1527
52821,-11.382,-0.2203,14.4107,1534
52826,-13.5332,2.6851,4.7728,1525
52831,5.1068,7.5202,6.7888,1529
52836,14.461,-0.6979,14.6106,1543
52841,-8.849,-2.7545,18.5084,1545
52846,-12.8569,0.4477,5.952,1529
52851,-1.0403,6.9252,3.9971,1543
52856,13.726,4.3311,14.5819,1549
52861,-0.3136,-6.0466,18.1265,1531
52866,-10.8062,-0.1987,7.8614,1529
52871,-7.7788,5.879,3.553,1526
52876,11.3222,7.4065,12.6917,1523
52881,8.7436,-6.2297,15.8436,1544
52886,-10.9367,-0.091,12.1889,1545
52891,-12.639,3.7709,4.4616,1546
52896,7.422,7.7572,8.491,1525
52901,13.4255,-2.9209,14.5663,1527
52906,-10.4722,-1.3862,17.1209,1529
52911,-13.4602,1.3001,5.5725,1542
52916,1.6723,7.2736,4.974,1542
52921,14.1282,2.0135,14.6142,1531
52926,-4.2102,-4.7345,18.4641,1557
52931,-11.4886,-0.1389,6.9887,1529
52936,-5.1978,6.5374,3.644,1525
52941,12.7587,6.1687,13.7463,1519
52946,5.0757,-6.5864,16.5763,1531
52951,-10.7176,-0.0814,10.3406,1547
52956,-11.2719,4.8518,4.1013,1541
52961,9.6989,7.7009,10.4531,1551
52966,11.5867,-4.6735,14.7315,1515
52971,-11.0552,-0.4609,15.3181,1555
52976,-13.7798,2.3164,5.2744,1531
52981,4.7609,7.5106,6.207,1531
52986,13.9055,-0.2466,14.3987,1524
52991,-7.2903,-3.0718,18.2235,1541
52996,-12.3948,0.3328,6.4476,1528
53001,-2.0794,6.9671,3.7625,1527
53006,13.6266,4.397,14.4526,1560
53011,1.1432,-5.9053,17.3352,1545
53016,-10.7009,-0.0491,8.7472,1545
53021,-9.08,5.9412,3.7158,1525
53026,11.4455,6.9576,12.1637,1527
53031,9.1997,-5.7485,15.427,1542
53036,-11.0373,0.0718,13.1071,1543
53041,-13.1741,3.7218,4.6436,1549
53046,7.0449,7.197,7.7189,1527
53051,13.4267,-2.2158,14.8692,1525
53056,-9.7109,-1.4904,17.3616,1532
53061,-13.4015,1.2773,5.6898,1542
53066,1.0642,6.9456,4.4053,1545
53071,14.115,2.5977,15.202,1534
53076,-2.9497,-4.8602,18.0906,1553
53081,-11.3413,-0.0168,7.2245,1547
53086,-5.8191,6.4057,3.3423,1549
53091,12.4498,6.2489,13.8181,1525
53096,6.1016,-6.3662,16.4793,1527
53101,-10.7715,0.0551,10.6769,1544
53106,-11.2755,4.7944,3.9552,1525
53111,8.7927,7.2748,9.8485,1531
53116,12.4822,-4.1707,15.0966,1529
53121,-10.914,-0.5962,15.6533,1548
53126,-13.7906,2.3691,5.0254,1519
53131,3.8164,7.0785,5.6707,1555
53136,14.3712,0.4717,15.1613,1533
53141,-6.9863,-3.4273,18.4485,1546
53146,-12.8509,0.3998,6.2261,1546
53151,-2.3691,6.6679,3.4848,1544
53156,13.38,5.023,14.8656,1549
53161,1.9561,-6.256,17.601,1525
53166,-10.5429,-0.1233,8.5665,1545
53171,-8.9974,5.6443,3.4524,1527
53176,10.5584,7.2269,11.8824,1527
53181,10.0401,-5.7509,15.6377,1543
53186,-11.0696,-0.1185,13.137,1541
53191,-13.1274,3.5458,4.3227,1531
53196,5.9376,7.2185,7.6447,1528
53201,14.5077,-1.8399,14.9805,1545
53206,-9.6678,-1.9022,17.8296,1553
53211,-13.1358,1.1277,5.6599,1532
53216,0.3807,6.8726,3.9337,1529
53221,14.3903,3.0442,15.5144,1519
53226,-2.9341,-5.1128,18.4485,1545
53231,-13.2902,-0.1006,7.0689,1544
53236,-5.2816,6.0609,3.1747,1542
53241,11.8944,6.7696,13.8828,1527
53246,7.8757,-6.7265,16.4482,1543
53251,-10.3346,0.2227,10.896,1531
53256,-12.1769,4.5274,3.9385,1531
53261,8.8454,7.4089,8.9256,1541
53266,12.7144,-4.1743,15.688,1509
53271,-11.1881,-0.7254,15.7383,1561
53276,-15.0104,2.4289,4.707,1543
53281,2.8132,6.9552,5.6802,1555
53286,15.2702,1.1959,15.2199,1523
53291,-5.8,-4.276,18.7322,1557
53296,-11.6215,0.48,6.3614,1529
53301,-3.6811,6.7804,3.2058,1533
53306,13.8852,5.1128,14.8488,1560
53311,2.2386,-6.3853,17.4382,1525
53316,-11.4814,-0.1257,8.7388,1549
53321,-9.0249,5.4312,3.2765,1527
53326,9.6558,7.4531,11.8549,1525
53331,11.5927,-5.4767,15.2966,1529
53336,-10.9774,-0.2179,13.9809,1542
53341,-13.5069,3.1544,4.7178,1545
53346,5.9388,7.3706,6.7528,1548
53351,14.0336,-1.6628,15.281,1543
53356,-9.4044,-2.2565,17.8045,1527
53361,-14.3496,1.0367,5.6982,1573
53366,-0.2047,6.8857,4.1503,1541
53371,14.1198,3.6416,15.1565,1545
53376,-1.0906,-5.7461,17.9769,1543
53381,-10.7248,0.0838,7.6076,1549
53386,-7.2772,6.3087,3.3495,1529
53391,12.2056,6.5829,13.3142,1531
53396,7.2915,-6.3758,16.1872,1533
53401,-10.896,-0.0263,11.3689,1556
53406,-12.1063,4.4029,3.9863,1555
53411,7.8494,7.3933,9.2273,1517
53416,13.2423,-3.4441,14.8943,1527
53421,-10.7045,-1.0654,16.4039,1547
53426,-13.5919,1.895,5.3618,1529
53431,2.7641,7.1587,5.0266,1559
53436,14.3257,1.1432,15.2858,1543
53441,-5.6324,-3.9756,18.3683,1565
53446,-12.4989,0.2658,6.4931,1549
53451,-3.6811,6.7109,3.3016,1529
53456,13.0628,5.4731,14.7974,1531
53461,3.7637,-6.432,17.0228,1543
53466,-10.4627,0.097,9.2524,1541
53471,-10.2448,5.4827,3.5686,1531
53476,10.0401,7.0569,11.2132,1553
53481,10.993,-5.266,15.5396,1523
53486,-11.2192,-0.1879,14.0264,1541
53491,-13.5512,3.2154,4.4688,1525
53496,5.1595,7.112,6.9372,1531
53501,14.686,-0.9792,15.1182,1531
53506,-8.7197,-2.5486,18.1121,1529
53511,-12.7683,0.9014,5.8299,1547
53516,-0.6548,6.869,3.6308,1523
53521,14.0384,3.7589,15.4701,1545
53526,-1.2546,-5.5701,18.1061,1531
53531,-12.8006,-0.1987,7.5465,1545
53536,-6.4763,5.9951,3.2358,1541
53541,11.388,7.0713,13.2962,1523
53546,9.1818,-6.4129,16.101,1547
53551,-10.392,0.0634,11.8034,1527
53556,-12.7443,4.0462,4.2054,1559
53561,8.0697,7.4687,8.2073,1545
53566,13.1346,-3.3459,15.5168,1517
53571,-10.8517,-1.2186,16.5296,1533
53576,-15.1565,1.8711,5.0254,1529
53581,2.1225,6.8845,5.1787,1555
53586,14.9961,2.3152,14.9302,1527
53591,-4.3491,-4.9464,18.8819,1549
53596,-11.2264,0.1101,6.8199,1544
53601,-4.6926,6.5625,3.1149,1541
53606,13.4961,6.0609,14.285,1519
53611,3.6607,-6.4404,17.2155,1543
53616,-11.4814,-0.504,9.505,1543
53621,-9.9491,4.9871,3.468,1531
53626,9.2428,7.7333,11.0409,1547
53631,12.3062,-4.7669,14.9913,1527
53636,-10.7512,-0.5662,15.0799,1567
53641,-13.8026,2.5881,5.1128,1523
53646,5.2134,7.3083,5.8873,1545
53651,13.9881,-0.5686,15.1146,1527
53656,-8.4348,-2.7186,18.3216,1529
53661,-14.6405,0.5662,6.0358,1551
53666,-1.1648,6.7385,3.8858,1529
53671,13.8205,4.8554,14.8333,1561
53676,0.8954,-6.1375,17.8284,1529
53681,-10.2879,-0.1101,8.2217,1558
53686,-8.5234,5.8981,3.3758,1519
53691,11.7088,7.1551,12.3541,1533
53696,8.3701,-5.9759,15.9334,1531
53701,-11.0612,-0.3148,12.3194,1545
53706,-12.5372,3.8547,4.1875,1547
53711,6.9887,7.4998,8.3893,1545
53716,14.0204,-2.5079,14.7076,1531
53721,-9.9539,-1.5933,17.443,1529
53726,-13.2938,1.2785,5.7114,1529
53731,1.6185,7.1036,4.2509,1545
53736,14.206,2.2936,15.2439,1531
53741,-4.3239,-4.5119,18.512,1557
53746,-13.4997,-0.1532,6.924,1531
53751,-4.6424,6.2728,3.3507,1545
53756,12.5959,6.6475,13.9989,1541
53761,6.1603,-6.7086,16.6469,1528
53766,-10.1718,-0.012,10.325,1531
53771,-11.5173,4.8004,3.9504,1543
53776,9.6845,7.6782,9.9539,1544
53781,11.5867,-4.5693,15.3001,1519
53786,-11.1701,-0.723,15.1266,1559
53791,-14.1473,2.5546,4.8183,1542
53796,4.1073,7.2305,6.3494,1556
53801,14.8859,0.3675,14.5376,1525
53806,-7.0749,-3.5314,18.7681,1549
53811,-12.0273,0.3591,6.4009,1555
53816,-2.2218,6.8271,3.3519,1525
53821,13.8552,4.7944,14.8141,1557
53826,0.6117,-5.8778,17.8919,1527
53831,-12.5384,-0.4884,8.3091,1557
53836,-7.8949,5.624,3.3818,1529
53841,10.7117,7.5992,12.4127,1529
53846,10.5991,-5.9496,15.4797,1527
53851,-10.6566,-0.091,13.2938,1529
53856,-13.4949,3.4872,4.6866,1547
53861,7.1228,7.4903,7.2077,1531
53866,13.453,-2.3727,15.1888,1541
53871,-10.0568,-1.7693,17.3592,1533
53876,-14.9183,1.3084,5.5342,1529
53881,0.9218,6.9983,4.531,1523
53886,14.4358,3.0765,14.9853,1525
53891,-2.4277,-5.4564,18.3384,1548
53896,-10.811,-0.0204,7.3322,1545
53901,-6.2584,6.4751,3.2741,1553
53906,12.7707,6.341,13.6589,1523
53911,5.6204,-6.3422,16.5415,1557
53916,-11.0337,-0.2921,10.6303,1544
53921,-11.3078,4.8016,3.8331,1530
53926,8.7855,7.5753,10.0556,1527
53931,12.7551,-4.1192,14.7866,1530
53936,-10.7093,-0.6871,15.9011,1553
53941,-13.6446,2.1787,5.3223,1527
53946,3.8978,7.2508,5.3439,1559
53951,14.0324,0.4537,15.1936,1523
53956,-6.9767,-3.2741,18.3779,1549
53961,-14.0456,0.3771,6.3746,1547
53966,-2.3667,6.6643,3.6057,1523
53971,13.5272,5.3056,14.7507,1563
53976,2.7043,-6.4955,17.3687,1545
53981,-10.143,0.0443,8.7676,1544
53986,-9.6403,5.6336,3.547,1533
53991,10.9547,7.3047,11.6753,1528
53996,9.7671,-5.6288,15.8376,1533
54001,-11.2779,-0.3651,13.1861,1531
54006,-12.9742,3.5147,4.2593,1527
54011,6.013,7.3658,7.7476,1527
54016,14.7567,-1.6113,14.6753,1533
54021,-9.4236,-2.2242,18.1373,1547
54026,-12.967,1.0271,5.8047,1541
54031,0.4238,7.0605,3.814,1531
54036,14.2766,3.1879,15.3899,1511
54041,-3.0323,-5.0326,18.4856,1546
54046,-13.7547,-0.3543,7.1216,1545
54051,-5.3786,6.0932,3.2465,1547
54056,11.9495,7.2317,13.7882,1524
54061,7.9128,-6.6786,16.3213,1559
54066,-10.1849,-0.0994,11.0672,1533
54071,-12.2224,4.3694,4.0701,1547
54076,9.0273,7.8027,9.0345,1529
54081,12.3601,-3.9995,15.2858,1519
54086,-11.1438,-1.0343,15.8532,1549
54091,-14.7279,2.1464,4.8111,1525
54096,3.2022,7.1994,5.843,1545
54101,15.0895,1.3408,14.6729,1519
54106,-6.0082,-4.2282,19.0423,1553
54111,-11.6502,0.1544,6.4991,1531
54116,-3.3423,6.7433,3.1603,1527
54121,13.7439,5.3977,14.631,1553
54126,1.9022,-6.2728,17.7003,1525
54131,-11.9578,-0.6273,8.7317,1513
54136,-8.8238,5.3056,3.3112,1532
54141,10.0449,7.8338,11.9076,1546
54146,11.491,-5.5605,15.2307,1523
54151,-10.6949,-0.3376,14.0145,1553
54156,-13.5871,3.0658,4.865,1532
54161,6.3398,7.5334,6.5781,1525
54166,13.775,-1.5287,15.1397,1545
54171,-9.5924,-2.1249,17.9314,1545
54176,-15.1122,0.9385,5.6348,1555
54181,0.1448,6.8582,4.288,1531
54186,14.3125,3.9911,14.856,1533
54191,-1.1744,-5.8395,18.3384,1525
54196,-10.4591,-0.1963,7.5621,1543
54201,-7.1299,6.1172,3.2118,1528
54206,12.3565,6.8714,13.1645,1519
54211,6.6056,-6.353,16.4194,1553
54216,-11.1857,-0.504,11.1091,1547
54221,-11.6095,4.2952,3.8846,1557
54226,7.9787,7.7105,9.5984,1527
54231,13.6374,-3.6081,14.5591,1520
54236,-10.6913,-1.1396,16.696,1547
54241,-13.6996,1.7705,5.4803,1544
54246,3.1472,7.3143,4.9069,1547
54251,14.2048,1.0403,15.0835,1529
54256,-6.2201,-3.8463,18.5395,1562
54261,-13.4111,0.0144,6.5601,1532
54266,-3.4764,6.6295,3.383,1528
54271,13.0855,5.9089,14.4287,1547
54276,3.7637,-6.4871,17.0814,1533
54281,-10.0904,-0.0982,9.4667,1545
54286,-10.4842,5.4121,3.7876,1524
54291,10.5716,7.3849,11.1618,1549
54296,10.3705,-5.1655,15.3552,1526
54301,-11.054,-0.4669,14.1054,1557
54306,-13.6924,3.0167,4.7118,1527
54311,5.6407,7.3646,6.9504,1543
54316,14.1509,-0.9038,14.5292,1541
54321,-8.6155,-2.5546,18.1648,1529
54326,-12.7,0.6153,6.1351,1549
54331,-0.5303,7.0605,3.7948,1526
54336,13.9067,3.7709,14.9374,1555
54341,-1.1971,-5.3977,17.9577,1525
54346,-11.5592,-0.3735,7.8266,1532
54351,-7.1814,6.1854,3.3399,1526
54356,11.8441,7.0437,13.2004,1531
54361,8.1187,-6.183,15.8233,1543
54366,-10.4088,-0.0503,11.8848,1544
54371,-12.6761,4.197,4.3562,1547
54376,8.2241,7.3406,8.5808,1525
54381,12.7611,-3.0933,15.0583,1517
54386,-10.562,-1.1085,16.5775,1529
54391,-14.3712,1.8854,5.3056,1543
54396,2.6384,6.9384,5.1463,1545
54401,14.7806,1.9585,15.0128,1530
54406,-4.877,-4.3215,18.8424,1563
54411,-11.2946,0.0347,6.7205,1530
54416,-4.2725,6.4763,3.0634,1525
54421,13.1849,6.098,14.4179,1530
54426,3.5183,-6.2369,17.3879,1528
54431,-12.8461,-0.7207,9.2177,1547
54436,-8.7496,4.9847,3.3303,1519
54441,9.4715,7.9296,11.2803,1543
54446,13.0807,-5.0003,15.0691,1519
54451,-10.7129,-0.4968,14.9841,1565
54456,-13.866,2.563,4.9512,1523
54461,5.4133,7.3035,5.4348,1549
54466,14.1366,-0.3292,15.4618,1542
54471,-9.2823,-2.7138,18.427,1543
54476,-16.2375,0.5974,5.691,1531
54481,-0.3891,6.3889,4.1791,1523
54486,14.5998,5.5354,14.3724,1554
54491,1.1911,-6.7277,18.5012,1530
54496,-9.8964,-0.2574,8.1642,1553
54501,-8.4874,5.5474,3.1927,1529
54506,12.3936,7.8482,11.9746,1532
54511,7.683,-6.098,16.3775,1529
54516,-11.7639,-0.8823,12.1159,1543
54521,-12.2416,3.571,3.9732,1548
54526,6.7888,7.9368,8.7005,1533
54531,14.6693,-2.2505,14.2144,1531
54536,-9.8354,-1.9632,17.9589,1543
54541,-13.4961,1.1253,5.8598,1543
54546,1.828,7.2353,4.033,1547
54551,14.2371,2.2889,14.9458,1525
54556,-4.6184,-4.5406,18.5934,1553
54561,-13.5248,-0.3711,7.0222,1531
54566,-5.0865,6.4811,3.3591,1583
54571,12.5755,6.7349,13.9762,1529
54576,5.9699,-6.6595,16.3847,1533
54581,-10.2268,-0.1161,10.6159,1541
54586,-11.7998,4.9596,4.1779,1528
54591,9.7947,7.4855,9.9036,1542
54596,11.3282,-4.4472,15.1361,1518
54601,-10.8433,-0.6752,15.2559,1491
54606,-14.0528,2.5558,5.0542,1526
54611,4.464,7.1658,6.0166,1555
54616,14.3101,0.1425,14.8895,1525
54621,-7.094,-3.3016,18.2414,1533
54626,-12.1494,0.4381,6.3386,1555
54631,-2.2721,6.9216,3.5135,1540
54636,13.4375,4.4891,15.032,1555
54641,1.1181,-5.7724,17.5184,1541
54646,-11.5652,-0.3184,8.3653,1549
54651,-8.2911,5.928,3.4153,1546
54656,11.0349,7.1802,12.4882,1529
54661,10.0616,-5.9149,15.5898,1523
54666,-10.7907,-0.0299,12.9167,1548
54671,-13.2711,3.6727,4.5071,1528
54676,6.9408,7.3239,7.4915,1543
54681,13.5332,-2.3834,15.3301,1529
54686,-10.149,-1.6903,17.2023,1545
54691,-14.6777,1.4557,5.3798,1548
54696,1.2115,6.9408,4.6639,1529
54701,14.6777,2.8036,15.0212,1543
54706,-2.8048,-5.3319,18.5299,1559
54711,-10.8302,0.0826,7.1192,1555
54716,-6.1088,6.4584,3.1041,1553
54721,12.9095,6.3027,13.8576,1544
54726,5.375,-6.4631,16.7474,1543
54731,-11.3904,-0.4573,10.325,1553
54736,-11.0804,4.8542,3.6907,1525
54741,8.8131,7.695,10.2771,1541
54746,12.9574,-4.2808,14.7962,1516
54751,-10.726,-0.844,15.8388,1565
54756,-13.8756,2.2326,5.2613,1533
54761,4.3311,7.4208,5.3355,1563
54766,14.0983,0.0215,15.1457,1529
54771,-7.3083,-3.2789,18.3755,1547
54776,-13.6529,0.2526,6.3315,1527
54781,-2.296,6.8905,3.541,1542
54786,13.5548,5.1032,14.8464,1548
54791,2.0446,-6.2656,17.4035,1544
54796,-10.2125,-0.2298,8.7592,1553
54801,-9.4272,5.855,3.4895,1528
54806,11.23,7.1922,11.9507,1541
54811,9.3793,-5.545,15.6293,1531
54816,-10.9487,-0.4202,13.0939,1545
54821,-13.137,3.6631,4.3658,1553
54826,6.5912,7.355,7.774,1529
54831,14.1258,-1.9106,14.8117,1549
54836,-9.5397,-1.8878,17.7135,1545
54841,-13.1921,1.0906,5.7628,1532
54846,0.7745,7.088,4.0498,1530
54851,14.1042,2.806,15.3169,1519
54856,-3.0526,-4.9524,18.2235,1547
54861,-12.8078,-0.1951,7.2628,1545
54866,-5.5629,6.2836,3.2669,1529
54871,12.3768,6.7253,13.8098,1519
54876,6.9587,-6.687,16.2674,1553
54881,-10.4256,-0.0024,10.9427,1541
54886,-12.0428,4.616,4.1168,1546
54891,9.2715,7.6602,9.4679,1531
54896,11.977,-4.2413,15.0966,1515
54901,-10.9523,-0.8523,15.7347,1551
54906,-14.2371,2.3032,5.0733,1517
54911,3.7026,7.2508,5.8359,1554
54916,14.7339,0.7111,14.631,1525
54921,-6.3638,-3.8008,18.585,1557
54926,-11.8369,0.2646,6.5074,1543
54931,-3.1496,6.8857,3.3662,1527
54936,13.6553,4.9668,14.7124,1547
54941,1.5981,-6.0753,17.3891,1545
54946,-11.6466,-0.4226,8.7676,1555
54951,-9.1578,5.6886,3.4728,1523
54956,10.6734,7.5118,12.1099,1547
54961,10.6255,-5.764,15.1505,1527
54966,-10.9906,-0.091,13.8122,1543
54971,-13.6829,3.2932,4.8183,1531
54976,6.6726,7.5166,7.1922,1542
54981,13.5308,-2.0853,14.9506,1525
54986,-9.4559,-2.0255,17.5327,1527
54991,-13.6589,0.9529,5.8167,1531
54996,0.3723,7.1491,4.2725,1541
55001,13.9654,2.9939,14.8488,1549
55006,-1.9561,-5.3989,17.7746,1527
55011,-10.9918,-0.0922,7.6926,1553
55016,-6.8438,6.5362,3.5015,1531
55021,12.5217,6.3518,13.4638,1523
55026,6.3853,-6.2776,15.9298,1543
55031,-10.6566,-0.2274,11.4072,1553
55036,-12.4822,4.6855,4.2748,1543
55041,9.4164,7.6531,9.6738,1543
55046,11.9519,-4.027,14.5352,1527
55051,-10.5692,-0.8356,16.1405,1559
55056,-13.9007,1.992,5.5378,1529
55061,3.8858,7.2724,5.4528,1545
55066,13.7822,0.589,14.6777,1525
55071,-6.0154,-3.4895,18.1564,1562
55076,-12.0464,0.1245,6.7924,1525
55081,-3.1927,6.918,3.4153,1532
55086,13.4925,4.968,14.5412,1547
55091,2.3631,-6.0944,16.8624,1483
55096,-10.6255,-0.1448,9.2464,1559
55101,-10.0952,5.8299,3.6464,1518
55106,11.248,7.1754,11.8298,1555
55111,9.7959,-5.5007,15.2415,1540
55116,-11.0145,-0.1101,13.8265,1533
55121,-13.7248,3.4728,4.7501,1527
55126,6.869,7.2987,7.3083,1533
55131,13.5033,-1.822,14.9147,1547
55136,-9.2428,-1.889,17.5327,1547
55141,-13.3094,1.0235,5.8849,1548
55146,0.5638,6.9695,4.0534,1532
55151,13.9965,2.9987,15.342,1530
55156,-2.1691,-5.0661,17.9242,1519
55161,-11.1869,-0.0922,7.5082,1543
55166,-6.4464,6.4655,3.1819,1525
55171,12.4702,6.4308,13.7834,1527
55176,6.5517,-6.2656,16.1525,1551
55181,-10.641,-0.1832,11.0085,1527
55186,-11.8094,4.7166,3.9923,1551
55191,8.8526,7.3682,9.6307,1527
55196,12.4726,-3.8822,14.959,1527
55201,-10.7703,-0.8296,15.9286,1549
55206,-13.9103,2.077,5.1942,1531
55211,3.7469,7.0773,5.2912,1559
55216,14.1952,0.7709,15.2163,1529
55221,-6.6738,-3.5494,18.4784,1560
55226,-13.0735,0.1879,6.4572,1525
55231,-2.6013,6.7205,3.4321,1542
55236,13.4422,5.3091,14.8357,1541
55241,2.3822,-6.2465,17.3999,1541
55246,-10.4232,-0.2394,8.8059,1559
55251,-9.408,5.6467,3.4153,1531
55256,10.835,7.3837,11.7663,1543
55261,9.8462,-5.63,15.6282,1529
55266,-11.1342,-0.3436,13.2758,1532
55271,-13.0915,3.4608,4.3527,1531
55276,6.1339,7.3789,7.5585,1529
55281,14.4694,-1.7238,14.7626,1543
55286,-9.511,-2.0494,17.9721,1532
55291,-13.2184,0.9206,5.7892,1531
55296,0.4896,7.0366,3.8798,1565
55301,14.3784,3.1113,15.293,1527
55306,-3.0586,-5.0482,18.4018,1527
55311,-13.2016,-0.3687,7.1718,1548
55316,-5.5354,6.0908,3.2729,1528
55321,12.226,7.0809,13.7068,1524
55326,7.3682,-6.681,16.3249,1551
55331,-10.2855,-0.0766,10.9343,1531
55336,-12.0931,4.4544,4.1061,1558
55341,9.1949,7.6794,9.1818,1529
55346,12.4235,-4.2329,15.342,1528
55351,-11.2504,-0.7338,15.6928,1548
55356,-14.8345,2.3535,4.7633,1529
55361,3.2489,7.112,5.861,1548
55366,15.3636,1.1061,14.801,1528
55371,-6.3626,-4.0139,18.9082,1557
55376,-11.8094,0.3124,6.4404,1545
55381,-3.1975,6.7253,3.1855,1525
55386,14.194,5.2218,14.7148,1543
55391,1.5311,-6.3027,17.7159,1545
55396,-12.2703,-0.4824,8.5677,1545
55401,-8.345,5.3953,3.2465,1519
55406,10.0736,7.7405,12.1254,1561
55411,11.6274,-5.8131,15.3109,1541
55416,-10.9858,-0.2143,13.7643,1543
55421,-13.5332,3.231,4.7525,1527
55426,6.5529,7.5741,6.8139,1527
55431,14.1054,-2.0494,15.2259,1531
55436,-10.1418,-1.9573,17.7578,1525
55441,-15.4426,1.1504,5.4612,1543
55446,0.4561,6.9599,4.4879,1525
55451,14.5615,3.565,14.7878,1546
55456,-1.8399,-5.7473,18.3528,1527
55461,-10.7871,-0.0479,7.3538,1532
55466,-6.7169,6.3554,3.3303,1547
55471,12.9359,6.7732,13.3106,1528
55476,6.2285,-6.5829,16.6229,1543
55481,-10.9415,-0.3615,10.8397,1529
55486,-11.6203,4.4341,3.8954,1547
55491,8.3246,7.835,9.8114,1529
55496,13.1909,-3.9911,14.6226,1516
55501,-10.999,-0.9541,16.192,1575
55506,-13.6709,1.883,5.4193,1526
55511,3.5913,7.4268,5.466,1555
55516,14.388,0.498,14.8201,1532
55521,-6.9061,-3.4704,18.6305,1559
55526,-12.9215,0.097,6.4344,1529
55531,-2.7641,6.7181,3.5267,1529
55536,13.4506,5.466,14.5196,1528
55541,2.466,-6.3542,17.4501,1531
55546,-10.4064,-0.2191,8.8143,1555
55551,-9.5158,5.5581,3.5889,1527
55556,10.8541,7.5501,11.74,1546
55561,10.1694,-5.5581,15.4378,1529
55566,-11.1678,-0.1963,13.4147,1549
55571,-13.3752,3.4046,4.3898,1533
55576,6.1052,7.5561,7.5788,1541
55581,14.4538,-1.6843,14.6573,1541
55586,-9.6965,-2.0973,18.0283,1544
55591,-13.1502,0.9014,5.7485,1553
55596,0.3268,7.0641,3.9804,1525
55601,14.3664,3.0742,15.1721,1545
55606,-2.8,-5.2074,18.3827,1545
55611,-12.2511,-0.2334,7.1934,1543
55616,-5.8407,6.2249,3.2202,1533
55621,12.1087,6.8546,13.8277,1531
