timestamp_ms,ax,ay,az,acs_adc
19386,15.1864,2.2889,13.9079,1554
19391,1.6328,-4.4077,15.6234,1551
19396,-10.5058,-0.4992,10.6374,1559
19401,-12.7563,6.3674,4.2868,1544
19406,11.6801,6.8163,11.3796,1533
19411,9.9922,-3.7122,13.8576,1529
19416,-8.3893,-1.5742,15.5108,1545
19421,-14.5316,2.46,6.5565,1547
19426,0.8966,7.2257,5.1811,1528
19431,14.9219,0.8655,14.0719,1553
19436,-0.4824,-3.869,15.9406,1533
19441,-10.6745,-0.3472,9.6079,1575
19446,-10.9259,6.9516,3.8068,1545
19451,13.5823,6.2345,12.6546,1557
19456,8.2839,-4.0414,14.2515,1531
19461,-9.2117,-1.3635,14.5137,1573
19466,-14.8704,3.5518,5.9376,1543
19471,3.6536,6.8821,5.9448,1553
19476,14.2946,-0.1844,14.4622,1528
19481,-2.9113,-3.2884,16.3428,1563
19486,-11.327,0.0575,8.4767,1546
19491,-8.503,7.0246,3.4393,1549
19496,14.4047,5.4097,13.9402,1542
19501,6.7038,-4.4496,14.6836,1544
19506,-9.7947,-1.1528,13.2196,1553
19511,-14.6274,4.7058,5.1703,1546
19516,5.7904,6.4811,7.355,1553
19521,13.5691,-1.646,14.7435,1529
19526,-5.0458,-2.8898,16.265,1557
19531,-12.202,0.9517,7.5717,1559
19536,-5.6096,6.9743,3.5219,1543
19541,14.9769,4.2497,14.929,1545
19546,4.4831,-4.6651,15.1445,1555
19551,-10.4806,-0.9002,11.8465,1553
19556,-13.3932,5.4899,4.6268,1549
19561,8.2636,6.6511,8.9807,1544
19566,12.7767,-2.8,14.4478,1548
19571,-6.7648,-2.2637,16.198,1543
19576,-13.1106,1.5275,7.0282,1559
19581,-2.9808,6.6403,3.7409,1528
19586,14.8859,3.4093,15.0511,1548
19591,0.7949,-4.6711,15.5527,1543
19596,-10.2125,-0.9361,10.4531,1559
19601,-11.8645,5.9005,4.5143,1553
19606,11.1534,7.5166,10.8888,1533
19611,11.5125,-4.1108,14.0396,1525
19616,-7.6579,-1.6915,15.8855,1557
19621,-14.5532,2.0518,6.6954,1548
19626,-0.1113,6.4236,3.9289,1543
19631,14.5508,2.4565,14.8644,1560
19636,-2.806,-4.5478,16.1453,1547
19641,-9.8737,-0.972,9.3051,1575
19646,-10.5979,6.5302,4.5358,1543
19651,13.6086,7.276,12.1087,1556
19656,9.7659,-4.8542,14.1509,1543
19661,-8.2169,-1.3156,15.1481,1567
19666,-15.6473,3.1017,6.1782,1548
19671,2.7378,6.5086,4.61,1561
19676,13.9929,0.6488,14.8273,1529
19681,-4.6687,-4.1659,16.2973,1559
19686,-10.7643,-0.3926,8.6706,1560
19691,-8.8514,7.2101,4.1887,1545
19696,15.3133,5.9711,12.9754,1529
19701,7.5405,-4.9871,14.5795,1542
19706,-8.6443,-1.0989,14.0803,1547
19711,-15.9933,4.3251,5.5426,1555
19716,5.5557,6.2297,5.7401,1545
19721,12.3385,-0.4357,14.9243,1544
19726,-6.4224,-3.7757,16.5703,1566
19731,-10.7727,0.2286,7.9368,1547
19736,-6.5709,7.3382,4.0881,1555
19741,16.4829,4.7896,13.5919,1529
19746,5.5881,-4.8734,14.9207,1548
19751,-9.3673,-0.9828,13.1011,1555
19756,-15.591,5.2768,4.8937,1557
19761,8.1846,6.0071,7.3143,1543
19766,10.7835,-1.142,14.6046,1559
19771,-8.4168,-3.2034,16.6672,1555
19776,-11.5963,0.9062,7.2748,1554
19781,-3.7038,7.3634,4.4784,1517
19786,16.6804,3.4512,13.8217,1549
19791,3.626,-4.6974,15.4127,1543
19796,-10.1095,-0.8452,11.9519,1559
19801,-14.3868,6.2022,4.1456,1563
19806,10.4603,6.0334,9.0633,1547
19811,10.0844,-2.4624,14.607,1531
19816,-10.2065,-2.66,16.1214,1547
19821,-12.7994,1.9764,6.4308,1573
19826,-0.6788,7.3442,5.023,1525
19831,16.4123,1.6053,14.2096,1560
19836,0.9266,-4.215,15.8664,1547
19841,-10.6362,-0.4142,10.4567,1567
19846,-12.2056,6.8761,3.6117,1531
19851,12.5827,5.9197,11.2228,1560
19856,8.2049,-3.468,14.6214,1527
19861,-10.8529,-2.1189,15.1433,1563
19866,-13.6242,3.0562,5.9699,1545
19871,2.478,7.5513,6.1292,1547
19876,15.6796,-0.2777,13.9989,1542
19881,-1.4126,-3.7158,16.1633,1541
19886,-11.649,0.0335,9.4655,1557
19891,-9.754,7.3502,3.2992,1533
19896,14.2563,5.1308,12.9036,1545
19901,5.9005,-4.1635,14.6896,1551
19906,-10.6734,-1.634,13.9151,1557
19911,-14.1318,4.367,5.6336,1554
19916,5.8251,7.5932,7.4687,1547
19921,14.5292,-2.0375,13.9726,1523
19926,-3.3662,-2.9185,16.1034,1577
19931,-12.7767,0.5112,8.6048,1553
19936,-7.0042,7.5513,3.0179,1525
19941,15.2786,4.1216,14.1689,1531
19946,3.0742,-4.5801,14.7638,1555
19951,-9.9407,-1.3001,12.4546,1561
19956,-14.2958,5.381,5.2098,1546
19961,9.2644,7.616,9.0309,1549
19966,12.9718,-3.3495,13.7379,1545
19971,-5.1942,-2.2278,16.1226,1528
19976,-14.3784,1.166,7.9392,1557
19981,-3.6176,7.3969,3.0861,1526
19986,15.6389,2.824,14.8057,1547
19991,0.8332,-4.6483,15.1062,1549
19996,-10.0413,-0.9649,11.1713,1549
20001,-13.3968,6.3015,4.604,1543
20006,12.1111,7.3909,10.7548,1531
20011,10.9762,-3.9133,13.9546,1541
20016,-6.8043,-1.6245,15.9346,1547
20021,-15.512,2.0794,7.0306,1547
20026,-0.0838,7.0509,3.632,1549
20031,14.8165,1.8148,14.9135,1566
20036,-1.7346,-4.5346,15.791,1553
20041,-9.6426,-0.7829,9.681,1563
20046,-11.7244,6.9923,4.2701,1546
20051,14.3592,6.7924,12.2044,1549
20056,9.1997,-4.464,14.1773,1544
20061,-8.0625,-1.3012,15.1421,1578
20066,-16.289,3.2633,6.1926,1532
20071,3.3172,6.6511,4.6232,1541
20076,13.7188,0.5686,14.9039,1533
20081,-4.215,-4.0869,16.3488,1562
20086,-10.2723,-0.2933,8.5198,1557
20091,-9.1806,7.4184,3.9935,1547
20096,15.8197,5.6683,13.2411,1525
20101,7.1335,-4.7058,14.5939,1541
20106,-8.8143,-1.1337,13.9319,1559
20111,-16.2662,4.6184,5.3678,1550
20116,6.3662,6.3147,6.1663,1549
20121,12.6079,-0.8068,14.8907,1526
20126,-6.6212,-3.4872,16.5715,1561
20131,-11.3677,0.4345,7.531,1591
20136,-6.0645,7.4807,3.9863,1545
20141,16.4805,4.3742,14.0456,1531
20146,4.8088,-4.7537,14.9566,1571
20151,-9.6259,-0.9708,12.5372,1557
20156,-15.2475,5.8143,4.6232,1553
20161,9.0058,6.2213,8.2504,1531
20166,11.2132,-2.2266,14.6465,1549
20171,-8.5748,-2.873,16.3141,1565
20176,-12.6115,1.5071,6.8438,1559
20181,-2.7569,7.525,4.4257,1559
20186,16.4182,2.3906,14.3616,1551
20191,2.3128,-4.4664,15.4031,1577
20196,-10.2292,-0.6464,11.0828,1567
20201,-13.6877,6.7217,4.0378,1548
20206,11.5987,6.0549,10.4279,1544
20211,9.6762,-3.4141,14.5687,1543
20216,-9.5996,-2.2517,15.5779,1545
20221,-13.8768,2.5726,6.3171,1549
20226,0.6297,7.2939,5.2325,1544
20231,15.7646,0.6812,14.443,1547
20236,-0.4752,-4.0869,15.8496,1544
20241,-10.756,-0.3974,9.6702,1573
20246,-11.0923,7.0425,3.6272,1531
20251,13.6481,5.8646,12.396,1553
20256,7.5465,-4.0067,14.5208,1545
20261,-10.2472,-1.743,14.4921,1567
20266,-14.4155,3.7002,5.8287,1532
20271,4.1719,7.3622,6.5924,1579
20276,14.7435,-0.9601,13.9043,1531
20281,-3.146,-3.3076,16.362,1571
20286,-11.8585,0.0048,8.6562,1555
20291,-8.1642,7.1934,3.3603,1525
20296,15.093,5.1415,13.7619,1543
20301,5.0147,-4.3874,14.7722,1553
20306,-10.3489,-1.4844,12.9897,1557
20311,-14.3485,4.8231,5.2948,1563
20316,7.5441,7.4903,8.3438,1560
20321,13.2938,-2.4864,13.7355,1547
20326,-5.4684,-2.5367,16.5092,1544
20331,-13.198,0.7542,7.774,1567
20336,-4.6735,7.1886,3.4417,1532
20341,15.791,3.735,14.5232,1533
20346,2.6121,-4.4903,15.3612,1545
20351,-10.4351,-1.1564,11.3222,1555
20356,-13.5308,5.9675,4.5705,1559
20361,10.495,7.2341,10.2364,1553
20366,11.3629,-3.6069,13.9127,1547
20371,-7.3849,-1.9441,15.9633,1515
20376,-14.2479,1.9273,6.9025,1544
20381,-1.1289,7.0976,4.2521,1543
20386,15.4282,1.7346,14.6358,1555
20391,-0.0287,-4.2234,15.8376,1545
20396,-10.501,-0.595,9.8294,1562
20401,-11.6873,6.7816,4.0749,1553
20406,13.0233,6.5817,12.0309,1553
20411,9.1375,-4.2677,14.212,1531
20416,-8.8202,-1.5048,14.8836,1565
20421,-14.9386,3.2609,6.1746,1531
20426,2.5127,6.8235,5.3594,1547
20431,14.5113,0.1448,14.6501,1532
20436,-3.2118,-3.7038,16.3536,1547
20441,-10.8721,-0.152,8.4791,1561
20446,-8.9316,7.106,3.8295,1555
20451,14.959,5.776,13.4351,1529
20456,6.9827,-4.6543,14.6693,1541
20461,-9.3972,-1.1516,13.5428,1555
20466,-15.1517,4.5861,5.4037,1543
20471,5.7748,6.6403,6.8869,1553
20476,13.204,-1.2797,14.5699,1545
20481,-6.2656,-3.1639,16.5679,1580
20486,-11.7711,0.6728,7.4172,1553
20491,-5.6671,7.2927,3.978,1543
20496,15.925,4.3874,14.2802,1541
20501,4.4616,-4.7429,15.2834,1563
20506,-9.6223,-0.9182,11.9231,1557
20511,-14.4287,5.764,4.604,1565
20516,8.7388,6.5015,8.7724,1513
20521,11.4455,-2.4995,14.5807,1543
20526,-8.8621,-2.7078,16.2123,1533
20531,-12.7192,1.5718,6.5685,1557
20536,-2.2098,7.2628,4.5669,1527
20541,16.2746,2.5893,14.4334,1592
20546,1.7514,-4.6328,15.9059,1553
20551,-10.1562,-0.6644,10.5093,1559
20556,-12.8186,6.5146,3.972,1543
20561,11.3916,6.3877,10.7571,1547
20566,9.4224,-3.559,14.5567,1543
20571,-10.3214,-2.4253,15.4833,1547
20576,-13.5991,2.6276,6.0633,1532
20581,1.3036,7.4484,5.6575,1542
20586,15.6736,0.565,13.9187,1559
20591,-1.0247,-4.0809,16.3404,1553
20596,-11.0181,-0.4621,9.5074,1561
20601,-10.4519,7.0102,3.5781,1530
20606,13.8888,6.1687,12.5181,1549
20611,6.8223,-4.2186,14.6681,1523
20616,-10.4004,-2.0806,14.3173,1571
20621,-14.4215,3.723,5.7664,1542
20626,5.2684,7.7716,7.203,1565
20631,14.1342,-1.2881,13.4255,1541
20636,-3.7062,-3.2585,16.7438,1567
20641,-12.1171,-0.1305,8.5988,1553
20646,-7.3646,7.2772,3.2741,1559
20651,15.1661,5.1116,13.4901,1530
20656,3.7601,-4.4436,14.9506,1544
20661,-9.3158,-1.804,12.6366,1547
20666,-14.9841,5.0853,5.3474,1557
20671,9.3111,8.1056,8.8597,1547
20676,12.4367,-2.8335,13.392,1545
20681,-5.2206,-2.3822,16.5296,1560
20686,-14.3485,0.6452,7.908,1563
20691,-3.8726,7.5585,3.1735,1527
20696,15.7431,3.2274,14.2036,1549
20701,1.5287,-4.525,15.3827,1542
20706,-9.6486,-1.3204,11.3665,1557
20711,-14.1665,6.4033,4.5215,1556
20716,12.2954,7.3358,10.5919,1533
20721,10.2568,-3.5829,13.8959,1553
20726,-6.7816,-2.0698,15.8604,1561
20731,-15.5958,2.0638,7.0354,1553
20736,0.2837,7.3514,3.8786,1544
20741,14.3628,1.573,14.5196,1563
20746,-1.1109,-4.7142,15.864,1547
20751,-9.6247,-0.7254,10.0497,1563
20756,-12.1326,7.2437,4.0199,1561
20761,15.1864,6.2872,12.0141,1565
20766,8.2696,-4.2222,14.2934,1531
20771,-5.3486,-2.0961,16.016,1565
20776,-17.0707,3.5147,6.2273,1567
20781,-1.8447,7.525,2.9688,1555
20786,12.5983,0.4932,14.9015,1543
20791,-0.0251,-4.6651,15.4019,1565
20796,-10.24,0.0132,8.8502,1580
20801,-13.3812,6.9109,4.2413,1553
20806,16.8839,4.9608,13.4434,1541
20811,9.7384,-3.9085,14.3927,1543
20816,-8.5736,-1.3204,13.8241,1555
20821,-16.7941,2.8264,6.5637,1554
20826,7.6231,5.6611,5.8143,1547
20831,14.103,1.5634,16.0364,1531
20836,-6.6068,-3.65,16.4242,1557
20841,-9.7659,-0.2394,9.074,1559
20846,-5.2672,7.4819,3.7852,1547
20851,15.5839,5.5689,12.9981,1543
20856,4.0857,-4.3108,15.2511,1554
20861,-8.4384,-1.1851,14.3341,1550
20866,-15.3935,6.5182,4.0294,1561
20871,5.4312,5.9221,4.9045,1556
20876,10.3262,-1.9992,15.4222,1545
20881,-5.9125,-3.887,16.3452,1546
20886,-12.8868,2.0171,6.5793,1547
20891,-7.009,7.4998,3.6751,1529
20896,16.7211,1.9297,14.9338,1563
20901,5.3091,-4.6316,15.1876,1545
20906,-10.2819,-0.7673,10.5872,1625
20911,-15.7993,5.7604,4.6914,1531
20916,8.2301,5.843,7.0773,1555
20921,11.1869,-1.4581,15.4929,1530
20926,-7.9871,-3.4716,16.3871,1571
20931,-12.2906,1.4449,7.015,1546
20936,-3.5027,7.5573,4.039,1543
20941,16.8336,2.727,14.5951,1544
20946,2.7043,-4.5813,15.5851,1545
20951,-10.0533,-0.9924,11.4682,1556
20956,-14.4023,6.8247,3.8247,1546
20961,11.637,5.8562,9.572,1548
20966,9.4032,-2.8874,14.9769,1527
20971,-9.4284,-2.8575,15.779,1561
20976,-14.0336,2.4972,6.4069,1529
20981,0.4118,7.3933,4.7704,1554
20986,15.9083,0.7901,14.5089,1544
20991,-0.3436,-4.1132,16.0902,1573
20996,-10.8242,-0.7661,10.0078,1544
21001,-11.7807,7.3885,3.3327,1559
21006,14.2084,5.7353,12.1051,1533
21011,7.167,-3.8188,14.7327,1545
21016,-9.4906,-2.2122,14.6777,1559
21021,-15.2702,3.8475,5.8574,1553
21026,4.543,7.3071,6.1746,1546
21031,14.3293,-0.9936,14.2599,1544
21036,-2.9951,-3.4716,16.3668,1546
21041,-12.1602,-0.1245,8.8478,1563
21046,-8.2732,7.6447,3.0598,1543
21051,15.7886,4.6627,13.7367,1563
21056,4.7621,-4.2713,14.8812,1543
21061,-9.3637,-1.6879,13.1011,1567
21066,-15.4402,5.1607,5.1332,1543
21071,8.5293,7.0856,7.9523,1541
21076,12.3948,-2.2936,14.1402,1529
21081,-5.363,-2.6121,16.5044,1555
21086,-13.6936,0.7386,7.8973,1544
21091,-4.2868,7.3789,3.0011,1528
21096,15.9681,3.4213,14.7603,1549
21101,1.9297,-4.3431,15.3684,1559
21106,-9.2392,-1.3156,11.23,1561
21111,-14.2527,6.3279,4.4089,1530
21116,11.9112,6.9947,10.0054,1541
21121,10.6147,-3.2106,14.3473,1533
21126,-7.0162,-1.8914,15.9095,1577
21131,-15.3013,2.0566,6.8917,1543
21136,-0.2251,6.8283,3.4429,1561
21141,15.1314,2.2434,15.4366,1549
21146,-1.2318,-4.3155,15.9083,1559
21151,-9.7241,-0.7913,9.4739,1559
21156,-11.6801,7.0066,3.9756,1548
21161,14.279,6.5122,12.1985,1529
21166,8.7508,-4.209,14.5651,1563
21171,-8.3019,-1.5778,14.8129,1548
21176,-16.1477,3.6069,5.9388,1554
21181,3.6619,6.4967,4.7633,1533
21186,14.2012,0.2909,15.2355,1553
21191,-4.3167,-3.7924,16.5846,1553
21196,-11.0792,-0.1915,8.2121,1550
21201,-8.3199,7.2616,3.5805,1531
21206,15.5875,5.6072,13.5979,1545
21211,5.9245,-4.5693,15.0763,1549
21216,-9.0273,-1.5921,13.1071,1555
21221,-15.8149,4.8937,5.1511,1547
21226,7.3765,6.8019,7.1515,1545
21231,12.2823,-1.5299,14.4729,1527
21236,-6.6068,-3.3459,16.7846,1559
21241,-12.6689,0.6093,7.4795,1545
21246,-4.7118,7.3526,3.723,1543
21251,16.0603,3.7385,14.1569,1567
21256,2.9916,-4.5993,15.5228,1548
21261,-9.5409,-1.4425,11.5365,1575
21266,-14.5891,6.1196,4.367,1545
21271,11.0361,6.9635,9.7252,1559
21276,10.3334,-3.0179,14.1844,1533
21281,-7.8039,-2.551,16.1956,1583
21286,-14.4921,1.8052,6.8738,1553
21291,-0.4992,7.197,4.2437,1560
21296,15.4318,1.7681,14.2108,1542
21301,-0.2227,-4.1444,16.2291,1561
21306,-9.9503,-1.1552,10.0054,1547
21311,-12.2128,6.7648,3.79,1545
21316,13.9163,6.8259,12.0165,1529
21321,8.078,-3.7745,14.2754,1561
21326,-8.6048,-2.0423,14.9949,1611
21331,-15.7347,3.0143,6.1627,1554
21336,3.7314,7.1251,5.4971,1541
21341,14.1066,0.1269,13.9941,1553
21346,-3.2489,-3.3926,16.933,1547
21351,-11.1223,-0.68,8.7089,1561
21356,-8.8969,7.0916,3.3172,1529
21361,15.5156,5.9664,13.4518,1555
21366,5.7521,-4.1922,14.8033,1559
21371,-9.068,-1.7226,13.2555,1555
21376,-15.6605,4.5622,5.2517,1549
21381,7.434,7.088,7.5693,1529
21386,12.6067,-1.5993,14.0001,1544
21391,-5.8826,-2.7665,16.842,1559
21396,-12.7695,0.3998,7.6207,1543
21401,-4.8602,7.1132,3.4596,1545
21406,15.9586,4.1767,14.3485,1561
21411,3.0155,-4.3682,15.5994,1556
21416,-9.4475,-1.4377,11.3749,1577
21421,-14.3473,5.8335,4.4508,1545
21426,10.726,7.0641,9.8629,1555
21431,10.7392,-2.9676,14.0839,1542
21436,-7.8614,-2.2314,16.1597,1577
21441,-14.279,1.7382,6.6427,1530
21446,-0.6572,7.021,4.1611,1565
21451,15.4594,2.0806,14.4706,1548
21456,-0.2298,-4.0869,16.4039,1555
21461,-9.9647,-1.0391,9.645,1555
21466,-11.9171,6.7074,3.717,1554
21471,13.3884,6.7014,11.983,1544
21476,8.4587,-3.9277,14.5113,1555
21481,-8.8573,-1.9501,14.795,1553
21486,-15.4007,3.3148,5.952,1563
21491,3.4117,6.9791,5.5402,1545
21496,14.382,-0.067,14.5484,1550
21501,-3.2334,-3.5925,16.6924,1544
21506,-11.2025,-0.3519,8.4455,1567
21511,-8.5808,7.1455,3.3375,1545
21516,15.3097,5.5462,13.641,1547
21521,5.7509,-4.3024,15.0116,1542
21526,-9.1782,-1.6293,13.0125,1547
21531,-15.3492,4.8794,5.1068,1551
21536,7.3622,6.8331,7.4747,1544
21541,12.633,-1.6771,14.352,1545
21546,-6.2405,-2.879,16.7558,1547
21551,-12.7575,0.6967,7.4208,1549
21556,-4.5418,7.0928,3.4213,1544
21561,15.9873,3.984,14.6549,1553
21566,2.7114,-4.3299,15.688,1545
21571,-9.4667,-1.3982,11.0935,1575
21576,-14.0121,6.0286,4.3347,1529
21581,10.7452,6.8079,9.8641,1557
21586,10.5692,-3.0466,14.4167,1544
21591,-8.2013,-2.3128,16.0052,1576
21596,-14.2108,1.9764,6.614,1531
21601,-0.2993,6.8103,4.306,1555
21606,15.4594,2.0099,14.6657,1533
21611,-0.6512,-4.0534,16.4745,1559
21616,-10.1167,-0.9768,9.3781,1557
21621,-11.1833,6.5948,3.699,1556
21626,13.5129,6.9097,12.2296,1531
21631,8.0768,-4.0043,14.6238,1549
21636,-9.2476,-2.0075,14.5998,1558
21641,-15.0488,3.383,5.9041,1555
21646,3.8571,6.9492,5.8562,1546
21651,14.1605,-0.1173,14.212,1553
21656,-4.0151,-3.4752,16.9773,1545
21661,-11.3509,-0.2981,8.2037,1559
21666,-7.8111,6.869,3.4512,1527
21671,15.1816,5.7988,13.6781,1563
21676,5.2253,-4.5107,15.1625,1555
21681,-9.3817,-1.6352,12.7575,1559
21686,-14.7902,4.7956,5.1332,1544
21691,7.8626,7.2089,8.0529,1545
21696,12.3744,-2.0518,13.9498,1544
21701,-6.705,-2.6803,16.939,1557
21706,-12.9131,0.7554,7.3275,1555
21711,-3.7098,6.9336,3.6392,1542
21716,15.7419,3.8451,14.2898,1561
21721,1.8555,-4.3443,15.8999,1533
21726,-9.5313,-1.4545,10.7021,1567
21731,-13.447,5.9101,4.4161,1541
21736,11.5053,7.3562,10.4148,1544
21741,10.1957,-3.4034,14.0384,1547
21746,-8.0876,-2.1081,16.004,1567
21751,-14.5879,1.9896,6.6918,1545
21756,0.419,6.857,4.4257,1560
21761,15.0284,1.6723,14.3245,1529
21766,-1.6448,-3.9373,16.4996,1567
21771,-10.0161,-0.9924,9.1877,1557
21776,-10.7691,6.7229,3.8702,1561
21781,14.376,6.8953,12.4403,1529
21786,7.7704,-4.1647,14.5148,1561
21791,-8.7388,-1.6508,14.4969,1547
21796,-15.6114,3.5434,5.8407,1560
21801,4.5107,6.6595,5.6994,1544
21806,13.465,-0.1496,14.2826,1541
21811,-5.284,-3.4213,17.0324,1547
21816,-11.0181,-0.2909,7.8326,1560
21821,-7.252,7.0461,3.814,1543
21826,15.949,5.5713,13.6936,1562
21831,5.1224,-4.6448,15.1613,1543
21836,-9.2835,-1.3479,12.6725,1573
21841,-15.2618,4.9763,4.9069,1549
21846,8.3366,6.7564,7.9188,1543
21851,11.9207,-2.077,14.2599,1548
21856,-7.7632,-2.5881,16.8205,1555
21861,-12.8628,0.9146,7.0198,1549
21866,-3.2034,7.0449,4.1013,1529
21871,15.9358,3.4848,14.2299,1491
21876,1.7394,-4.4029,15.9478,1554
21881,-9.6881,-1.1444,10.5632,1556
21886,-13.1897,6.0789,4.2294,1543
21891,11.5999,7.0581,10.744,1558
21896,9.7935,-3.5051,14.3137,1546
21901,-9.1901,-2.0111,15.7562,1561
21906,-14.3018,2.46,6.3303,1548
21911,1.0726,7.0126,5.0733,1555
21916,15.2654,1.0367,14.2635,1545
21921,-1.7526,-3.8966,16.5751,1567
21926,-10.5393,-0.6213,8.9208,1553
21931,-10.1873,6.7995,3.711,1547
21936,14.109,6.377,12.8664,1530
21941,7.2149,-4.3754,14.7064,1553
21946,-9.6558,-1.579,13.8768,1557
21951,-14.8632,3.9672,5.5126,1531
21956,5.1882,7.0725,6.9013,1530
21961,13.8301,-1.16,14.0851,1545
21966,-5.1858,-3.0382,16.9138,1557
21971,-11.9207,0.2095,7.6579,1555
21976,-6.2381,6.9887,3.6105,1523
21981,15.4797,4.9285,14.1545,1557
21986,4.124,-4.5526,15.4163,1547
21991,-9.7025,-1.2809,11.7938,1566
21996,-14.1378,5.3726,4.7381,1531
22001,8.9998,7.1144,9.1447,1553
22006,11.8298,-2.8072,14.0911,1523
22011,-7.8877,-2.3343,16.5092,1573
22016,-13.3668,1.4317,6.7289,1545
22021,-1.9812,6.9348,4.1934,1549
22026,15.7419,2.8048,14.5208,1519
22031,0.6273,-4.3347,16.1944,1560
22036,-10.0317,-0.9194,9.8809,1555
22041,-11.9423,6.3339,4.0785,1531
22046,12.3206,7.0054,11.5448,1541
22051,9.2835,-3.9971,14.3748,1541
22056,-9.3362,-1.7909,15.1756,1553
22061,-14.3999,2.8551,5.9771,1531
22066,2.2793,6.9204,5.4289,1555
22071,14.8764,0.4298,14.3461,1529
22076,-3.1184,-3.5518,16.9258,1549
22081,-10.8625,-0.4238,8.3462,1553
22086,-8.8155,6.778,3.5781,1555
22091,14.6992,6.2884,13.3644,1533
22096,6.2453,-4.5167,14.9817,1547
22101,-9.7372,-1.567,13.2064,1547
22106,-14.6226,4.3742,5.3175,1558
22111,6.3351,7.1467,7.4939,1545
22116,13.1669,-1.6855,13.9905,1515
22121,-6.2944,-2.8084,17.0252,1549
22126,-12.3182,0.48,7.355,1553
22131,-4.8483,6.8726,3.7146,1545
22136,15.6401,4.5203,14.1821,1565
22141,2.7593,-4.604,15.8089,1531
22146,-9.6522,-1.3982,11.0804,1571
22151,-13.526,5.5629,4.5705,1583
22156,10.3992,7.6483,10.1454,1555
22161,10.9247,-3.4105,13.8756,1543
22166,-8.5018,-2.1129,16.283,1567
22171,-13.9893,1.7011,6.6116,1547
22176,-0.3508,6.9204,4.6196,1565
22181,15.1756,2.0949,13.945,1542
22186,-1.087,-4.0654,16.7666,1549
22191,-10.0928,-1.1337,9.1794,1561
22196,-10.8493,6.3997,4.0115,1548
22201,13.4315,7.4041,12.2858,1545
22206,8.3318,-4.3012,14.3269,1547
22211,-9.2991,-1.7166,14.6381,1519
22216,-14.8249,3.2825,5.9065,1551
22221,4.0103,7.0892,6.2106,1549
22226,13.9821,-0.2717,13.6936,1549
22231,-4.8375,-3.3016,17.2562,1555
22236,-11.2252,-0.3903,7.8626,1557
22241,-7.1587,6.8474,3.8499,1544
22246,15.3648,5.9771,13.5404,1549
22251,5.1547,-4.616,15.2726,1543
22256,-9.3386,-1.573,12.4977,1553
22261,-14.6429,4.7429,5.0961,1549
22266,7.9835,7.2903,8.3558,1547
22271,11.9734,-2.1584,13.7918,1523
22276,-8.0541,-2.6228,16.9689,1549
22281,-12.6079,0.7482,6.9324,1547
22286,-3.0323,7.0988,4.3227,1555
22291,15.9418,3.6607,13.8672,1543
22296,1.658,-4.4544,16.1249,1549
22301,-9.6989,-1.3024,10.422,1615
22306,-13.0723,5.9388,4.209,1509
22311,11.6035,7.3526,10.8086,1545
22316,9.6822,-3.6703,14.0899,1543
22321,-9.5397,-2.0626,15.7862,1593
22326,-14.036,2.2374,6.2656,1471
22331,1.2893,7.197,5.5091,1561
22336,15.1661,0.9278,13.6589,1529
22341,-2.0566,-3.7086,16.8576,1579
22346,-10.4698,-0.7661,8.8214,1555
22351,-9.8881,6.5948,3.7613,1563
22356,14.2144,6.7732,12.9071,1519
22361,6.8163,-4.4101,14.6549,1592
22366,-9.8689,-1.6903,13.7942,1557
22371,-14.7219,3.79,5.5605,1560
22376,5.6599,7.4867,7.2508,1529
22381,13.6362,-1.3132,13.4566,1557
22386,-5.3953,-2.8874,17.0994,1541
22391,-11.9387,0.0227,7.756,1547
22396,-5.9017,6.857,3.796,1528
22401,15.5025,5.0099,13.8002,1565
22406,3.5602,-4.5023,15.4785,1543
22411,-9.6247,-1.476,11.6286,1557
22416,-14.0659,5.2672,4.8171,1529
22421,9.6869,7.7417,9.6247,1561
22426,11.4323,-3.0251,13.6446,1541
22431,-7.8961,-2.1596,16.5882,1557
22436,-13.6888,1.2953,6.8702,1543
22441,-1.567,7.0126,4.3622,1545
22446,15.5192,2.4995,13.9965,1532
22451,0.1233,-4.1623,16.3344,1560
22456,-9.9144,-1.1181,9.7276,1544
22461,-11.9399,6.3913,4.063,1543
22466,12.9203,7.2544,11.9387,1545
22471,8.8705,-4.027,14.127,1545
22476,-9.1937,-1.6879,15.111,1549
22481,-14.8237,2.9796,6.0178,1527
22486,2.9521,7.0773,5.709,1543
22491,14.4849,0.0611,13.9247,1533
22496,-3.4405,-3.4081,16.9426,1551
22501,-10.9188,-0.4154,8.3079,1557
22506,-8.4443,6.93,3.6907,1545
22511,15.0667,5.9544,13.5715,1543
22516,5.8299,-4.5023,14.9075,1596
22521,-9.5373,-1.488,12.9454,1549
22526,-14.8213,4.5394,5.2194,1561
22531,7.185,7.2664,7.9452,1545
22536,12.6893,-1.9597,13.9295,1528
22541,-6.7265,-2.6001,17.0216,1545
22546,-12.5504,0.5243,7.2676,1555
22551,-4.2246,6.9815,3.796,1543
22556,15.7395,4.0977,14.2347,1566
22561,2.4098,-4.4867,15.8269,1543
22566,-9.6462,-1.2917,10.8038,1565
22571,-13.3764,5.7868,4.4448,1533
22576,10.8421,7.3706,10.4782,1549
22581,10.4555,-3.4177,14.0468,1531
22586,-8.7329,-2.0806,16.0412,1563
22591,-14.0288,2.0135,6.4428,1529
22596,0.2274,6.9755,4.7752,1561
22601,15.2666,1.5945,14.1617,1533
22606,-1.2498,-4.0007,16.6421,1559
22611,-10.2699,-0.8272,9.1171,1587
22616,-10.5967,6.5637,3.8451,1559
22621,13.8002,6.8019,12.6055,1532
22626,7.6614,-4.2916,14.552,1557
22631,-9.651,-1.7166,14.2419,1547
22636,-14.8177,3.6081,5.6719,1559
22641,4.7549,7.1635,6.596,1527
22646,13.8792,-0.7877,13.9115,1549
22651,-4.889,-3.1568,17.0383,1553
22656,-11.6215,-0.067,7.8326,1559
22661,-6.6702,6.8857,3.5937,1532
22666,15.451,5.375,13.8876,1559
22671,4.2701,-4.5454,15.3385,1545
22676,-9.6474,-1.4988,12.0572,1563
22681,-14.2479,5.1547,4.8854,1549
22686,9.0058,7.4915,9.0549,1543
22691,11.8872,-2.7102,13.8217,1528
22696,-7.5346,-2.3715,16.6158,1553
22701,-13.4566,1.1217,6.9683,1542
22706,-2.2206,6.9504,4.051,1499
22711,15.5994,2.964,14.2467,1547
22716,0.413,-4.2892,16.1489,1565
22721,-9.8557,-1.2402,9.9551,1554
22726,-12.2236,6.3075,4.1994,1561
22731,12.718,7.4172,11.5939,1530
22736,9.2859,-4.0666,14.0803,1545
22741,-8.8526,-1.6951,15.2906,1555
22746,-14.9422,2.6971,6.2034,1545
22751,2.4062,6.9432,5.3139,1547
22756,14.5855,0.48,14.1342,1531
22761,-3.456,-3.4919,16.945,1565
22766,-10.7368,-0.6237,8.2923,1555
22771,-8.77,6.8079,3.7673,1543
22776,15.0883,6.5278,13.368,1544
22781,6.2177,-4.5622,14.9099,1561
22786,-9.2775,-1.5263,13.204,1544
22791,-15.099,4.294,5.2972,1567
22796,6.8199,7.1599,7.4915,1553
22801,12.6737,-1.6077,13.8888,1549
22806,-6.9216,-2.7665,17.0443,1543
22811,-12.2092,0.3472,7.2185,1555
22816,-4.5478,6.9647,3.9732,1541
22821,15.9167,4.3503,13.9343,1559
22826,2.7629,-4.5418,15.8245,1541
22831,-9.4643,-1.3048,11.1079,1559
22836,-13.7451,5.6443,4.4879,1528
22841,10.7272,7.434,10.058,1555
22846,10.4315,-3.2836,13.9235,1527
22851,-9.0764,-2.15,16.2219,1572
22856,-13.7583,1.8112,6.432,1531
22861,0.0359,7.0737,4.9177,1571
22866,15.4139,1.7226,13.878,1541
22871,-1.0283,-3.9851,16.672,1572
22876,-10.0712,-0.9948,9.2644,1559
22881,-10.92,6.4871,3.8092,1573
22886,13.7547,7.0629,12.451,1527
22891,7.604,-4.118,14.4729,1549
22896,-9.8007,-1.8435,14.4131,1547
22901,-14.7315,3.4177,5.7868,1557
22906,4.6112,7.3765,6.693,1541
22911,14.0408,-0.759,13.5739,1541
22916,-4.6316,-3.0754,17.1712,1544
22921,-11.6047,-0.3244,7.9715,1567
22926,-7.0138,6.8223,3.6117,1547
22931,15.4067,5.6491,13.8205,1555
22936,4.3874,-4.5238,15.2642,1531
22941,-9.6702,-1.579,12.1913,1559
22946,-14.3077,4.9536,4.9644,1549
22951,8.7257,7.6351,9.0106,1546
22956,12.0225,-2.6528,13.6601,1543
22961,-7.4555,-2.2817,16.7989,1547
22966,-13.2711,0.9266,7.0581,1541
22971,-2.5019,6.9061,4.027,1530
22976,15.6437,3.3052,14.2,1551
22981,0.7518,-4.2138,16.2171,1544
22986,-9.8007,-1.3647,10.0485,1557
22991,-12.4008,6.0741,4.2246,1547
22996,12.2954,7.6124,11.4431,1543
23001,9.5253,-3.9684,14.0324,1551
23006,-8.9495,-1.8076,15.4641,1556
23011,-14.6441,2.4002,6.2884,1547
23016,1.9824,6.9671,5.3103,1553
23021,14.7052,0.7638,14.0324,1533
23026,-3.0215,-3.5781,16.9821,1575
23031,-10.6745,-0.7805,8.3977,1553
23036,-9.1087,6.6415,3.8056,1557
23041,14.6693,6.7133,13.2627,1545
23046,6.5422,-4.5801,14.7818,1561
23051,-9.4391,-1.5479,13.4195,1557
23056,-14.9566,4.0654,5.4312,1559
23061,6.3243,7.2927,7.434,1545
23066,13.0879,-1.5467,13.7487,1531
23071,-6.2668,-2.7797,17.1066,1557
23076,-12.0955,0.2179,7.4304,1553
23081,-5.0135,6.8558,3.9061,1544
23086,15.6054,4.7094,13.9127,1559
23091,3.0526,-4.5669,15.6293,1553
23096,-9.5205,-1.4198,11.224,1562
23101,-13.7738,5.4121,4.6471,1541
23106,10.3058,7.6483,10.0126,1553
23111,10.8984,-3.1855,13.7714,1533
23116,-8.6263,-2.0494,16.4206,1575
23121,-13.7774,1.5155,6.6008,1544
23126,-0.5722,6.9324,4.616,1557
23131,15.3851,2.2374,13.9067,1551
23136,-0.6931,-3.9732,16.6361,1559
23141,-9.9766,-1.1301,9.3458,1559
23146,-11.2073,6.2836,3.9935,1549
23151,13.3094,7.3945,12.3433,1481
23156,8.2313,-4.2162,14.3401,1555
23161,-9.487,-1.6664,14.6681,1559
23166,-14.7686,3.1184,5.8778,1559
23171,3.8654,7.1922,6.2704,1559
23176,14.1785,-0.4094,13.6649,1541
23181,-4.4029,-3.1232,17.17,1548
23186,-11.224,-0.3926,7.92,1547
23191,-7.4053,6.7971,3.7601,1545
23196,15.099,5.8586,13.8098,1546
23201,5.0589,-4.628,15.1038,1547
23206,-9.6319,-1.476,12.3445,1543
23211,-14.4921,4.695,5.0266,1547
23216,8.0409,7.5753,8.7388,1549
23221,12.3481,-2.4948,13.6146,1533
23226,-7.3777,-2.2733,16.8719,1543
23231,-12.9658,0.7266,7.0006,1553
23236,-3.0957,6.9336,4.1324,1542
23241,15.5851,3.535,14.048,1557
23246,1.4545,-4.3515,16.0974,1547
23251,-9.833,-1.2258,10.1801,1581
23256,-12.6246,5.8718,4.294,1530
23261,11.6861,7.6267,11.2599,1547
23266,9.9719,-3.8678,13.9355,1548
23271,-9.2392,-1.6795,15.7012,1574
23276,-14.2934,2.2063,6.2405,1547
23281,1.4174,7.0126,5.3355,1567
23286,14.9039,1.0367,13.8636,1545
23291,-2.375,-3.6356,16.9306,1565
23296,-10.6135,-0.7781,8.5269,1548
23301,-9.3446,6.5098,3.8523,1555
23306,14.0707,6.8091,13.1502,1543
23311,7.0354,-4.6124,14.6657,1555
23316,-9.7396,-1.4509,13.5787,1551
23321,-14.5807,3.8283,5.4636,1567
23326,5.6862,7.3011,7.4005,1541
23331,13.538,-1.3898,13.6685,1545
23336,-5.964,-2.7761,17.1078,1543
23341,-11.9531,0.2286,7.3526,1555
23346,-5.3295,6.8223,3.8954,1530
23351,15.3792,4.9309,14.0216,1553
23356,3.4321,-4.6268,15.6964,1548
23361,-9.748,-1.3132,11.1797,1579
23366,-13.5955,5.3882,4.6519,1548
23371,9.6367,7.5609,9.9671,1560
23376,11.4419,-3.2489,13.9283,1542
23381,-8.4851,-2.0877,16.3584,1557
23386,-13.6062,1.5598,6.4667,1533
23391,-0.8787,6.9803,4.6268,1541
23396,15.3863,2.2565,14.2012,1529
23401,-0.4405,-4.1348,16.5116,1559
23406,-10.1514,-0.8739,9.2895,1545
23411,-11.1019,6.3722,3.9971,1544
23416,12.9526,7.1886,12.2739,1529
23421,8.5988,-4.361,14.3628,1549
23426,-9.566,-1.6125,14.5986,1551
23431,-14.6058,3.1675,5.7748,1541
23436,3.6368,7.1323,6.2884,1555
23441,14.3018,-0.3448,13.9486,1544
23446,-4.3132,-3.2609,17.1138,1546
23451,-11.2563,-0.2921,7.8326,1549
23456,-7.367,6.7289,3.6919,1531
23461,14.9518,5.9819,13.7463,1549
23466,5.126,-4.6483,15.2104,1543
23471,-9.6414,-1.5227,12.293,1546
23476,-14.285,4.6519,5.0266,1554
23481,7.9583,7.5046,8.6754,1543
23486,12.3852,-2.399,13.7116,1544
23491,-7.5381,-2.4074,16.9438,1553
23496,-12.8844,0.7614,6.9204,1549
23501,-2.9724,6.8474,4.1288,1529
23506,15.4965,3.7529,14.0863,1565
23511,1.4425,-4.4233,16.2315,1543
23516,-9.7875,-1.2941,10.1861,1566
23521,-12.5169,5.8059,4.312,1527
23526,11.625,7.604,11.2336,1551
23531,9.8857,-3.893,14.0085,1545
23536,-9.159,-1.7597,15.6808,1574
23541,-14.1497,2.2613,6.1986,1529
23546,1.4832,7.0425,5.3498,1560
23551,14.862,0.9816,13.7846,1544
23556,-2.551,-3.7038,16.9773,1563
23561,-10.5177,-0.7757,8.5976,1554
23566,-9.396,6.5434,3.8714,1561
23571,14.3137,6.8426,13.0424,1549
23576,6.7756,-4.555,14.704,1545
23581,-9.578,-1.5802,13.641,1560
23586,-14.7207,3.9133,5.533,1549
23591,5.9687,7.3574,7.4005,1532
23596,13.2256,-1.4988,13.6051,1553
23601,-6.0298,-2.7569,17.097,1553
23606,-11.9938,0.1209,7.4603,1555
23611,-5.3115,6.8666,3.8235,1532
23616,15.5587,4.7968,13.9115,1559
23621,3.2645,-4.5215,15.5886,1543
23626,-9.5469,-1.318,11.4479,1560
23631,-13.8385,5.3355,4.7621,1531
23636,10.0688,7.5693,9.9072,1545
23641,10.9571,-3.1963,13.6936,1531
23646,-8.4647,-1.9932,16.4063,1556
23651,-13.702,1.4892,6.6068,1533
23656,-0.6704,6.9947,4.689,1557
23661,15.4103,2.1201,14.0456,1543
23666,-0.5315,-3.9636,16.5332,1563
23671,-10.0712,-0.9996,9.4248,1559
23676,-11.2001,6.3398,4.0318,1555
23681,13.3237,7.2018,12.2044,1529
23686,8.1582,-4.2294,14.2766,1541
23691,-9.5325,-1.6305,14.6968,1546
23696,-14.7136,3.1113,5.8957,1549
23701,3.9564,7.1611,6.3614,1557
23706,14.0827,-0.4334,13.708,1528
23711,-4.3191,-3.1795,16.9761,1561
23716,-11.3545,-0.3208,7.9703,1547
23721,-7.3801,6.8319,3.7721,1549
23726,15.1852,5.6731,13.6709,1533
23731,4.9428,-4.5933,15.0859,1543
23736,-9.7408,-1.33,12.4666,1554
23741,-14.4574,4.7692,5.0745,1553
23746,8.2337,7.3765,8.7376,1533
23751,12.1853,-2.6109,13.714,1527
23756,-7.264,-2.2314,16.696,1543
23761,-13.0017,0.9206,7.0413,1549
23766,-2.9305,6.9121,4.1575,1547
23771,15.6485,3.2226,14.1545,1564
23776,1.2366,-4.294,16.0052,1555
23781,-9.8869,-1.0534,10.1969,1565
23786,-12.5576,5.964,4.3191,1544
23791,11.9698,7.3933,11.3006,1559
23796,9.6534,-3.9241,14.0276,1544
23801,-9.1542,-1.6149,15.4546,1579
23806,-14.3257,2.3846,6.3458,1547
23811,1.7262,7.0078,5.5617,1567
23816,14.8381,0.6129,13.9235,1531
23821,-2.7043,-3.5111,16.8073,1571
23826,-10.671,-0.6369,8.5533,1553
23831,-9.1219,6.5685,3.9037,1557
23836,14.4849,6.6068,13.2208,1543
23841,6.5374,-4.5286,14.6896,1560
23846,-9.7205,-1.3467,13.4219,1548
23851,-14.6621,4.0163,5.4528,1560
23856,6.268,7.2915,7.683,1547
23861,13.198,-1.6891,13.6039,1557
23866,-6.2249,-2.5546,17.0647,1545
23871,-12.1985,0.3041,7.3622,1553
23876,-4.8375,6.8211,3.9037,1541
23881,15.5515,4.5167,14.0408,1558
23886,2.9808,-4.4532,15.6365,1544
23891,-9.809,-1.1229,11.0648,1560
23896,-13.3022,5.5749,4.5777,1549
23901,10.2185,7.3394,10.1047,1555
23906,11.0145,-3.3639,13.957,1529
23911,-8.6335,-1.8735,16.1752,1566
23916,-13.7068,1.9441,6.4536,1543
23921,-0.4633,6.8534,4.6747,1549
23926,15.5791,1.7837,14.6154,1583
23931,-0.808,-3.9277,16.2482,1559
23936,-10.5058,-0.4214,9.1423,1558
23941,-10.6015,6.6619,3.8583,1553
23946,13.2088,6.3913,12.633,1531
23951,8.2576,-4.4664,14.5053,1554
23956,-9.8198,-1.2186,14.291,1555
23961,-14.388,3.79,5.4959,1547
23966,3.7697,6.7672,6.4177,1549
23971,14.3688,-0.9397,14.6202,1541
23976,-4.6819,-3.1999,16.5296,1557
23981,-11.6981,0.5076,7.6387,1561
23986,-6.7528,6.9408,3.8571,1531
23991,15.026,4.8495,14.2706,1553
23996,4.8267,-4.8961,15.0619,1543
24001,-10.2747,-0.8056,12.0273,1558
24006,-13.7116,5.2828,4.786,1544
24011,7.9452,6.7935,8.9986,1542
24016,12.4103,-3.067,14.2647,1534
24021,-7.6555,-2.2541,16.1381,1558
24026,-13.0364,1.7262,6.79,1548
24031,-2.569,7.009,4.5071,1533
24036,15.694,2.2733,14.6214,1557
24041,0.9637,-4.5633,15.603,1549
24046,-10.5536,-0.3112,10.0963,1561
24051,-11.6873,6.4536,4.2318,1531
24056,11.6897,6.3853,11.6777,1509
24061,9.7157,-4.2964,14.2814,1555
24066,-9.505,-1.4006,14.9745,1561
24071,-14.0959,3.2406,5.9209,1550
24076,2.0674,6.8869,5.9101,1549
24081,15.0296,-0.1604,14.4095,1531
24086,-3.152,-3.5973,16.4015,1565
24091,-11.23,0.2167,8.3199,1553
24096,-8.2193,6.875,3.9684,1549
24101,14.3664,5.4899,13.4877,1533
24106,6.2417,-4.7333,14.8117,1563
24111,-10.1394,-0.9984,12.9694,1547
24116,-14.0743,4.6759,5.1368,1559
24121,6.5817,7.0198,8.1535,1549
24126,13.2244,-2.2194,13.9295,1547
24131,-6.6822,-2.5977,16.6134,1547
24136,-12.4941,1.008,7.1479,1548
24141,-3.9157,6.8893,4.2054,1553
24146,15.5479,3.6811,14.2228,1560
24151,2.2613,-4.622,15.7227,1544
24156,-10.2604,-0.7901,10.6362,1572
24161,-12.4032,5.8849,4.4329,1533
24166,10.5357,7.0485,10.7655,1548
24171,10.7021,-3.8176,14.0731,1531
24176,-9.1147,-1.6867,15.6868,1572
24181,-13.7331,2.411,6.2165,1549
24186,0.5375,6.9216,5.3343,1561
24191,15.3313,1.0965,14.2623,1547
24196,-1.8375,-3.8894,16.4565,1561
24201,-10.8793,-0.2227,8.746,1555
24206,-9.3913,6.5589,4.0007,1559
24211,13.5799,6.3375,12.9431,1545
24216,7.495,-4.8375,14.522,1559
24221,-10.161,-1.1085,13.714,1555
24226,-14.0444,3.9504,5.4121,1559
24231,5.0733,7.082,7.4268,1545
24236,13.8409,-1.4377,13.7726,1545
24241,-5.8634,-2.8264,16.8815,1547
24246,-11.9638,0.4142,7.3957,1560
24251,-5.2876,6.7086,4.1659,1545
24256,15.0859,4.871,13.7559,1555
24261,3.5267,-4.9273,15.4618,1559
24266,-10.161,-1.0654,11.3844,1559
24271,-13.1717,5.1296,4.8411,1544
24276,9.4427,7.7656,10.1514,1556
24281,11.4503,-3.4931,13.4422,1545
24286,-8.5305,-1.8914,16.3692,1563
24291,-13.4458,1.5526,6.6343,1533
24296,-0.8104,7.1048,5.1858,1555
24301,15.1697,1.9321,13.453,1531
24306,-0.5327,-4.2102,16.3356,1561
24311,-10.4974,-0.656,9.5541,1553
24316,-10.8912,6.3231,4.3479,1549
24321,13.0161,7.088,12.2404,1543
24326,8.3378,-4.6005,14.0552,1555
24331,-9.6247,-1.2486,14.6884,1559
24336,-14.5532,3.2118,5.9041,1532
24341,4.0103,7.4352,6.918,1545
24346,14.1629,-0.9541,13.2699,1541
24351,-4.2641,-3.1699,16.8109,1553
24356,-11.6586,-0.0862,8.1331,1547
24361,-7.0461,6.9348,4.0797,1543
24366,15.1984,5.1763,13.3836,1545
24371,4.7788,-4.6436,14.8991,1547
24376,-9.9096,-0.9804,12.4858,1549
24381,-14.0983,4.8339,5.1463,1559
24386,8.6347,7.5645,9.2727,1531
24391,11.9447,-2.7162,13.2902,1519
24396,-7.7081,-1.9932,16.7283,1609
24401,-13.0939,0.9625,6.9516,1554
24406,-2.3296,7.021,4.537,1541
24411,15.5575,2.9161,13.7116,1565
24416,0.9673,-4.2341,15.9801,1543
24421,-10.1706,-0.9661,10.1957,1579
24426,-12.1027,6.0753,4.3862,1530
24431,12.287,7.2604,11.6442,1564
24436,9.3996,-4.2234,13.8229,1529
24441,-9.2404,-1.3252,15.2283,1565
24446,-14.3676,2.7078,6.1316,1547
24451,2.2685,7.1156,6.0346,1571
24456,14.8117,-0.012,13.7379,1553
24461,-2.8611,-3.4333,16.4685,1561
24466,-11.236,-0.0599,8.5365,1560
24471,-8.424,6.845,3.9983,1559
24476,14.5819,5.6455,13.3956,1531
24481,6.1543,-4.7106,14.522,1559
24486,-10.0221,-0.9218,13.2435,1557
24491,-14.2659,4.4628,5.3235,1565
24496,6.7888,7.1371,8.2935,1545
24501,12.9323,-2.3056,13.72,1557
24506,-6.4308,-2.4553,16.4613,1551
24511,-12.5181,0.8583,7.2891,1548
24516,-4.1216,6.9683,4.3275,1541
24521,15.6102,3.3782,13.9462,1557
24526,2.3918,-4.5574,15.4462,1549
24531,-10.2125,-0.6991,11.0361,1574
24536,-12.9119,5.7796,4.6316,1547
24541,10.9008,7.0485,10.7356,1547
24546,10.3717,-3.8583,13.7906,1527
24551,-8.7041,-1.5634,15.6497,1571
24556,-14.0336,2.1859,6.5242,1529
24561,0.6788,7.0378,5.4719,1565
24566,15.0703,0.6979,13.7427,1530
24571,-1.5455,-3.9061,16.1489,1567
24576,-10.8924,-0.2873,9.2404,1555
24581,-9.8258,6.6379,4.1863,1556
24586,14.0372,6.2153,12.7072,1543
24591,7.0425,-4.5418,14.2347,1559
24596,-9.6343,-1.0271,14.0552,1556
24601,-14.6729,3.8331,5.7593,1549
24606,5.5665,7.2544,7.4543,1545
24611,13.3345,-1.6867,13.4327,1545
24616,-5.1679,-2.715,16.4793,1553
24621,-12.129,0.3711,7.9164,1560
24626,-5.7389,7.0844,4.0785,1544
24631,15.7969,4.13,13.7415,1549
24636,3.5267,-4.4915,15.0428,1545
24641,-9.8629,-0.8176,11.8788,1561
24646,-13.9378,5.381,4.8171,1543
24651,10.1454,7.2365,9.8904,1557
24656,10.8852,-3.2789,13.5787,1533
24661,-8.011,-1.5467,16.1908,1555
24666,-13.6948,1.5131,6.8366,1543
24671,-0.8428,6.9288,4.786,1541
24676,15.512,1.8783,13.939,1547
24681,-0.4729,-3.7194,16.2123,1558
24686,-10.1993,-0.8787,9.5337,1545
24691,-11.2097,6.2345,4.1551,1544
24696,13.4997,7.1479,12.3972,1547
24701,8.0852,-4.2114,14.0181,1529
24706,-9.4296,-1.2917,14.6765,1553
24711,-14.7016,3.0107,5.9807,1545
24716,4.0055,7.2042,6.6511,1556
24721,14.0073,-0.662,13.4123,1532
24726,-4.2832,-2.8287,16.8983,1553
24731,-11.4323,-0.2502,8.0302,1557
24736,-7.1826,6.7493,3.9516,1531
24741,15.2199,5.5486,13.6984,1544
24746,4.8303,-4.5418,14.9781,1551
24751,-9.7899,-1.16,12.3481,1555
24756,-14.2096,4.7178,5.12,1559
24761,8.4815,7.5669,9.2201,1542
24766,12.0512,-2.7833,13.3393,1545
24771,-7.5405,-1.9609,16.6469,1553
24776,-13.0316,0.8104,7.0198,1549
24781,-2.4804,6.7564,4.5346,1545
24786,15.4175,3.0873,13.7379,1559
24791,0.899,-4.1839,16.1094,1555
24796,-9.9766,-1.2175,10.0209,1572
24801,-11.9183,5.6802,4.4652,1533
24806,12.2272,7.8422,11.7076,1556
24811,9.2883,-3.9971,13.7212,1548
24816,-9.2955,-1.5574,15.4701,1573
24821,-14.2347,2.1859,6.3087,1544
24826,2.484,7.2604,6.0885,1560
24831,14.4263,0.3484,12.9574,1545
24836,-3.2585,-3.2166,17.0814,1567
24841,-10.8014,-0.9098,8.3977,1555
24846,-8.4695,6.4332,4.1695,1559
24851,14.5974,6.7265,13.0723,1528
24856,5.8766,-4.5215,14.5951,1555
24861,-9.5744,-1.4449,13.1585,1557
24866,-14.6046,3.9409,5.5785,1565
24871,7.1383,7.8027,8.3582,1555
24876,12.56,-2.1919,12.8784,1545
24881,-6.4943,-2.2733,16.9378,1548
24886,-12.5277,0.2861,7.5226,1545
24891,-4.1707,6.9468,4.3371,1546
24896,15.5132,3.9109,13.4877,1557
24901,2.1895,-4.3407,15.6485,1545
24906,-9.8821,-1.1959,10.8697,1556
24911,-13.1609,5.5605,4.6675,1531
24916,11.2587,7.7883,10.9116,1563
24921,10.094,-3.814,13.4734,1544
24926,-8.7819,-1.5933,15.9107,1565
24931,-14.0935,1.816,6.6176,1547
24936,0.7314,7.2125,5.5713,1557
24941,14.9662,0.9481,13.2268,1545
24946,-1.6113,-3.6943,16.4865,1562
24951,-10.6937,-0.7913,9.1447,1559
24956,-9.918,6.3183,4.2377,1543
24961,14.1545,6.8797,12.7755,1531
24966,7.0988,-4.6064,14.1497,1546
24971,-9.7492,-1.1851,14.0145,1546
24976,-14.625,3.4512,5.8311,1545
24981,5.6731,7.6674,7.7321,1543
24986,13.3381,-1.549,12.8114,1557
24991,-5.4456,-2.5642,16.9701,1544
24996,-11.8693,-0.067,7.8829,1551
25001,-5.6599,6.778,4.294,1529
25006,15.4306,4.7824,13.3656,1551
25011,3.5362,-4.4915,15.214,1543
25016,-9.7863,-1.1648,11.7352,1553
25021,-13.7571,4.9644,5.0302,1555
25026,9.9946,7.926,10.1466,1545
25031,11.1019,-3.3076,13.1142,1547
25036,-8.1786,-1.6017,16.4398,1533
25041,-13.5284,1.1947,6.8821,1549
25046,-0.9098,6.9971,5.0829,1533
25051,15.281,2.0303,13.2675,1553
25056,-0.3041,-3.8295,16.277,1547
25061,-10.2424,-0.9445,9.596,1561
25066,-11.0576,6.1112,4.3658,1532
25071,13.149,7.3526,12.3373,1548
25076,8.3103,-4.3455,13.8385,1541
25081,-9.651,-1.2127,14.7698,1559
25086,-14.4227,2.9497,5.9532,1549
25091,3.7445,7.2951,6.7552,1543
25096,14.0971,-0.6249,13.1693,1545
25101,-4.1839,-2.9868,16.7774,1563
25106,-11.4551,-0.1975,8.1008,1557
25111,-7.2269,6.7696,4.1073,1545
25116,15.0619,5.527,13.556,1528
25121,5.0087,-4.7178,14.8201,1557
25126,-10.0329,-0.9505,12.4439,1544
25131,-14.0288,4.6938,5.1236,1565
25136,8.2468,7.5513,9.2488,1531
25141,12.2248,-2.9712,13.3201,1529
25146,-7.4448,-1.9884,16.532,1548
25151,-13.0233,1.0211,6.9791,1544
25156,-2.6336,6.9623,4.6878,1547
25161,15.4211,2.9269,13.7403,1571
25166,1.0714,-4.391,15.8113,1543
25171,-10.4698,-0.8021,10.2436,1575
25176,-11.904,5.8562,4.5322,1555
25181,11.8082,7.4903,11.7448,1565
25186,9.6007,-4.3634,13.6829,1528
25191,-9.3541,-1.3408,15.3169,1566
25196,-14.1701,2.4265,6.213,1545
25201,2.156,7.3933,6.3985,1557
25206,14.6274,-0.0479,13.0532,1533
25211,-2.8335,-3.4512,16.6589,1573
25216,-11.1809,-0.3316,8.6359,1547
25221,-8.6012,6.6523,4.2509,1551
25226,14.4753,6.1639,13.0699,1527
25231,6.2776,-4.853,14.4658,1565
25236,-10.0149,-1.0175,13.2351,1545
25241,-14.4275,4.1372,5.5366,1561
25246,6.8019,7.7405,8.5952,1557
25251,12.9969,-2.3667,13.0245,1559
25256,-6.3494,-2.4002,16.7163,1553
25261,-12.6988,0.5578,7.3586,1553
25266,-4.2413,7.1048,4.5873,1543
25271,15.3612,3.5781,13.4578,1563
25276,2.5821,-4.6783,15.4067,1553
25281,-10.4411,-0.7913,11.1749,1565
25286,-13.0723,5.6958,4.7824,1544
25291,10.8529,7.6124,11.0301,1555
25296,10.6362,-4.1324,13.441,1533
25301,-8.6239,-1.5143,15.706,1573
25306,-14.2072,2.0937,6.4763,1549
25311,0.5818,7.5082,5.8371,1555
25316,15.2056,0.4944,13.3046,1545
25321,-1.3755,-3.8583,16.1513,1559
25326,-11.2611,-0.249,9.2931,1557
25331,-10.0161,6.8187,4.2641,1547
25336,13.9726,6.2405,12.8114,1543
25341,7.5238,-4.8734,14.1509,1549
25346,-9.9443,-0.8918,13.963,1557
25351,-14.6872,3.7996,5.6156,1542
25356,5.454,7.5848,7.859,1529
25361,13.8816,-1.8627,13.2603,1550
25366,-5.114,-2.6659,16.593,1548
25371,-12.3637,0.3579,7.7548,1561
25376,-5.6024,7.088,4.3,1547
25381,15.354,4.3155,13.5943,1557
25386,3.9037,-4.81,15.0966,1555
25391,-10.3825,-0.7566,11.8082,1555
25396,-13.471,5.2924,4.8854,1529
25401,9.6845,7.4998,10.3046,1553
25406,11.5915,-3.5781,13.4159,1528
25411,-8.1032,-1.6712,16.1752,1551
25416,-13.5608,1.5874,6.7229,1533
25421,-0.8894,7.1072,5.1942,1531
25426,15.354,1.7478,13.6446,1557
25431,-0.1077,-4.0749,16.0603,1545
25436,-10.6853,-0.4729,9.6379,1565
25441,-10.8146,6.3015,4.2928,1528
25446,12.8736,6.8546,12.4211,1544
25451,8.7125,-4.5969,13.963,1543
25456,-9.7312,-0.9936,14.5747,1553
25461,-14.2742,3.2106,5.7796,1545
25466,3.7673,7.2484,6.9875,1553
25471,14.3939,-0.8248,13.4015,1525
25476,-4.3311,-2.8754,16.7857,1563
25481,-11.5676,-0.012,7.8853,1561
25486,-6.8486,6.6367,4.1683,1541
25491,14.7327,5.6084,13.6398,1532
25496,5.1284,-4.8806,15.0332,1553
25501,-10.2867,-0.9852,12.2523,1557
25506,-13.6948,4.6244,5.0218,1563
25511,7.9799,7.6998,9.5648,1553
25516,12.5229,-3.0155,13.2112,1548
25521,-7.8195,-1.9453,16.6708,1545
25526,-13.1777,1.0056,6.7289,1533
25531,-2.302,6.9372,4.9476,1541
25536,15.1086,2.9987,13.5404,1564
25541,1.0738,-4.6555,16.0172,1544
25546,-10.744,-0.7051,10.0114,1563
25551,-11.4515,5.9137,4.464,1549
25556,11.6454,7.5944,11.9159,1557
25561,10.0173,-4.7034,13.6757,1545
25566,-9.7025,-1.1768,15.2116,1581
25571,-14.1689,2.5678,5.9197,1531
25576,2.3762,7.4352,6.6128,1565
25581,14.7866,-0.0742,13.1166,1541
25586,-3.2872,-3.4225,17.0144,1568
25591,-11.5065,-0.3029,8.1247,1555
25596,-7.9523,6.5996,4.2114,1564
25601,14.0647,6.2908,13.3034,1532
25606,6.5182,-5.193,14.71,1560
25611,-10.4267,-1.0092,12.8964,1557
25616,-14.0121,4.1743,5.2182,1564
25621,6.8857,7.9021,9.0046,1549
25626,13.2615,-2.5271,13.0089,1545
25631,-6.936,-2.2338,17.0,1555
25636,-12.8329,0.5974,7.0306,1545
25641,-3.5027,6.9719,4.7094,1531
25646,15.099,3.8391,13.447,1563
25651,2.4373,-4.9009,15.9358,1541
25656,-10.5919,-0.8559,10.5082,1573
25661,-12.1913,5.4408,4.5693,1553
25666,10.7524,7.9356,11.3318,1563
25671,10.9714,-4.2737,13.4985,1531
25676,-9.3901,-1.3515,15.8269,1568
25681,-13.9283,1.974,6.1675,1529
25686,1.1085,7.3047,6.0537,1555
25691,14.8441,0.9613,13.0807,1547
25696,-2.1308,-3.8044,16.9689,1565
25701,-11.0612,-0.565,8.5461,1557
25706,-9.0261,6.3722,4.2246,1545
25711,13.4387,6.9504,12.9694,1541
25716,7.7213,-5.0985,14.4526,1548
25721,-10.1885,-0.984,13.6757,1545
25726,-14.1749,3.6691,5.4145,1547
25731,5.5653,7.7895,8.1451,1549
25736,13.8648,-1.7071,12.9706,1548
25741,-6.0274,-2.4469,17.1425,1544
25746,-12.287,0.231,7.2161,1560
25751,-4.877,6.7612,4.3455,1545
25756,14.9195,4.804,13.6936,1547
25761,3.6643,-4.9428,15.6916,1545
25766,-10.3693,-0.9697,11.0193,1553
25771,-12.8617,5.126,4.713,1555
25776,9.4822,7.9416,10.6291,1547
25781,11.8872,-3.6703,13.3453,1545
25786,-8.9411,-1.5179,16.3524,1547
25791,-13.629,1.5119,6.286,1555
25796,-0.3376,7.0318,5.4923,1551
25801,14.9554,2.1344,13.4171,1549
25806,-0.7183,-4.1934,16.8396,1549
25811,-10.8745,-0.7254,8.8562,1561
25816,-9.7827,5.9927,4.1827,1548
25821,12.4786,7.6088,12.6785,1551
25826,9.1075,-4.9859,14.121,1523
25831,-10.2388,-1.0618,14.3401,1559
25836,-14.036,3.0754,5.4612,1532
25841,4.0773,7.531,7.4531,1547
25846,14.2886,-0.6967,13.0592,1544
25851,-5.1511,-2.9257,17.4813,1561
25856,-12.0021,-0.1544,7.2987,1545
25861,-5.9005,6.4799,4.3634,1553
25866,14.0863,5.9436,13.5129,1553
25871,5.3259,-5.4743,15.3911,1565
25876,-10.5979,-1.0211,11.6574,1553
25881,-12.9454,4.3934,4.8004,1577
25886,8.1151,8.3222,9.9874,1549
25891,12.785,-3.1855,12.9143,1546
25896,-8.5497,-1.834,16.9976,1531
25901,-13.2076,0.9445,6.4177,1547
25906,-1.6005,6.8761,5.278,1543
25911,14.6573,3.2262,13.1238,1567
25916,0.6812,-4.8411,16.7522,1544
25921,-10.7751,-0.917,9.3446,1563
25926,-10.5441,5.454,4.4269,1533
25931,11.3497,8.2768,12.0632,1543
25936,10.3178,-4.8722,13.7487,1525
25941,-10.1538,-1.1887,15.1685,1567
25946,-13.9343,2.3559,5.7964,1557
25951,2.794,7.665,6.9444,1568
25956,14.5053,0.2562,12.6581,1547
25961,-4.0402,-3.3986,17.7422,1559
25966,-11.5101,-0.577,7.6938,1545
25971,-7.009,6.2177,4.2952,1555
25976,13.5165,6.9013,13.0376,1547
25981,6.6415,-5.381,15.0188,1563
25986,-10.3741,-1.2019,12.5624,1564
25991,-13.4087,3.802,5.0961,1559
25996,6.9049,8.3115,9.2608,1529
26001,13.3082,-2.2984,12.6294,1555
26006,-7.7548,-2.1548,17.6082,1546
26011,-12.8988,0.3244,6.7457,1553
26016,-2.7414,6.7229,4.9404,1543
26021,14.4406,4.3467,13.0137,1555
26026,2.0973,-4.9572,16.5451,1524
26031,-10.4842,-1.1851,9.9647,1559
26036,-11.3461,5.108,4.5466,1529
26041,10.489,8.6131,11.485,1567
26046,11.0899,-4.294,13.2723,1543
26051,-9.7875,-1.4377,15.955,1564
26056,-13.8816,1.7717,6.0537,1533
26061,1.6508,7.3837,6.3099,1560
26066,14.449,1.2773,12.5995,1545
26071,-2.6743,-3.7541,17.6393,1558
26076,-11.2563,-0.8452,8.169,1547
26081,-8.0469,5.9185,4.3539,1549
26086,13.0161,7.5645,12.8353,1546
26091,7.7812,-5.2936,14.5424,1554
26096,-10.4375,-1.1696,13.3513,1549
26101,-13.69,3.2944,5.3451,1553
26106,5.9376,8.3127,8.5832,1557
26111,13.6326,-1.6149,12.4199,1547
26116,-6.857,-2.3523,17.8595,1547
26121,-12.4858,-0.1173,7.0042,1555
26126,-3.9325,6.5098,4.6507,1546
26131,14.3066,5.2182,12.8928,1551
26136,3.3674,-5.1356,16.0878,1547
26141,-10.4196,-1.251,10.6901,1561
26146,-12.0895,4.6531,4.7214,1541
26151,9.6331,8.7867,10.9966,1547
26156,11.8178,-3.8223,12.8952,1544
26161,-9.4344,-1.4832,16.6397,1553
26166,-13.7152,1.227,6.2644,1529
26171,0.4154,7.1982,5.928,1551
26176,14.4562,2.1572,12.5121,1532
26181,-1.3336,-4.2377,17.413,1551
26186,-10.9714,-1.0439,8.7017,1556
26191,-9.1818,5.6455,4.4903,1543
26196,12.3756,8.0158,12.5145,1543
26201,8.8705,-5.1619,14.0097,1541
26206,-10.3585,-1.081,14.3341,1559
26211,-13.9259,2.7509,5.5941,1542
26216,4.8411,8.1415,8.0206,1557
26221,13.89,-1.0032,12.1302,1543
26226,-5.6743,-2.7054,17.9314,1560
26231,-12.0823,-0.4429,7.4124,1547
26236,-5.272,6.4224,4.5729,1531
26241,14.1018,5.7712,12.8652,1546
26246,4.5945,-5.1643,15.6222,1561
26251,-10.2939,-1.2222,11.7041,1547
26256,-12.9443,4.4149,4.9943,1560
26261,8.8705,8.5605,10.2137,1553
26266,12.214,-3.2477,12.6581,1547
26271,-8.4264,-1.6676,16.9426,1555
26276,-13.3836,0.8679,6.6008,1543
26281,-0.9098,7.1395,5.4097,1543
26286,14.5891,2.7258,12.8018,1563
26291,0.1305,-4.1934,16.8217,1546
26296,-10.5728,-1.1073,9.5181,1571
26301,-10.568,5.7676,4.4185,1549
26306,12.1613,7.92,12.1518,1553
26311,9.2943,-4.6412,13.7858,1541
26316,-9.7803,-1.2414,15.0021,1581
26321,-14.2263,2.5199,5.9005,1547
26326,3.65,7.604,7.0725,1559
26331,14.0851,-0.3436,12.6701,1543
26336,-4.1252,-2.9832,17.413,1563
26341,-11.6861,-0.577,7.9715,1555
26346,-6.7361,6.4763,4.2557,1565
26351,14.1078,6.1256,13.0783,1543
26356,5.5545,-4.9596,15.0691,1546
26361,-10.1574,-1.2546,12.457,1556
26366,-13.714,4.2006,5.1691,1561
26371,8.0313,8.1535,9.4451,1545
26376,12.5348,-2.6911,12.7324,1540
26381,-7.6878,-1.834,17.1461,1556
26386,-13.1537,0.4932,6.8773,1531
26391,-2.1787,6.8331,4.8219,1548
26396,14.7184,3.6033,13.0783,1559
26401,1.2079,-4.3826,16.4817,1557
26406,-10.3453,-1.2773,9.9467,1564
26411,-11.5245,5.5079,4.452,1555
26416,11.5245,8.1606,11.8202,1556
26421,10.003,-4.306,13.5236,1526
26426,-9.5289,-1.3707,15.5288,1578
26431,-14.2694,2.0985,6.0478,1547
26436,2.5821,7.5142,6.5122,1556
26441,14.2826,0.4489,12.7036,1533
26446,-3.2286,-3.2992,17.425,1567
26451,-11.3437,-0.8475,8.242,1551
26456,-7.8015,6.3063,4.2198,1559
26461,13.8457,6.8175,13.0113,1546
26466,6.6343,-4.9392,14.7686,1553
26471,-10.0521,-1.3192,13.0831,1560
26476,-14.0145,3.8056,5.2696,1559
26481,7.0294,8.0721,8.831,1555
26486,12.9993,-2.0482,12.6725,1555
26491,-7.0952,-2.0925,17.4872,1548
26496,-12.8054,0.0934,7.003,1563
26501,-3.2501,6.6906,4.5334,1544
26506,14.6106,4.5191,13.2316,1559
26511,2.3308,-4.5945,16.2375,1543
26516,-10.228,-1.4174,10.4196,1575
26521,-12.0883,5.2253,4.5454,1554
26526,10.7141,8.3869,11.3174,1547
26531,10.8266,-4.1037,13.307,1527
26536,-9.2799,-1.4605,16.0435,1553
26541,-14.036,1.7107,6.1926,1549
26546,1.3455,7.2616,6.0082,1525
26551,14.5436,1.2474,12.9155,1530
26556,-2.1177,-3.614,17.2478,1554
26561,-11.1522,-0.8452,8.4982,1565
26566,-8.6706,6.1244,4.1515,1547
26571,13.2866,7.3095,12.894,1548
26576,7.5106,-5.1104,14.4119,1546
26581,-10.2161,-1.1444,13.6757,1555
26586,-14.0528,3.4261,5.3858,1555
26591,5.8682,7.9655,8.3462,1553
26596,13.4542,-1.7538,12.6486,1549
26601,-6.2991,-2.399,17.4777,1559
26606,-12.4475,0.0036,7.2425,1549
26611,-4.3144,6.7038,4.4772,1529
26616,14.5891,4.8542,13.1705,1542
26621,3.3279,-4.9752,15.9202,1556
26626,-10.2783,-1.2103,11.0217,1556
26631,-12.6306,4.9129,4.7716,1557
26636,10.0377,8.4647,10.8517,1547
26641,11.3737,-3.8427,13.0233,1563
26646,-8.9711,-1.4664,16.4386,1555
26651,-13.8205,1.2594,6.3997,1549
26656,0.4621,7.276,5.6802,1545
26661,14.5879,1.7885,12.7108,1545
26666,-1.3348,-3.9229,17.1892,1543
26671,-10.8793,-1.0726,8.9232,1557
26676,-9.5122,5.9604,4.2401,1531
26681,13.0137,7.671,12.5839,1553
26686,8.254,-4.9285,14.1402,1531
26691,-10.0365,-1.1887,14.2742,1561
26696,-14.3101,3.0083,5.6084,1544
26701,5.2289,7.9643,7.8638,1545
26706,13.6613,-1.2426,12.4762,1528
26711,-5.679,-2.5391,17.5866,1561
26716,-12.2535,-0.3196,7.4448,1544
26721,-5.0949,6.6427,4.3802,1549
26726,14.4334,5.4025,13.0735,1528
26731,4.1587,-4.9153,15.6401,1545
26736,-10.2771,-1.221,11.4563,1557
26741,-13.0017,4.7309,4.8076,1555
26746,9.487,8.4575,10.4208,1546
26751,11.7639,-3.4512,12.8772,1547
26756,-8.6503,-1.5395,16.7893,1543
26761,-13.6781,1.0092,6.4703,1557
26766,-0.2251,7.1287,5.3427,1533
26771,14.7387,2.3882,12.9179,1565
26776,-0.5866,-4.0175,17.0527,1553
26781,-10.6853,-1.0882,9.0704,1576
26786,-10.0185,5.8694,4.2545,1527
26791,12.6222,7.8721,12.4941,1553
26796,8.7424,-4.8016,14.0145,1544
26801,-9.9922,-1.2905,14.5448,1565
26806,-14.2144,2.8551,5.6611,1545
26811,4.3778,7.6878,7.4124,1561
26816,13.9355,-0.7506,12.8245,1530
26821,-4.9249,-2.818,17.4298,1574
26826,-11.9614,-0.2717,7.6758,1565
26831,-5.8981,6.5541,4.2713,1554
26836,14.2994,5.7664,13.301,1547
26841,4.8147,-5.1176,15.3337,1567
26846,-10.3178,-1.1301,11.9267,1558
26851,-13.283,4.4712,4.938,1561
26856,8.7795,8.2696,9.9467,1547
26861,12.141,-3.2669,12.9,1545
26866,-8.2887,-1.7023,16.8923,1545
26871,-13.4243,0.8871,6.614,1555
26876,-1.1301,7.0689,5.1679,1531
26881,14.7423,2.8539,12.9909,1567
26886,0.2071,-4.3311,16.7391,1549
26891,-10.6326,-1.0798,9.5086,1575
26896,-10.6865,5.7604,4.3491,1531
26901,12.2547,8.0553,12.1625,1565
26906,9.3266,-4.7094,13.8253,1523
26911,-9.8617,-1.2294,15.0392,1567
26916,-14.2706,2.5666,5.8263,1523
26921,3.7577,7.6734,7.033,1573
26926,14.0264,-0.3555,12.6653,1547
26931,-4.4233,-2.9808,17.5555,1575
26936,-11.7472,-0.5974,7.7907,1548
26941,-6.5457,6.4524,4.2042,1563
26946,14.1833,6.262,13.1909,1529
26951,5.4217,-5.0482,15.1601,1560
26956,-10.1921,-1.2366,12.3277,1531
26961,-13.6003,4.2653,5.0039,1561
26966,8.2983,8.3677,9.6774,1543
26971,12.3984,-2.964,12.7216,1547
26976,-7.9643,-1.8196,17.2251,1532
26981,-13.295,0.5986,6.7864,1551
26986,-1.7142,6.9767,4.9955,1553
26991,14.7519,3.2238,13.0759,1559
26996,0.8164,-4.446,16.6265,1547
27001,-10.556,-1.1444,9.76,1559
27006,-10.9798,5.6012,4.3694,1541
27011,11.8645,8.1307,11.971,1566
27016,9.6857,-4.6017,13.6529,1527
27021,-9.7468,-1.2785,15.342,1571
27026,-14.1773,2.3415,5.928,1545
27031,3.1735,7.5585,6.669,1575
27036,14.2299,0.0599,12.736,1542
27041,-3.8295,-3.128,17.5244,1555
27046,-11.4754,-0.6871,7.9523,1549
27051,-7.0306,6.3398,4.1264,1559
27056,14.0767,6.626,13.2639,1546
27061,5.8263,-5.0015,15.0452,1559
27066,-10.1335,-1.2701,12.6115,1549
27071,-13.7272,4.1264,5.0709,1559
27076,7.7488,8.2432,9.1997,1541
27081,12.5504,-2.6408,12.8461,1555
27086,-7.5513,-2.0147,17.2383,1558
27091,-13.0173,0.5327,6.8366,1547
27096,-2.3858,6.9264,4.7872,1527
27101,14.71,3.5362,13.2316,1556
27106,1.4305,-4.5837,16.3548,1544
27111,-10.4579,-1.075,10.0999,1561
27116,-11.4982,5.5797,4.4233,1547
27121,11.4407,8.0577,11.7376,1549
27126,10.0401,-4.4353,13.5943,1532
27131,-9.6115,-1.336,15.5898,1573
27136,-14.1833,2.2601,6.0154,1544
27141,2.4816,7.501,6.4045,1553
27146,14.3329,0.31,12.8976,1542
27151,-3.237,-3.4034,17.2981,1561
27156,-11.4239,-0.5974,8.1954,1557
27161,-7.7476,6.438,4.2006,1563
27166,13.9319,6.6918,13.1214,1529
27171,6.3626,-5.1655,14.789,1547
27176,-10.252,-1.1061,12.9933,1544
27181,-13.9402,3.9959,5.2265,1559
27186,7.2449,8.1523,9.007,1549
27191,12.8856,-2.5031,12.7467,1541
27196,-7.1826,-2.0961,17.249,1546
27201,-12.9167,0.4334,7.0174,1558
27206,-2.9664,6.8929,4.7513,1528
27211,14.8297,3.8678,13.1609,1575
27216,1.9513,-4.6579,16.1896,1545
27221,-10.3681,-1.0666,10.3358,1572
27226,-11.8118,5.4444,4.4963,1545
27231,11.0983,8.1307,11.3832,1549
27236,10.4387,-4.3108,13.4889,1533
27241,-9.4344,-1.3779,15.7898,1560
27246,-14.0492,2.065,6.0621,1544
27251,1.8579,7.3969,6.1016,1561
27256,14.607,0.6512,13.0209,1543
27261,-2.6504,-3.6129,17.1221,1559
27266,-11.3617,-0.5459,8.4168,1553
27271,-8.2133,6.3758,4.2258,1547
27276,13.775,6.7756,13.0556,1533
27281,6.8869,-5.211,14.5951,1555
27286,-10.3022,-1.0235,13.2854,1531
27291,-13.9462,3.8128,5.2984,1545
27296,6.6379,8.0002,8.6455,1547
27301,13.2004,-2.2446,12.8329,1549
27306,-6.7995,-2.2194,17.3005,1547
27311,-12.6893,0.2394,7.1275,1561
27316,-3.5949,6.8522,4.6268,1547
27321,14.8093,4.2928,13.2052,1561
27326,2.4469,-4.9021,16.0232,1531
27331,-10.4471,-1.1289,10.6326,1559
27336,-12.2439,5.2433,4.6017,1532
27341,10.7344,8.3294,11.236,1531
27346,10.7763,-4.1839,13.3058,1541
27351,-9.244,-1.3443,16.0423,1555
27356,-13.9977,1.8136,6.2788,1546
27361,1.385,7.4148,6.0106,1541
27366,14.6405,0.9996,12.8257,1555
27371,-2.1691,-3.705,17.1233,1547
27376,-11.1139,-0.7494,8.6838,1561
27381,-8.7293,6.2716,4.1599,1543
27386,13.6051,7.1467,12.8724,1549
27391,7.355,-5.102,14.4562,1555
27396,-10.1694,-1.063,13.6637,1555
27401,-14.1174,3.5686,5.3439,1542
27406,6.1746,7.9775,8.3378,1554
27411,13.3573,-1.8902,12.6725,1548
27416,-6.4895,-2.296,17.4705,1557
27421,-12.5348,0.0371,7.1611,1560
27426,-4.0582,6.7229,4.531,1513
27431,14.716,4.7333,13.2387,1529
27436,2.9939,-4.9081,15.9011,1541
27441,-10.4088,-1.1432,10.9008,1541
27446,-12.4223,5.0398,4.6328,1533
27451,10.3214,8.4659,11.066,1545
27456,11.0744,-4.1013,13.1166,1545
27461,-9.1866,-1.3946,16.2901,1544
27466,-13.8959,1.5718,6.2549,1533
27471,0.9361,7.4651,5.9256,1549
27476,14.6561,1.2821,12.6917,1533
27481,-1.749,-3.8858,17.1401,1554
27486,-11.1558,-0.7973,8.7999,1561
27491,-9.0585,6.183,4.2868,1531
27496,13.3369,7.3849,12.7276,1546
27501,7.75,-5.2517,14.2599,1547
27506,-10.2185,-1.0534,13.9343,1547
27511,-14.1593,3.2836,5.5007,1531
27516,5.9496,8.2073,8.2217,1557
27521,13.5153,-1.7645,12.4582,1528
27526,-6.1603,-2.3308,17.6094,1561
27531,-12.4606,-0.1149,7.3119,1553
27536,-4.4041,6.7421,4.4245,1533
27541,14.6908,4.9799,12.9814,1541
27546,3.3411,-4.9249,15.9143,1529
27551,-10.3178,-1.2857,11.0516,1545
27556,-12.6809,4.8926,4.7728,1564
27561,10.2149,8.5964,10.8445,1541
27566,11.2767,-3.8882,13.0185,1531
27571,-8.9627,-1.494,16.514,1547
27576,-13.8684,1.2893,6.3506,1555
27581,0.5578,7.2999,5.788,1543
27586,14.5903,1.7023,12.7144,1547
27591,-1.3072,-3.9887,17.1078,1545
27596,-10.9942,-0.9385,8.9172,1559
27601,-9.3506,6.0082,4.2725,1559
27606,13.0975,7.6555,12.6438,1529
27611,8.1128,-5.1176,14.1653,1533
27616,-10.1885,-1.0678,14.224,1561
27621,-14.1581,3.1771,5.5294,1548
27626,5.3534,8.0816,7.9272,1557
27631,13.6817,-1.4916,12.4546,1532
27636,-5.9053,-2.5654,17.5555,1560
27641,-12.3852,-0.2155,7.3574,1556
27646,-4.8159,6.6355,4.4281,1545
27651,14.5376,5.2888,13.0532,1545
27656,3.8415,-5.1128,15.761,1547
27661,-10.386,-1.1732,11.3318,1556
27666,-12.7791,4.7621,4.8602,1563
27671,9.7384,8.5988,10.6123,1544
27676,11.6669,-3.8199,12.9419,1547
27681,-8.8981,-1.5131,16.6648,1562
27686,-13.7248,1.2055,6.4308,1544
27691,0.17,7.2676,5.5294,1541
27696,14.8117,1.9848,12.7635,1565
27701,-1.0032,-4.0462,17.1377,1545
27706,-10.8457,-0.9744,9.0034,1575
27711,-9.6403,5.964,4.2569,1532
27716,12.894,7.8063,12.5708,1545
27721,8.3115,-5.0123,14.1282,1547
27726,-10.1394,-1.142,14.3221,1565
27731,-14.1809,3.049,5.5498,1544
27736,5.0601,8.0062,7.7512,1555
27741,13.7463,-1.1779,12.6198,1543
27746,-5.5929,-2.5379,17.5782,1578
27751,-12.2595,-0.2538,7.4508,1557
27756,-5.1691,6.5493,4.3072,1553
27761,14.5148,5.606,13.1777,1547
27766,4.0654,-5.114,15.6832,1559
27771,-10.4076,-1.1923,11.4682,1555
27776,-12.8533,4.6268,4.859,1575
27781,9.4774,8.6634,10.5465,1527
27786,11.8429,-3.7002,12.8964,1549
27791,-8.8957,-1.5502,16.8025,1551
27796,-13.6793,1.0666,6.4105,1547
27801,-0.1568,7.2628,5.5821,1545
27806,14.6477,2.2901,12.6617,1560
27811,-0.7685,-4.2737,17.1054,1543
27816,-10.9355,-1.0247,9.086,1571
27821,-9.7588,5.7784,4.3323,1554
27826,12.706,8.1032,12.487,1555
27831,8.77,-5.2349,13.9762,1531
27836,-10.2005,-1.1229,14.5627,1571
27841,-14.1497,2.7845,5.6036,1533
27846,4.8375,8.1954,7.7764,1563
27851,13.8612,-1.1301,12.2894,1543
27856,-5.4803,-2.7342,17.7925,1567
27861,-12.1494,-0.4597,7.5106,1557
27866,-5.4408,6.5793,4.4616,1556
27871,14.3305,5.7006,12.8497,1531
27876,4.4436,-5.2074,15.5815,1555
27881,-10.3705,-1.1815,11.7675,1545
27886,-13.1454,4.476,4.9536,1564
27891,9.3817,8.8071,10.4172,1557
27896,11.989,-3.632,12.6282,1557
27901,-8.6251,-1.5251,16.9928,1545
27906,-13.6601,0.8823,6.5577,1545
27911,-0.4429,7.3346,5.4959,1543
27916,14.7722,2.3727,12.5612,1572
27921,-0.516,-4.1767,17.0192,1554
27926,-10.8038,-1.0822,9.2488,1565
27931,-10.143,5.7736,4.3586,1535
27936,12.6929,8.1056,12.3768,1561
27941,8.916,-5.0398,13.8014,1543
27946,-10.137,-1.0546,14.7555,1575
27951,-14.2635,2.6839,5.6731,1523
27956,4.561,8.0122,7.5286,1560
27961,14.0288,-0.9301,12.4247,1547
27966,-5.1092,-2.6959,17.7123,1565
27971,-12.0572,-0.4453,7.5992,1547
27976,-5.6838,6.511,4.3371,1549
27981,14.4071,5.9628,13.0879,1528
27986,4.7501,-5.211,15.4438,1555
27991,-10.3872,-1.1564,11.8106,1555
27996,-13.0652,4.385,4.9105,1557
28001,8.9603,8.5784,10.2029,1547
28006,12.1793,-3.3842,12.7707,1560
28011,-8.5772,-1.5275,17.0671,1557
28016,-13.5129,0.8691,6.5302,1557
28021,-0.844,7.0246,5.272,1542
28026,14.6705,2.8299,12.803,1567
28031,-0.085,-4.4125,16.8695,1529
28036,-10.8218,-1.0451,9.3865,1567
28041,-10.1562,5.5845,4.3634,1549
28046,12.1685,8.2588,12.2571,1547
28051,9.3386,-5.0278,13.7415,1547
28056,-10.1311,-1.0403,14.9961,1572
28061,-14.1246,2.5235,5.7413,1533
28066,4.0067,7.9571,7.3801,1563
28071,14.0995,-0.5339,12.3325,1543
28076,-4.9141,-2.9928,17.7817,1563
28081,-11.9459,-0.486,7.6698,1544
28086,-6.2106,6.3482,4.3311,1549
28091,14.0863,6.2596,12.9562,1547
28096,5.2325,-5.5007,15.3205,1558
28101,-10.5584,-1.0439,12.1362,1554
28106,-13.3309,4.2186,5.0422,1563
28111,8.515,8.8023,10.0209,1549
28116,12.5696,-3.3902,12.4977,1555
28121,-8.2911,-1.7334,17.1868,1546
28126,-13.4255,0.7661,6.6355,1548
28131,-1.3874,7.2413,5.3534,1545
28136,14.8859,2.8096,12.6617,1557
28141,0.4082,-4.6244,16.8528,1555
28146,-10.8098,-0.8799,9.6678,1567
28151,-10.8014,5.6395,4.4616,1543
28156,12.2691,8.2803,12.0345,1559
28161,9.5864,-4.974,13.6936,1520
28166,-10.0904,-1.069,15.1673,1567
28171,-14.3856,2.3715,5.794,1555
28176,3.6978,8.0266,7.1443,1531
28181,14.2216,-0.4669,12.3625,1531
28186,-4.4185,-3.0382,17.765,1553
28191,-11.9327,-0.6321,7.744,1549
28196,-6.6475,6.4991,4.2784,1551
28201,14.2132,6.3829,12.9502,1542
28206,5.7545,-5.387,15.1278,1563
28211,-10.5872,-1.0295,12.4391,1556
28216,-13.611,4.1527,5.0099,1549
28221,8.327,8.7113,9.7612,1545
28226,12.8413,-3.146,12.5815,1555
28231,-8.0242,-1.7202,17.3041,1555
28236,-13.3728,0.7374,6.5637,1551
28241,-1.7945,7.1479,5.0362,1529
28246,14.9925,3.2501,12.9383,1553
28251,1.0127,-4.7285,16.7055,1547
28256,-10.7212,-0.8356,9.754,1556
28261,-10.9834,5.5534,4.2904,1533
28266,11.7807,8.2612,11.9495,1553
28271,10.1454,-4.8435,13.6781,1530
28276,-10.0233,-1.0451,15.4246,1563
28281,-14.0588,2.3427,5.7569,1548
28286,3.0311,7.5705,6.693,1555
28291,14.4622,0.1209,12.7838,1533
28296,-3.9588,-3.2441,17.7614,1561
28301,-11.5676,-0.6404,7.7225,1553
28306,-6.8462,6.1962,4.0749,1544
28311,13.7487,6.9348,13.2256,1547
28316,6.3039,-5.3319,15.2092,1547
28321,-10.3382,-1.2139,12.4487,1558
28326,-13.3321,3.9002,4.9608,1549
28331,7.4819,8.5138,9.3506,1555
28336,13.0831,-2.5247,12.6749,1549
28341,-8.1654,-1.9369,17.6943,1547
28346,-13.0975,0.3735,6.4847,1549
28351,-2.0039,6.7038,4.8854,1528
28356,14.5029,4.2162,13.0903,1558
28361,1.257,-4.8997,17.0192,1553
28366,-10.5896,-1.2486,9.5696,1557
28371,-10.7105,5.1487,4.3227,1531
28376,11.0157,8.8801,11.8369,1551
28381,10.6338,-4.6855,13.5596,1526
28386,-10.2376,-1.3731,15.6712,1547
28391,-13.1789,0.328,6.5266,1548
28396,2.7485,7.7776,6.8438,1543
28401,14.3089,4.0809,12.9047,1543
28406,-3.984,-3.6404,18.2055,1553
28411,-10.72,-1.2522,9.5708,1544
28416,-6.7864,6.0513,4.2569,1551
28421,11.1318,8.8753,11.7986,1543
28426,6.6415,-5.618,15.2247,1555
28431,-10.1825,-1.3012,15.7682,1551
28436,-13.3489,3.6667,5.0159,1549
28441,2.7138,7.8254,6.7445,1545
28446,13.1585,-2.5426,12.4056,1543
28451,-4.0498,-3.4129,18.354,1547
28456,-13.125,0.2011,6.6643,1559
28461,-6.954,5.9771,4.2258,1546
28466,14.3149,4.3574,12.7324,1529
28471,6.6918,-5.4743,15.1278,1547
28476,-10.5788,-1.3958,9.675,1561
28481,-13.4135,3.5566,5.12,1545
28486,10.9271,8.9663,11.6669,1547
28491,13.2579,-2.387,12.2966,1532
28496,-10.1993,-1.2474,16.0016,1543
28501,-12.9538,0.2777,6.6367,1545
28506,2.4397,7.6794,6.6559,1542
28511,14.4885,4.4388,12.7767,1545
28516,-3.7362,-3.5267,18.2067,1561
28521,-10.5249,-1.2079,9.7863,1545
28526,-7.1766,5.8646,4.1887,1544
28531,10.823,8.9603,11.5712,1543
28536,10.9511,-4.5167,13.4446,1529
28541,-10.1359,-1.2977,15.9681,1555
28546,-13.8864,1.7502,5.8873,1533
28551,2.3152,7.5405,6.5326,1539
28556,14.2539,1.0618,12.2799,1533
28561,-3.6919,-3.5602,18.2438,1495
28566,-11.3964,-1.0858,7.8338,1555
28571,-7.1886,5.7784,4.2952,1549
28576,13.1142,7.7428,12.7898,1553
28581,7.1216,-5.442,14.868,1545
28586,-10.4208,-1.385,12.9909,1558
28591,-13.4829,3.2238,5.2684,1548
28596,6.9779,9.013,9.2153,1589
28601,13.1537,-2.229,11.88,1527
28606,-7.7943,-2.0363,18.2163,1549
28611,-12.8784,-0.2502,6.8953,1548
28616,-2.7366,6.778,5.114,1549
28621,14.2096,4.4377,12.1913,1553
28626,2.0411,-4.8135,16.8229,1558
28631,-10.2604,-1.5622,10.1442,1557
28636,-11.6143,4.7609,4.6495,1547
28641,11.0109,9.2021,11.412,1545
28646,10.7045,-4.3,12.9514,1547
28651,-9.7133,-1.2163,16.3428,1553
28656,-14.2323,1.4329,6.1687,1541
28661,2.1763,7.8135,6.4153,1553
28666,14.2611,1.0403,11.9483,1532
28671,-2.9329,-3.3794,18.0188,1547
28676,-11.1881,-1.1121,8.1977,1549
28681,-8.0361,6.11,4.1611,1545
28686,13.5177,7.5094,12.8042,1532
28691,7.2149,-5.1739,14.7339,1549
28696,-10.1778,-1.2594,13.3357,1545
28701,-14.0576,3.553,5.2182,1551
28706,6.6786,8.3498,8.5617,1549
28711,13.3728,-1.968,12.536,1527
28716,-7.0976,-2.1057,17.9206,1553
28721,-12.7467,0.1425,6.8534,1549
28726,-3.3758,6.675,4.4365,1555
28731,14.5591,4.8554,13.2818,1557
28736,2.7497,-4.9871,16.4829,1544
28741,-10.4016,-1.1372,10.2771,1561
28746,-11.5831,5.1236,4.3586,1544
28751,10.3118,8.5006,11.163,1553
28756,11.4299,-4.0354,13.5141,1531
28761,-9.7815,-1.3922,16.2842,1556
28766,-13.8253,1.7621,5.8586,1542
28771,1.5167,6.9456,5.7688,1559
28776,14.5388,1.9872,13.1478,1533
28781,-2.727,-3.8427,18.0152,1559
28786,-11.2551,-0.9649,7.9751,1530
28791,-7.4998,5.7497,3.9744,1545
28796,12.5791,7.9811,13.052,1543
28801,8.1032,-5.2541,14.8249,1545
28806,-10.4471,-1.385,13.3225,1553
28811,-13.1801,3.3483,4.9967,1561
28816,5.6431,7.8123,8.2899,1553
28821,13.7236,-1.1983,12.7946,1532
28826,-7.2568,-2.6887,18.2426,1542
28831,-12.6953,0.0251,6.7648,1546
28836,-3.0885,6.2273,4.4221,1543
28841,13.9486,5.6623,13.398,1545
28846,3.0993,-5.1858,16.5571,1548
28851,-10.4914,-1.3838,10.3118,1573
28856,-11.0433,4.7872,4.361,1547
28861,9.3218,8.5629,10.914,1531
28866,11.6238,-3.6931,13.3513,1543
28871,-9.8402,-1.816,16.514,1565
28876,-13.7523,1.6065,5.928,1531
28881,1.1756,6.8809,5.7593,1559
28886,14.2659,2.3798,13.0843,1528
28891,-2.3331,-4.2737,17.838,1561
28896,-11.4994,-0.9421,8.2169,1549
28901,-7.8506,5.8239,4.2126,1542
28906,12.1458,7.9069,12.7348,1545
28911,8.1965,-5.3714,14.4873,1549
28916,-10.6805,-1.4257,13.7966,1541
28921,-13.4243,3.4261,5.284,1574
28926,5.3858,8.1678,8.3462,1553
28931,13.6637,-1.5167,12.5145,1531
28936,-6.5984,-2.9844,17.8464,1549
28941,-12.5289,0.2334,7.1455,1545
28946,-4.0055,6.79,4.6424,1553
28951,14.2479,4.9309,12.9083,1542
28956,3.219,-5.2589,16.204,1545
28961,-10.4998,-1.1624,10.8457,1575
28966,-12.1194,5.102,4.713,1547
28971,9.7887,8.3629,10.7224,1549
28976,11.3102,-3.8774,13.3357,1543
28981,-9.2308,-1.8651,16.3572,1577
28986,-13.6338,1.6807,6.3039,1528
28991,0.7506,7.3562,5.8059,1561
28996,14.5005,1.6843,12.7288,1541
29001,-1.6771,-4.1013,17.3089,1571
29006,-10.9128,-0.9349,8.7257,1549
29011,-8.9064,6.1627,4.2892,1544
29016,12.8628,7.4352,12.4534,1548
29021,7.9667,-4.9596,14.376,1554
29026,-10.1119,-1.476,13.9881,1545
29031,-13.9582,3.4201,5.5186,1567
29036,5.5665,7.9272,8.0337,1543
29041,13.5524,-1.2629,12.4846,1543
29046,-6.1651,-2.7402,17.7315,1547
29051,-12.3445,-0.079,7.3083,1565
29056,-4.2892,6.6942,4.4377,1547
29061,14.2036,5.1954,12.9239,1573
29066,3.6739,-4.9428,15.9262,1553
29071,-10.3178,-1.3348,11.2444,1559
29076,-12.3972,5.1032,4.7345,1544
29081,9.7336,8.3067,10.4591,1549
29086,11.3737,-3.5147,13.0723,1545
29091,-8.916,-1.9776,16.7151,1566
29096,-13.7008,1.5167,6.3566,1531
29101,0.5255,7.2664,5.448,1561
29106,14.4622,1.889,12.8928,1542
29111,-1.1791,-4.0342,17.1221,1571
29116,-10.744,-0.984,9.0956,1548
29121,-9.4068,6.3458,4.1755,1556
29126,12.9826,7.2676,12.4534,1533
29131,7.8123,-4.6364,14.3006,1561
29136,-9.827,-1.6077,14.2682,1545
29141,-14.2802,3.4752,5.6503,1555
29146,5.4372,7.7835,7.616,1555
29151,13.3082,-1.3611,12.8545,1547
29156,-5.4576,-2.891,17.5028,1541
29161,-12.2044,-0.1329,7.5896,1565
29166,-4.968,6.8654,4.2557,1541
29171,14.6286,4.9752,13.125,1573
29176,3.6164,-4.7142,15.6473,1557
29181,-10.173,-1.47,11.5544,1573
29186,-13.1298,5.1595,4.8231,1533
29191,9.9012,8.1211,10.3513,1559
29196,11.1115,-3.4728,13.1561,1545
29201,-8.5916,-1.913,16.6517,1579
29206,-13.8888,1.4066,6.5637,1533
29211,0.1856,7.3777,5.3654,1557
29216,14.5544,1.8794,12.8006,1533
29221,-0.9062,-4.0055,17.006,1563
29226,-10.8218,-1.0391,9.2871,1563
29231,-9.9371,6.3746,4.1911,1556
29236,13.1525,7.3454,12.2978,1541
29241,8.0876,-4.7082,14.2635,1563
29246,-9.8294,-1.5191,14.54,1529
29251,-14.5591,3.4608,5.6407,1560
29256,5.3115,7.8171,7.4412,1545
29261,13.5524,-1.2342,12.9706,1541
29266,-5.126,-3.0694,17.3879,1545
29271,-12.1805,0.0132,7.6471,1557
29276,-5.3534,7.1,4.033,1549
29281,14.8309,4.8902,13.3046,1559
29286,3.9325,-4.6412,15.5982,1543
29291,-9.9934,-1.3312,11.7029,1565
29296,-13.4602,5.3905,4.6591,1542
29301,9.7827,7.762,9.9455,1555
29306,11.3485,-3.2262,13.5308,1525
29311,-8.2863,-2.059,16.5427,1563
29316,-13.8349,1.6376,6.5027,1531
29321,-0.1365,7.1862,4.8878,1566
29326,14.9207,2.0446,13.6936,1542
29331,-0.5794,-4.0007,16.8324,1563
29336,-10.5405,-0.9768,9.2356,1545
29341,-10.1179,6.4224,3.972,1553
29346,12.9754,7.1467,12.3912,1527
29351,8.2037,-4.4748,14.4071,1563
29356,-9.8078,-1.7107,14.4406,1555
29361,-14.3209,3.3794,5.5761,1555
29366,4.7836,7.3263,6.9994,1550
29371,13.7056,-0.7195,13.3644,1544
29376,-5.1128,-3.0861,17.5172,1543
29381,-11.9028,-0.1963,7.531,1563
29386,-5.4169,6.7086,3.8966,1549
29391,14.613,5.6096,13.4722,1557
29396,4.0582,-4.6843,15.7251,1564
29401,-9.9036,-1.6173,11.6227,1571
29406,-13.1837,4.9356,4.7956,1543
29411,9.3709,7.993,9.8067,1560
29416,11.309,-3.1424,13.3812,1541
29421,-8.4013,-2.1763,16.8049,1573
29426,-13.5512,1.1157,6.6451,1558
29431,-0.3855,7.015,4.9428,1557
29436,14.5974,2.5139,13.0807,1543
29441,-0.7183,-4.0223,17.0635,1561
29446,-10.2843,-1.3276,9.2751,1555
29451,-10.337,5.9723,4.1132,1563
29456,12.8688,7.8829,12.159,1531
29461,8.1451,-4.3431,14.2946,1546
29466,-9.669,-1.7538,14.6549,1544
29471,-14.3796,2.9628,5.7437,1560
29476,4.7034,7.6423,6.8582,1548
29481,13.5081,-0.6488,12.6893,1557
29486,-5.0757,-3.0071,17.6752,1543
29491,-11.807,-0.4369,7.8458,1555
29496,-5.9807,6.7864,4.1025,1555
29501,14.6094,5.5426,13.0328,1555
29506,4.1587,-4.6831,15.4773,1547
29511,-9.8593,-1.5658,11.9171,1562
29516,-13.7343,4.9716,4.9237,1543
29521,9.5205,8.2875,9.8557,1565
29526,11.4191,-3.2441,13.1406,1533
29531,-8.1977,-2.0949,16.939,1561
29536,-13.7822,1.1432,6.6655,1541
29541,-0.6572,7.2999,4.9344,1557
29546,14.7998,2.3583,13.0185,1543
29551,-0.2682,-4.1192,16.8157,1561
29556,-10.4926,-1.1444,9.5361,1547
29561,-10.6686,6.371,4.1731,1553
29566,12.8305,7.507,12.1697,1529
29571,8.5269,-4.555,14.1449,1563
29576,-9.7671,-1.6221,14.8057,1557
29581,-14.607,3.2286,5.7174,1558
29586,4.3622,7.6591,6.8905,1544
29591,13.8157,-0.8715,13.0867,1549
29596,-4.5155,-3.2729,17.2957,1549
29601,-12.0021,-0.1341,7.8434,1555
29606,-6.2788,7.0749,4.1204,1545
29611,14.716,5.2373,13.301,1560
29616,4.622,-4.9859,15.2858,1549
29621,-10.2867,-1.2258,12.2775,1557
29626,-13.7451,5.1332,4.8279,1547
29631,9.0908,7.8219,9.645,1557
29636,11.9052,-3.3674,13.3632,1533
29641,-7.7584,-2.229,16.6325,1571
29646,-13.6984,1.3743,6.7181,1546
29651,-1.0918,7.4316,4.853,1555
29656,15.0919,2.0423,13.4063,1545
29661,0.2861,-4.4125,16.4266,1561
29666,-10.7176,-0.8452,9.8078,1561
29671,-10.9834,6.4847,4.0977,1551
29676,12.7922,7.1623,11.9985,1528
29681,8.6574,-4.5406,14.1773,1551
29686,-9.6175,-1.5143,14.9063,1551
29691,-14.71,3.2178,5.8059,1565
29696,4.2102,7.6315,6.7205,1542
29701,13.945,-0.9086,13.2363,1548
29706,-4.057,-3.3842,17.0587,1545
29711,-11.9914,-0.1496,8.0361,1562
29716,-6.6966,7.2065,3.899,1527
29721,14.8452,5.1427,13.2555,1563
29726,4.9045,-4.859,15.2187,1541
29731,-10.0545,-1.1887,12.5336,1573
29736,-14.1521,5.1787,4.9153,1541
29741,9.0549,7.6567,9.2703,1561
29746,11.9004,-3.1472,13.5201,1529
29751,-7.3765,-2.2577,16.6014,1587
29756,-13.7032,1.3443,6.8797,1543
29761,-1.3934,7.3897,4.6376,1551
29766,15.2858,2.235,13.6541,1563
29771,0.4872,-4.2916,16.2339,1555
29776,-10.5931,-0.8763,9.9766,1560
29781,-11.3186,6.3841,4.118,1547
29786,12.7731,7.2963,11.892,1549
29791,8.8035,-4.4305,14.0731,1551
29796,-9.5648,-1.4557,15.111,1547
29801,-14.5855,2.9293,5.8778,1553
29806,4.0414,7.3382,6.5541,1545
29811,14.0911,-0.4477,13.1047,1546
29816,-4.2677,-3.0179,17.4035,1561
29821,-11.6825,-0.5339,7.9751,1562
29826,-6.4859,6.6032,3.9504,1532
29831,14.6693,6.1256,13.2172,1557
29836,4.8902,-4.7094,15.2367,1555
29841,-9.9874,-1.4461,12.4008,1561
29846,-13.6386,4.5226,5.0805,1545
29851,8.6048,8.0349,9.1913,1555
29856,11.9279,-2.7701,12.9993,1527
29861,-8.0122,-1.8854,17.1904,1558
29866,-13.2184,0.8128,6.8031,1546
29871,-1.4497,6.924,4.689,1556
29876,14.9147,3.2238,13.2423,1553
29881,0.3519,-4.1563,16.7331,1561
29886,-10.3346,-1.2186,9.7133,1549
29891,-10.8565,5.8131,4.2198,1544
29896,12.2667,8.0002,11.825,1544
29901,9.0776,-4.4819,13.9438,1549
29906,-9.7612,-1.5,15.2199,1556
29911,-14.2347,2.7174,5.8215,1560
29916,3.5482,7.4879,6.6451,1547
29921,14.0695,-0.2394,12.9203,1554
29926,-4.3383,-3.1268,17.4753,1547
29931,-11.6646,-0.3591,7.8709,1566
29936,-6.6044,6.5972,4.1408,1543
29941,14.2563,6.1794,13.2507,1559
29946,5.2277,-5.1152,15.3253,1543
29951,-10.2436,-1.2929,12.3361,1563
29956,-13.5236,4.5981,4.9572,1545
29961,8.2121,8.1834,9.4236,1545
29966,12.3565,-3.0406,13.0412,1545
29971,-8.1714,-2.1249,17.1293,1556
29976,-13.2028,0.8894,6.693,1533
29981,-1.6293,7.0832,4.9799,1544
29986,14.7591,3.0694,13.0233,1543
29991,0.4824,-4.6759,16.6517,1562
29996,-10.7224,-1.0942,9.748,1546
30001,-10.7739,5.8131,4.3024,1549
30006,11.9124,8.0206,11.9171,1529
30011,9.5289,-4.7513,13.8193,1549
30016,-9.9707,-1.4988,15.3121,1559
30021,-14.1833,2.6839,5.8407,1549
30026,3.456,7.6794,6.8031,1556
30031,14.2096,-0.3124,12.6342,1555
30036,-4.2329,-3.3591,17.5818,1556
30041,-11.6789,-0.3352,7.9092,1555
30046,-6.6738,6.7157,4.1958,1533
30051,14.2383,6.0597,13.0807,1553
30056,5.4564,-5.1284,15.2355,1547
30061,-10.343,-1.2079,12.4247,1565
30066,-13.5464,4.6448,4.9321,1531
30071,8.2061,8.1427,9.3553,1557
30076,12.4594,-3.0191,12.9838,1541
30081,-7.9906,-2.0913,17.1425,1562
30086,-13.2232,0.984,6.6942,1543
30091,-1.7406,7.1108,4.8207,1554
30096,14.9733,3.0538,13.3273,1547
30101,0.6656,-4.555,16.6158,1559
30106,-10.6901,-0.9038,9.7145,1545
30111,-10.835,5.9376,4.2617,1545
30116,11.8573,7.8135,11.8585,1527
30121,9.7504,-4.7226,13.9355,1556
30126,-10.0317,-1.3743,15.2535,1543
30131,-14.0181,2.7809,5.7533,1557
30136,3.2322,7.4615,6.6631,1532
30141,14.4227,-0.0814,13.0149,1547
30146,-4.2605,-3.3615,17.5782,1557
30151,-11.7196,-0.2574,7.7548,1557
30156,-6.5015,6.4452,4.1001,1582
30161,14.0588,6.4177,13.295,1546
30166,5.691,-5.3726,15.3025,1555
30171,-10.5189,-1.1947,12.3014,1555
30176,-13.1023,4.4484,4.8973,1547
30181,7.7871,8.1223,9.4463,1547
30186,12.7982,-2.8443,12.9646,1541
30191,-8.2899,-2.1656,17.2394,1555
30196,-13.113,0.923,6.5936,1542
30201,-1.579,6.8881,4.9404,1549
30206,14.6453,3.5195,13.0664,1543
30211,0.674,-4.6926,16.8492,1564
30216,-10.6255,-1.087,9.6355,1557
30221,-10.5058,5.6096,4.3682,1541
30226,11.5209,8.2337,11.8022,1531
30231,9.821,-4.6926,13.7523,1545
30236,-10.0904,-1.4688,15.342,1548
30241,-13.9474,2.6121,5.8826,1541
30246,3.207,7.6028,6.7888,1547
30251,14.1964,0.0156,12.5672,1531
30256,-4.3239,-3.4225,17.6872,1549
30261,-11.6035,-0.4633,7.8745,1560
30266,-6.6152,6.5134,4.2461,1543
30271,13.9331,6.4272,12.961,1550
30276,5.5988,-5.2553,15.2259,1544
30281,-10.343,-1.3503,12.5001,1559
30286,-13.4626,4.397,5.0314,1543
30291,7.9859,8.3546,9.3721,1549
30296,12.4882,-2.9305,12.7419,1524
30301,-7.9308,-2.2362,17.2131,1561
30306,-13.2052,0.7901,6.8378,1545
30311,-1.895,7.2365,4.968,1543
30316,14.789,3.1125,12.8461,1543
30321,0.735,-4.6735,16.5942,1561
30326,-10.6734,-1.1277,9.9288,1541
30331,-11.2204,5.8814,4.4556,1547
30336,12.0991,8.1271,11.8094,1547
30341,9.414,-4.7274,13.6601,1543
30346,-9.7444,-1.5263,15.457,1551
30351,-14.4945,2.5175,5.9544,1543
30356,3.5997,8.0313,6.8977,1546
30361,14.121,-0.5291,12.2811,1529
30366,-3.7757,-3.3567,17.5244,1557
30371,-11.7579,-0.6069,8.2791,1560
30376,-7.0976,6.8678,4.0917,1528
30381,14.5244,5.9376,12.7707,1545
30386,5.4265,-4.95,15.0907,1543
30391,-10.1275,-1.3204,12.8114,1553
30396,-14.2335,4.5274,5.1164,1545
30401,8.7221,8.3474,9.2476,1549
30406,12.1159,-2.8551,12.8652,1532
30411,-7.4831,-2.1105,17.2167,1557
30416,-13.4339,0.7614,6.9599,1548
30421,-1.8328,7.3215,4.6483,1549
30426,15.0643,2.964,13.0448,1543
30431,0.8966,-4.2677,16.4984,1549
30436,-10.3956,-1.2677,10.088,1545
30441,-11.5257,6.0226,4.2246,1545
30446,12.5743,7.92,11.8274,1527
30451,9.3218,-4.3024,13.878,1529
30456,-9.5732,-1.5323,15.4211,1549
30461,-14.6154,2.6839,5.9173,1529
30466,3.5386,7.3813,6.3015,1549
30471,14.2527,0.0587,13.0448,1532
30476,-3.887,-3.1843,17.5076,1548
30481,-11.6179,-0.4585,7.9895,1561
30486,-6.8881,6.6307,3.8654,1528
30491,14.3532,6.3243,13.3537,1547
30496,5.6252,-4.8914,15.19,1553
30501,-10.222,-1.342,12.5492,1549
30506,-13.6781,4.622,4.8447,1553
30511,8.0697,7.8398,9.0369,1541
30516,12.4594,-2.6564,13.3369,1529
30521,-7.7285,-2.296,17.1784,1559
30526,-13.2639,0.9098,6.705,1547
30531,-1.8878,6.9599,4.5681,1547
30536,14.9829,3.3387,13.6661,1531
30541,0.8823,-4.5969,16.5858,1559
30546,-10.6338,-1.0163,9.8019,1548
30551,-10.8948,5.8861,4.1264,1544
30556,11.8645,7.8494,11.8393,1543
30561,9.5948,-4.5514,14.0552,1547
30566,-9.7959,-1.5838,15.2152,1553
30571,-14.1761,2.7509,5.788,1543
30576,3.3076,7.3394,6.3925,1547
30581,14.2024,0.1089,13.1645,1550
30586,-4.2246,-3.377,17.5938,1548
30591,-11.6837,-0.3783,7.8769,1551
30596,-6.669,6.5601,3.9768,1546
30601,14.0588,6.4667,13.2854,1547
30606,5.454,-5.1427,15.3253,1545
30611,-10.2687,-1.4832,12.3625,1554
30616,-13.5871,4.537,4.9033,1595
30621,8.0433,8.169,9.2057,1543
30626,12.317,-2.903,13.0688,1525
30631,-7.7488,-2.4361,17.0802,1556
30636,-13.301,0.917,6.778,1547
30641,-1.9465,7.1658,4.7681,1549
30646,14.8824,2.9832,13.1956,1549
30651,0.905,-4.871,16.4577,1557
30656,-10.8146,-0.9349,10.0652,1543
30661,-11.2408,5.9412,4.3646,1529
30666,12.0368,7.7524,11.7843,1530
30671,9.5217,-4.7824,13.8217,1556
30676,-9.7372,-1.5383,15.4342,1549
30681,-14.3844,2.6827,5.9245,1532
30686,3.3627,7.7572,6.6236,1549
30691,14.2742,-0.413,12.7551,1580
30696,-3.7457,-3.4884,17.2873,1549
30701,-11.6646,-0.3675,8.2851,1553
30706,-7.2221,6.839,4.0929,1544
30711,14.5771,5.9831,12.8892,1543
30716,5.4001,-4.9213,14.9961,1545
30721,-10.0856,-1.2785,12.8437,1555
30726,-14.188,4.5023,5.1487,1541
30731,8.5006,8.0888,9.0692,1542
30736,12.0428,-2.8168,12.8784,1529
30741,-7.2784,-2.2613,17.1808,1553
30746,-13.3321,0.6752,7.1838,1549
30751,-2.1308,7.2461,4.5741,1543
30756,15.1361,2.8862,13.0448,1545
30761,1.0834,-4.3862,16.2866,1556
30766,-10.3777,-1.2043,10.4938,1557
30771,-11.9566,5.9771,4.3527,1544
30776,12.6246,7.7177,11.552,1543
30781,9.0633,-4.2318,13.6936,1547
30786,-9.1854,-1.5071,15.6078,1560
30791,-14.9135,2.5151,6.1591,1543
30796,3.3842,7.5729,6.025,1553
30801,14.1042,-0.1496,13.0376,1547
30806,-3.3267,-3.2406,17.1736,1545
30811,-11.5377,-0.516,8.5234,1571
30816,-7.8745,7.0856,3.7062,1544
30821,15.044,5.8861,13.2531,1545
30826,5.4839,-4.6124,14.8895,1545
30831,-9.827,-1.336,13.0412,1560
30836,-14.8045,4.6974,5.0039,1555
30841,8.5186,7.6184,8.6275,1555
30846,12.1613,-2.6635,13.4734,1559
30851,-6.8977,-2.1404,16.9162,1560
30856,-13.4494,0.8045,7.0809,1549
30861,-2.5343,7.1371,4.0235,1558
30866,15.4618,3.1939,13.9307,1544
30871,1.3731,-4.2186,16.168,1549
30876,-10.3729,-1.1444,10.2197,1547
30881,-12.0404,6.0657,3.9636,1579
30886,12.2032,7.5477,11.6717,1545
30891,9.6917,-4.118,13.9534,1533
30896,-9.5565,-1.5359,15.5922,1561
30901,-14.552,2.5546,5.8658,1548
30906,2.8264,7.0976,5.8023,1545
30911,14.3628,0.3986,13.5524,1541
30916,-3.3794,-3.4034,17.4465,1561
30921,-11.4527,-0.65,8.0732,1545
30926,-7.7285,6.5326,3.7397,1533
30931,14.3604,6.6056,13.4578,1545
30936,6.098,-5.0135,15.1014,1544
30941,-9.9719,-1.391,12.8437,1546
30946,-14.2754,4.294,4.9548,1555
30951,7.7369,7.8805,8.655,1557
30956,12.7084,-2.5307,13.2818,1527
30961,-7.2018,-2.3727,17.3292,1557
30966,-13.1514,0.6393,6.9037,1547
30971,-2.739,6.9611,4.1396,1527
30976,15.1852,3.6835,13.8409,1563
30981,1.5419,-4.4341,16.4182,1553
30986,-10.2951,-1.1696,10.2149,1561
30991,-12.1003,5.934,4.0845,1541
30996,11.795,7.6866,11.4443,1549
31001,9.9359,-4.1851,13.9989,1541
31006,-9.3913,-1.6293,15.6808,1561
31011,-14.5891,2.5127,5.9448,1547
31016,2.4361,7.1108,5.5354,1556
31021,14.6908,0.4896,13.8469,1528
31026,-3.0861,-3.4022,17.2598,1567
31031,-11.4862,-0.4525,8.1247,1562
31036,-8.0302,6.681,3.5039,1558
31041,14.5017,6.4955,13.6661,1532
31046,6.3375,-4.8722,15.0667,1559
31051,-10.0987,-1.3515,12.9047,1523
31056,-14.2407,4.4855,4.8147,1554
31061,7.3035,7.3981,8.2696,1544
31066,12.9682,-2.1859,13.8361,1533
31071,-7.2652,-2.3727,17.3005,1492
31076,-13.1454,0.8571,6.6882,1543
31081,-2.8647,6.7588,3.9037,1532
31086,15.2104,3.9564,14.449,1562
31091,1.7286,-4.7022,16.4242,1546
31096,-10.4675,-1.1049,10.0712,1571
31101,-11.9387,5.9089,3.9756,1532
31106,11.4814,7.513,11.4455,1548
31111,10.1945,-4.3395,14.1928,1541
31116,-9.511,-1.749,15.5408,1566
31121,-14.4466,2.6959,5.6958,1545
31126,2.3104,7.0425,5.5138,1543
31131,14.7375,0.3747,14.1928,1528
31136,-3.1053,-3.6895,17.2347,1571
31141,-11.4515,-0.2825,8.023,1557
31146,-8.0409,6.8031,3.486,1545
31151,14.4514,6.1603,13.6733,1548
31156,6.2142,-4.8878,15.1637,1567
31161,-10.0221,-1.3575,12.9119,1548
31166,-14.4622,4.6651,4.7297,1571
31171,7.4292,7.2233,8.1463,1553
31176,12.8569,-2.3834,14.1018,1545
31181,-7.0222,-2.5666,17.0276,1546
31186,-13.2435,0.9146,6.7313,1553
31191,-2.9113,6.9635,3.7804,1543
31196,15.4941,3.5075,14.5627,1560
31201,1.5886,-4.4819,16.2937,1557
31206,-10.1694,-1.1875,10.2041,1561
31211,-12.2439,6.013,3.9289,1531
31216,11.9602,7.3801,11.5125,1531
31221,9.7456,-4.0917,14.2347,1547
31226,-9.2907,-1.7573,15.4989,1544
31231,-14.8273,2.5319,5.7736,1542
31236,2.6743,7.0114,5.4324,1555
31241,14.5172,0.4681,13.9833,1531
31246,-3.3962,-3.2238,17.516,1553
31251,-11.3126,-0.7422,7.999,1556
31256,-7.8709,6.5457,3.3651,1515
31261,14.7375,6.8151,13.7248,1541
31266,5.9221,-4.6292,15.3037,1547
31271,-9.7013,-1.7226,12.627,1555
31276,-14.5005,4.288,4.7956,1557
31281,7.9667,7.8003,8.5365,1547
31286,12.5348,-2.1859,13.4446,1527
31291,-7.5681,-2.2422,17.662,1553
31296,-13.4015,0.4369,6.6714,1573
31301,-2.4122,6.6415,3.8618,1551
31306,15.0763,4.1827,14.0959,1555
31311,1.3324,-4.3503,16.8217,1545
31316,-10.07,-1.5742,9.7564,1567
31321,-11.8549,5.6072,3.8487,1545
31326,12.0033,8.2803,11.7256,1543
31331,9.8701,-4.2318,14.0851,1557
31336,-9.4667,-1.7933,15.6425,1575
31341,-14.7638,2.3523,5.6395,1545
31346,2.9102,7.2305,5.6336,1555
31351,14.3389,0.6584,13.6841,1547
31356,-3.7098,-3.3938,17.9709,1567
31361,-11.3066,-0.7793,7.7225,1556
31366,-7.762,6.5027,3.3315,1541
31371,14.4574,6.918,13.7942,1541
31376,5.9867,-4.8722,15.3732,1554
31381,-9.6343,-1.7382,12.5061,1543
31386,-14.6094,4.3431,4.7142,1561
31391,8.0804,7.9404,8.5533,1531
31396,12.5947,-2.4385,13.6086,1527
31401,-7.5429,-2.4169,17.5758,1549
31406,-13.4434,0.5124,6.6379,1542
31411,-2.4086,6.8079,3.7326,1546
31416,15.1326,4.063,14.2299,1557
31421,1.1576,-4.2916,16.9869,1555
31426,-9.7959,-1.7502,9.6295,1577
31431,-12.1542,5.7197,3.7517,1515
31436,12.2655,8.4001,11.7759,1543
31441,9.6187,-4.063,14.1521,1527
31446,-9.3051,-2.1261,15.6317,1565
31451,-14.9745,2.2817,5.7808,1533
31456,3.1831,7.3251,5.5893,1547
31461,14.103,0.5423,13.5548,1527
31466,-3.6176,-3.3579,17.99,1561
31471,-11.2839,-1.069,7.9583,1555
31476,-7.7117,6.5841,3.237,1533
31481,14.9003,7.0425,13.6446,1548
31486,5.5845,-4.5095,15.4713,1553
31491,-9.0944,-2.1296,12.4834,1555
31496,-15.0464,4.361,4.8159,1567
31501,8.6179,8.1331,8.4013,1547
31506,11.8669,-2.1656,13.5189,1547
31511,-7.4424,-2.6001,17.6584,1557
31516,-13.5691,0.3926,6.9659,1543
31521,-2.32,6.8869,3.5422,1542
31526,15.1721,4.0091,14.1042,1580
31531,1.1552,-4.1264,16.9114,1543
31536,-9.4559,-1.919,9.9156,1563
31541,-12.5516,5.8574,3.717,1543
31546,12.7982,8.2408,11.5736,1549
31551,9.1913,-3.8235,14.1856,1543
31556,-8.9124,-2.1931,15.6329,1563
31561,-15.1984,2.3403,5.9568,1547
31566,3.1376,6.9899,5.1368,1560
31571,14.0396,0.8045,13.9343,1524
31576,-3.6057,-3.3627,17.8727,1567
31581,-10.9619,-1.0499,7.9942,1551
31586,-7.9727,6.4524,3.134,1544
31591,14.868,7.1275,13.7906,1546
31596,5.5797,-4.3946,15.3492,1559
31601,-9.0369,-2.144,12.7503,1556
31606,-14.9757,4.3144,4.9081,1564
31611,8.2301,7.756,8.0721,1550
31616,12.0333,-2.0171,13.6661,1547
31621,-7.2197,-2.6013,17.5866,1556
31626,-13.1992,0.3519,7.0126,1549
31631,-2.7605,6.7457,3.5745,1528
31636,15.2415,4.1827,14.1485,1563
31641,1.2007,-4.1599,16.6612,1553
31646,-9.4044,-1.8124,10.1011,1577
31651,-12.5684,5.6898,3.9935,1533
31656,12.469,8.1702,11.3605,1554
31661,9.1925,-3.8032,13.8828,1545
31666,-8.9495,-2.1225,15.8472,1561
31671,-14.9853,2.1656,6.1363,1541
31676,2.8252,6.9947,5.2541,1561
31681,14.0049,0.7745,13.5093,1542
31686,-3.3303,-3.2286,17.6836,1559
31691,-10.8745,-1.172,8.3007,1554
31696,-8.4467,6.4548,3.4093,1557
31701,14.8572,7.1251,13.4566,1529
31706,5.7281,-4.4017,14.9949,1553
31711,-9.2715,-1.9345,13.1801,1547
31716,-15.1529,4.1192,5.1032,1563
31721,8.0134,7.8266,7.999,1545
31726,12.0967,-2.0123,13.3321,1543
31731,-6.8067,-2.4852,17.4908,1547
31736,-13.1226,0.2526,7.2508,1553
31741,-3.3136,6.8678,3.6176,1545
31746,15.4378,3.9648,13.9905,1567
31751,1.7322,-4.2748,16.2327,1565
31756,-9.6414,-1.5455,10.5991,1573
31761,-13.1346,5.8921,4.0929,1531
31766,12.3265,7.8075,11.145,1565
31771,9.3913,-3.7314,13.9079,1549
31776,-8.8047,-1.8842,15.9597,1573
31781,-14.9542,2.2003,6.2297,1553
31786,2.1739,7.1359,5.0194,1561
31791,14.467,0.7039,14.0013,1545
31796,-2.5343,-3.4405,17.0922,1571
31801,-10.8086,-0.7733,8.6419,1546
31806,-9.2428,6.8103,3.3734,1556
31811,15.0727,6.4979,13.4961,1549
31816,6.1567,-4.3826,14.8704,1561
31821,-9.3913,-1.5407,13.3776,1551
31826,-15.2331,4.3407,5.1116,1563
31831,7.288,7.2173,7.4903,1532
31836,12.6761,-1.8387,14.0061,1555
31841,-6.4775,-2.5163,17.1832,1545
31846,-12.8281,0.4932,7.1946,1545
31851,-3.9157,6.9085,3.4405,1543
31856,15.67,4.1049,14.6346,1564
31861,2.1907,-4.3287,16.0388,1549
31866,-9.7049,-1.4078,10.5848,1561
31871,-13.2639,5.9053,4.0905,1546
31876,11.5389,7.3801,10.7919,1559
31881,10.082,-3.6919,14.2275,1544
31886,-8.8478,-1.998,15.8748,1564
31891,-14.7016,2.2781,6.1076,1542
31896,1.4246,7.0234,4.786,1564
31901,14.9159,0.8966,14.4598,1541
31906,-2.0171,-3.6883,16.8624,1563
31911,-10.9762,-0.6404,8.5293,1553
31916,-9.4631,6.8486,3.3746,1561
31921,14.5316,6.3434,13.5679,1531
31926,6.8582,-4.6112,14.88,1555
31931,-9.6738,-1.4916,13.5153,1559
31936,-15.0895,4.3036,5.0015,1553
31941,6.6128,7.1539,7.2736,1531
31946,13.1717,-1.883,14.1366,1555
31951,-6.2788,-2.715,17.1868,1543
31956,-12.7814,0.5315,7.0689,1557
31961,-4.3503,7.0461,3.389,1545
31966,15.6078,4.215,14.68,1565
31971,2.5821,-4.5238,16.0172,1551
31976,-9.8904,-1.3168,10.6614,1567
31981,-13.3656,5.8586,4.027,1527
31986,11.3102,7.5549,10.7583,1550
31991,10.3908,-3.8846,14.1402,1530
31996,-8.8418,-1.9609,16.0507,1572
32001,-14.7052,2.1177,6.0992,1541
32006,1.136,7.2089,4.7788,1563
32011,15.0631,0.9577,14.364,1528
32016,-1.8244,-3.7062,16.9438,1573
32021,-10.9858,-0.7422,8.5677,1562
32026,-9.6738,6.8283,3.298,1555
32031,14.516,6.6331,13.4973,1545
32036,7.118,-4.7513,14.8476,1549
32041,-9.8174,-1.4641,13.6493,1553
32046,-15.0835,4.1635,5.0362,1554
32051,6.4248,7.2353,7.2484,1549
32056,13.4111,-1.7825,14.0432,1541
32061,-6.207,-2.6013,17.2562,1545
32066,-12.6893,0.4621,7.0294,1559
32071,-4.5562,7.0138,3.4548,1533
32076,15.6126,4.373,14.7267,1566
32081,2.9078,-4.5861,16.0028,1547
32086,-10.0269,-1.2402,10.6817,1558
32091,-13.362,5.8203,4.0163,1549
32096,10.9738,7.446,10.5644,1553
32101,10.8984,-3.8427,14.2156,1529
32106,-8.8873,-1.7837,16.1321,1567
32111,-14.4658,2.1811,5.9927,1543
32116,0.8894,6.9635,4.6735,1551
32121,15.2463,1.2929,14.698,1531
32126,-1.883,-3.7649,17.0467,1554
32131,-10.9559,-0.7051,8.3869,1553
32136,-9.3661,6.5565,3.3758,1551
32141,14.0492,6.8929,13.4865,1543
32146,7.4089,-4.8339,14.9614,1553
32151,-9.9491,-1.4952,13.5823,1551
32156,-14.7064,3.9636,4.9452,1549
32161,6.1124,7.3298,7.2293,1551
32166,13.4997,-1.5778,13.9953,1557
32171,-6.4248,-2.7246,17.5387,1541
32176,-12.6761,0.2705,6.918,1557
32181,-4.3539,6.7959,3.5326,1543
32186,15.2403,4.9189,14.4741,1563
32191,3.0023,-4.7992,16.1692,1551
32196,-10.0999,-1.3515,10.653,1565
32201,-12.9323,5.5067,4.124,1544
32206,10.6255,7.8829,10.5692,1555
32211,10.9714,-3.7984,14.0109,1541
32216,-9.1028,-1.8902,16.4015,1567
32221,-14.3125,1.8986,6.0118,1529
32226,0.905,7.0378,4.8123,1547
32231,14.9769,1.6149,14.1629,1547
32236,-1.901,-3.8738,17.3508,1559
32241,-10.8505,-0.9517,8.4192,1549
32246,-9.426,6.3949,3.4441,1545
32251,13.9271,7.3658,13.1932,1533
32256,7.367,-4.8674,14.8895,1541
32261,-9.7887,-1.7059,13.6877,1547
32266,-14.7567,3.7769,5.1499,1556
32271,6.0765,7.6267,7.3298,1548
32276,13.3285,-1.5754,13.6673,1553
32281,-6.2225,-2.7713,17.6548,1551
32286,-12.5253,0.0814,7.1479,1560
32291,-4.6711,6.9276,3.6236,1533
32296,15.3181,4.8926,14.1844,1557
32301,3.1101,-4.7621,16.0783,1551
32306,-9.8497,-1.4676,10.9044,1571
32311,-13.3561,5.3929,4.276,1548
32316,10.7775,7.9595,10.4315,1560
32321,10.8661,-3.6655,13.9211,1533
32326,-8.8633,-1.9321,16.3668,1565
32331,-14.3389,1.7573,6.2261,1548
32336,0.662,7.0641,4.6328,1555
32341,14.9817,1.6927,14.0073,1555
32346,-1.7873,-3.8188,17.1952,1563
32351,-10.6051,-1.0666,8.5916,1555
32356,-9.8976,6.4344,3.5039,1541
32361,14.0276,7.4077,13.1561,1571
32366,7.5082,-4.6555,14.7722,1543
32371,-9.7217,-1.6807,13.8876,1561
32376,-15.0033,3.717,5.2134,1549
32381,5.9592,7.5046,7.0964,1541
32386,13.477,-1.3671,13.7319,1553
32391,-6.0729,-2.7557,17.6536,1555
32396,-12.4882,0.0443,7.191,1564
32401,-4.8914,6.8761,3.565,1515
32406,15.3732,5.1056,14.3257,1549
32411,3.2741,-4.7561,15.9849,1548
32416,-9.997,-1.482,10.9607,1564
32421,-13.4015,5.3893,4.2042,1553
32426,10.6315,8.0158,10.4495,1555
32431,11.0061,-3.7014,13.8217,1531
32436,-8.9244,-1.8938,16.5403,1554
32441,-14.2898,1.6185,6.201,1555
32446,0.5734,7.1311,4.695,1557
32451,14.9877,1.7394,13.9067,1547
32456,-1.6436,-3.8678,17.3556,1565
32461,-10.7823,-1.1408,8.5904,1547
32466,-9.7839,6.3973,3.553,1555
32471,13.9618,7.5645,13.1944,1509
32476,7.6267,-4.9452,14.7243,1546
32481,-9.8821,-1.5886,13.8971,1547
32486,-14.9793,3.5554,5.2074,1557
32491,6.0094,7.7572,7.3035,1549
32496,13.5763,-1.5514,13.5105,1554
32501,-6.0717,-2.6288,17.7291,1557
32506,-12.6294,-0.0192,7.1694,1561
32511,-4.853,6.863,3.5626,1529
32516,15.439,5.0123,14.1844,1560
32521,3.2717,-4.8578,16.0148,1542
32526,-10.1131,-1.4198,10.969,1559
32531,-13.3896,5.3271,4.2258,1543
32536,10.671,8.0242,10.5321,1553
32541,11.1654,-3.8391,13.8014,1544
32546,-8.9962,-1.6807,16.5499,1566
32551,-14.3736,1.6927,6.1663,1547
32556,0.6309,7.0629,4.7321,1551
32561,15.2379,1.7298,13.9809,1529
32566,-1.5838,-3.8654,17.2239,1560
32571,-10.8912,-0.8871,8.588,1559
32576,-9.6702,6.3482,3.5195,1549
32581,13.9546,7.2748,13.1825,1531
32586,7.7979,-4.9141,14.7507,1547
32591,-10.1035,-1.3408,13.8912,1557
32596,-14.7148,3.7218,5.0625,1561
32601,5.8538,7.4268,7.2568,1533
32606,13.7415,-1.4796,13.7798,1533
32611,-6.2537,-2.6588,17.5818,1591
32616,-12.6617,0.2059,6.9599,1559
32621,-4.6388,6.8139,3.5674,1531
32626,15.3516,5.0147,14.376,1553
32631,3.2334,-4.9057,16.0519,1559
32636,-10.2687,-1.2151,10.8278,1560
32641,-13.0412,5.4755,4.1025,1531
32646,10.5369,7.835,10.5453,1564
32651,11.236,-3.893,14.0001,1541
32656,-9.1961,-1.7585,16.3225,1565
32661,-14.2778,1.9752,5.9759,1509
32666,0.741,7.0282,4.8554,1553
32671,15.2104,1.5179,14.3125,1531
32676,-1.8675,-3.9361,17.2143,1559
32681,-11.0971,-0.6955,8.4168,1558
32686,-9.3338,6.5074,3.4967,1553
32691,13.9941,7.1,13.3537,1530
32696,7.5046,-5.1224,14.8512,1554
32701,-10.1155,-1.3719,13.5799,1547
32706,-14.6513,3.9121,4.9763,1564
32711,6.1351,7.4843,7.3873,1547
32716,13.6134,-1.7549,13.8804,1557
32721,-6.5194,-2.6133,17.5351,1553
32726,-12.7599,0.2634,6.9635,1565
32731,-4.312,6.8438,3.65,1545
32736,15.4558,4.7788,14.3951,1563
32741,2.8563,-4.9416,16.2542,1556
32746,-10.1442,-1.3096,10.5512,1573
32751,-12.9036,5.4887,4.0402,1508
32756,10.9738,8.0098,10.8026,1563
32761,10.9738,-4.0306,14.0671,1542
32766,-9.3242,-1.737,16.2518,1531
32771,-14.4251,2.0446,5.8814,1511
32776,1.154,7.0677,4.8734,1560
32781,15.0164,1.4401,14.1821,1529
32786,-2.3355,-3.8427,17.3795,1555
32791,-11.1103,-0.759,8.3031,1572
32796,-9.0573,6.4715,3.4536,1549
32801,14.0216,7.2125,13.5117,1541
32806,7.3418,-5.2038,14.9398,1527
32811,-10.1801,-1.3132,13.4566,1553
32816,-14.5951,3.9983,4.9249,1559
32821,6.5134,7.5836,7.7129,1555
32826,13.6505,-1.968,13.7056,1556
32831,-6.9264,-2.4864,17.7063,1543
32836,-12.9071,0.4764,6.7433,1561
32841,-3.8116,6.7935,3.6057,1547
32846,15.4019,4.7154,14.4981,1559
32851,2.5462,-4.9285,16.4362,1529
32856,-10.2939,-1.16,10.1885,1571
32861,-12.5528,5.5929,3.8571,1543
32866,11.0456,8.0182,11.0672,1557
32871,10.8972,-4.1934,14.1437,1553
32876,-9.5229,-1.8244,16.1261,1613
32881,-14.4334,2.144,5.7365,1532
32886,1.5742,7.0964,5.126,1559
32891,14.935,1.154,14.1809,1531
32896,-2.5989,-3.7996,17.5687,1592
32901,-11.2108,-0.6967,7.9906,1547
32906,-8.6072,6.4751,3.3615,1556
32911,14.2527,7.167,13.6589,1526
32916,7.0785,-5.193,15.0332,1565
32921,-10.0676,-1.3827,13.1741,1547
32926,-14.5256,4.0797,4.7812,1559
32931,6.8115,7.6303,7.841,1547
32936,13.3309,-1.9884,13.8145,1549
32941,-7.179,-2.4038,17.7339,1555
32946,-13.0532,0.4286,6.6571,1560
32951,-3.5291,6.7744,3.6009,1548
32956,15.2343,4.6507,14.4957,1555
32961,2.3511,-4.938,16.4613,1547
32966,-10.2496,-1.3012,10.1299,1565
32971,-12.4786,5.6144,3.9289,1551
32976,11.2097,7.999,11.1929,1563
32981,10.756,-4.2725,14.0588,1527
32986,-9.4798,-1.7202,16.0579,1563
32991,-14.4801,2.2553,5.7305,1544
32996,1.6556,7.1,5.0147,1561
33001,14.9494,1.0163,14.2299,1541
33006,-2.6049,-3.7912,17.419,1568
33011,-11.2252,-0.5926,8.0888,1547
33016,-8.764,6.596,3.3136,1553
33021,14.2694,6.9192,13.7427,1547
33026,6.9947,-5.0949,15.0308,1556
33031,-10.0712,-1.318,13.1609,1549
33036,-14.6046,4.2521,4.8483,1563
33041,6.8103,7.5334,7.7728,1549
33046,13.3477,-2.0674,13.8995,1547
33051,-7.0102,-2.5151,17.5315,1549
33056,-12.9957,0.5124,6.6882,1560
33061,-3.5829,6.8199,3.6224,1541
33073,15.3325,4.5418,14.5017,1557
33077,-10.3489,-1.2234,10.246,1565
33081,-12.4475,5.685,3.8882,1546
33086,11.2025,7.9895,11.1773,1549
33091,10.7212,-4.215,14.0899,1545
33096,-9.5289,-1.7154,15.9574,1578
33101,-14.4382,2.2494,5.7209,1547
33106,1.7885,7.0868,5.1822,1557
33111,14.8548,1.0403,14.0791,1528
33116,-2.8299,-3.7014,17.5806,1571
33121,-11.2587,-0.6883,8.0098,1558
33126,-8.4958,6.5194,3.4321,1557
33131,14.224,7.0952,13.6098,1529
33136,6.8977,-5.2241,15.105,1553
33141,-10.1107,-1.4497,13.058,1557
33146,-14.4694,4.0247,4.8123,1555
33151,6.942,7.8063,8.0589,1543
33156,13.2519,-2.132,13.6517,1531
33161,-7.2053,-2.4026,17.6728,1553
33166,-13.0807,0.4046,6.687,1555
33171,-3.4656,6.8702,3.7445,1524
33176,15.287,4.543,14.2706,1567
33181,2.2206,-4.9225,16.4781,1548
33186,-10.3082,-1.2857,10.1382,1565
33191,-12.39,5.5881,3.9516,1573
33196,11.2911,8.0972,11.3222,1565
33201,10.7655,-4.3299,14.0791,1547
33206,-9.5577,-1.6113,15.9753,1591
33211,-14.4251,2.2122,5.764,1520
33216,1.7346,7.1239,5.2625,1560
33221,14.9566,1.0151,14.0719,1528
33226,-2.7461,-3.7912,17.4717,1576
33231,-11.2348,-0.504,8.0481,1559
33236,-8.5509,6.4775,3.4249,1547
33241,14.2072,6.9971,13.6697,1543
33246,6.9564,-5.2289,15.0344,1525
33251,-10.2089,-1.306,13.1346,1556
33256,-14.4454,4.112,4.8878,1559
33261,6.8342,7.7333,8.0158,1549
33266,13.3261,-2.1871,13.6589,1561
33271,-7.0413,-2.4948,17.5411,1541
33276,-12.9945,0.4537,6.7696,1557
33281,-3.565,6.7935,3.8092,1546
33286,15.3397,4.4209,14.2443,1557
33291,2.2781,-4.9093,16.3452,1547
33296,-10.3573,-1.1803,10.2544,1561
33301,-12.463,5.5917,4.0282,1542
33306,11.388,8.1008,11.2551,1559
33311,10.7117,-4.2916,13.9965,1533
33316,-9.6151,-1.5455,16.0663,1573
33321,-14.467,2.2278,5.7664,1545
33326,1.7765,7.1611,5.2158,1562
33331,14.8752,0.9661,13.9378,1530
33336,-2.7102,-3.7589,17.4837,1527
33341,-11.2815,-0.6093,8.1558,1513
33346,-8.576,6.5697,3.468,1562
33351,14.3616,6.9121,13.5991,1545
33356,6.869,-5.2385,14.9255,1574
33361,-10.2005,-1.221,13.228,1530
33366,-14.5484,4.1743,4.8926,1561
33371,6.9791,7.5968,7.9392,1541
33376,13.3177,-2.2757,13.7427,1525
33381,-6.9228,-2.3786,17.4645,1544
33386,-13.0292,0.5626,6.7816,1555
33391,-3.5027,6.9157,3.6404,1541
33396,15.5683,4.2114,14.4562,1555
33401,2.1823,-4.7297,16.2626,1543
33406,-10.3872,-1.0618,10.2771,1565
33411,-12.4534,5.7736,3.8642,1530
33416,11.4443,7.7943,11.1929,1555
33421,10.4663,-4.2581,14.1007,1531
33426,-9.4499,-1.5897,15.8329,1563
33431,-14.4466,2.3523,5.7628,1529
33436,1.8603,7.1084,5.1296,1561
33441,14.8943,0.8667,14.1509,1545
33446,-2.7366,-3.7266,17.3244,1564
33451,-11.2994,-0.5997,8.1116,1551
33456,-8.503,6.5673,3.4369,1555
33461,14.4155,6.8151,13.6326,1545
33466,6.7241,-5.1619,15.0081,1555
33471,-10.137,-1.3491,13.2184,1555
33476,-14.4334,4.1695,4.8375,1558
33481,7.0102,7.5717,7.9416,1527
33486,13.1909,-2.1991,13.7954,1544
33491,-7.094,-2.4229,17.4537,1549
33496,-13.0113,0.5567,6.7397,1557
33501,-3.4345,6.8163,3.7745,1541
33506,15.348,4.3694,14.3473,1555
33511,2.0794,-4.7944,16.368,1554
33516,-10.3418,-1.2438,10.2244,1563
33521,-12.3122,5.6647,3.9684,1546
33526,11.3473,8.0349,11.2958,1553
33531,10.5381,-4.3263,14.0216,1544
33536,-9.5948,-1.6245,15.8951,1515
33541,-14.4969,2.2793,5.7652,1542
33546,1.9273,7.1599,5.3546,1564
33551,14.9111,0.8727,13.9187,1529
33556,-2.9724,-3.7397,17.5184,1561
33561,-11.3461,-0.6393,7.9978,1547
33566,-8.2732,6.5517,3.468,1555
33571,14.364,6.9288,13.5811,1573
33576,6.6547,-5.2122,15.0847,1561
33581,-10.2077,-1.2917,12.9826,1545
33586,-14.376,4.2282,4.7992,1563
33591,7.1108,7.7464,8.1606,1533
33596,13.2363,-2.381,13.6302,1541
33601,-7.3251,-2.3942,17.5543,1555
33606,-13.0867,0.571,6.7253,1549
33611,-3.1831,6.839,3.8199,1527
33616,15.439,4.2282,14.2706,1562
33621,1.9118,-4.8686,16.453,1557
33626,-10.3657,-1.1516,10.1406,1563
33631,-12.1314,5.7054,3.9971,1531
33636,11.546,8.0349,11.3725,1549
33641,10.3789,-4.3622,14.109,1529
33646,-9.5996,-1.6125,15.7934,1567
33651,-14.4167,2.32,5.7497,1547
33656,2.1105,7.179,5.3307,1555
33661,14.8297,0.7877,13.9941,1548
33666,-3.0861,-3.5853,17.571,1563
33671,-11.2731,-0.5962,8.0134,1549
33676,-8.1319,6.5003,3.4369,1549
33681,14.3856,6.9707,13.5907,1531
33686,6.5074,-5.1152,15.1565,1559
33691,-10.1454,-1.4138,12.979,1547
33696,-14.2275,4.1755,4.853,1557
33701,7.1599,7.6579,8.1044,1546
33706,13.0292,-2.2517,13.6745,1557
33711,-7.3346,-2.4421,17.504,1555
33716,-12.9466,0.5854,6.7313,1551
33721,-3.1292,6.8079,3.8367,1543
33726,15.2271,4.2796,14.2527,1563
33731,1.822,-4.7788,16.453,1549
33736,-10.2771,-1.2366,10.0999,1565
33741,-12.0716,5.703,4.0103,1549
33746,11.485,7.9859,11.321,1565
33751,10.2675,-4.3742,14.0576,1531
33756,-9.6223,-1.6616,15.7957,1565
33761,-14.3377,2.3284,5.7593,1543
33766,2.1356,7.1658,5.4085,1559
33771,14.7028,0.7494,13.8576,1532
33776,-3.2825,-3.6117,17.5651,1563
33781,-11.2061,-0.6057,8.011,1555
33786,-8.157,6.5733,3.5291,1557
33791,14.3832,6.8714,13.5835,1528
33796,6.3973,-5.1056,15.1182,1563
33801,-10.082,-1.3755,12.9119,1564
33806,-14.267,4.3203,4.8578,1555
33811,7.2317,7.6986,8.272,1533
33816,12.9838,-2.4217,13.6039,1557
33821,-7.4089,-2.3535,17.4358,1547
33826,-12.9838,0.6141,6.7098,1555
33831,-3.0742,6.8929,3.887,1529
33836,15.3385,4.0438,14.1306,1566
33841,1.6197,-4.6507,16.4589,1543
33846,-10.2735,-1.2594,10.0868,1567
33851,-11.9961,5.7389,4.0414,1547
33856,11.6634,8.029,11.4215,1557
33861,10.1167,-4.4077,13.9917,1544
33866,-9.5924,-1.6029,15.7395,1563
33871,-14.3401,2.3331,5.8598,1541
33876,2.3284,7.2065,5.4899,1559
33881,14.6633,0.6464,13.7858,1543
33886,-3.3639,-3.4129,17.6141,1573
33891,-11.1857,-0.6393,7.9655,1553
33896,-7.9799,6.5457,3.5638,1564
33901,14.3664,6.9312,13.5572,1547
33906,6.2596,-4.9895,15.1218,1559
33911,-10.0987,-1.47,12.815,1557
33916,-14.2275,4.2186,4.9165,1555
33921,7.3526,7.7692,8.3175,1547
33926,12.9826,-2.3762,13.617,1543
33931,-7.3442,-2.3116,17.4286,1555
33936,-12.9598,0.656,6.7421,1563
33941,-2.9604,6.8702,3.9409,1531
33946,15.269,4.0689,14.2,1562
33951,1.6173,-4.6292,16.5128,1553
33956,-10.2544,-1.2031,10.009,1560
33961,-11.8836,5.7221,3.9576,1547
33966,11.467,7.9428,11.4,1549
33971,10.228,-4.3048,14.1222,1528
33976,-9.73,-1.6712,15.6724,1575
33981,-14.2216,2.4576,5.7784,1543
33986,2.2182,7.1132,5.539,1557
33991,14.637,0.7075,13.8888,1533
33996,-3.3435,-3.6021,17.498,1567
34001,-11.163,-0.5614,7.9619,1559
34006,-7.8757,6.5194,3.6069,1560
34011,14.3077,6.8438,13.5907,1531
34016,6.3183,-5.0865,15.1038,1559
34021,-10.0568,-1.4605,12.8233,1547
34026,-14.0935,4.276,4.9153,1560
34031,7.1994,7.7021,8.2672,1531
34036,12.9466,-2.2649,13.5907,1543
34041,-7.5657,-2.4134,17.4681,1547
34046,-12.8892,0.6404,6.6607,1561
34051,-2.8898,6.8055,3.9397,1529
34056,15.2187,4.1671,14.2479,1568
34061,1.5455,-4.6292,16.508,1543
34066,-10.2627,-1.2222,9.9515,1571
34071,-11.9028,5.8059,4.0019,1545
34076,11.3701,7.9607,11.4371,1553
34081,10.1694,-4.3407,14.0588,1543
34086,-9.645,-1.7071,15.6425,1567
34091,-14.2503,2.405,5.7796,1532
34096,2.2087,7.2018,5.612,1563
34101,14.7375,0.5926,13.8684,1529
34106,-3.3639,-3.486,17.5507,1561
34111,-11.2743,-0.6764,7.92,1549
34116,-7.8877,6.4679,3.5087,1559
34121,14.2886,6.8893,13.5751,1529
34126,6.3865,-5.1559,15.1266,1557
34131,-10.2508,-1.3898,12.8018,1559
34136,-14.0049,4.1934,4.8686,1557
34141,7.1694,7.7668,8.4432,1549
34146,13.0592,-2.2996,13.4841,1551
34151,-7.5729,-2.2721,17.5866,1548
34156,-12.876,0.5483,6.6367,1553
34161,-2.8443,6.7145,4.063,1541
34166,15.0164,4.3024,13.9989,1557
34171,1.6664,-4.7118,16.6517,1541
34176,-10.2963,-1.257,9.924,1567
34181,-11.7412,5.6108,4.0294,1567
34186,11.3365,8.1056,11.4551,1561
34191,10.3046,-4.3658,13.9881,1529
34196,-9.7468,-1.6209,15.7443,1575
34201,-14.1497,2.3224,5.7916,1543
34206,2.1225,7.2257,5.6216,1563
34211,14.6214,0.662,13.714,1533
34216,-3.2789,-3.6021,17.577,1562
34221,-11.1833,-0.6021,7.9619,1553
34226,-8.0206,6.4763,3.5662,1554
34231,14.2204,6.8678,13.5919,1543
34236,6.4799,-5.0996,15.1182,1555
34241,-10.1885,-1.2486,12.8593,1557
34246,-14.0995,4.2533,4.8662,1557
34251,7.0892,7.7381,8.3438,1547
34256,13.1609,-2.3152,13.5859,1545
34261,-7.6339,-2.3032,17.5339,1555
34266,-12.9179,0.6428,6.5853,1549
34271,-2.9951,6.7576,3.9923,1525
34276,15.196,4.148,14.2742,1558
34281,1.7729,-4.7022,16.5607,1549
34286,-10.3334,-1.2031,9.9611,1567
34291,-11.8489,5.6958,3.9516,1547
34296,11.3126,7.9871,11.4227,1557
34301,10.4004,-4.3419,14.0145,1544
34306,-9.76,-1.6233,15.7862,1571
34311,-14.2647,2.3559,5.7377,1545
34316,2.1201,7.191,5.5893,1561
34321,14.6932,0.7075,13.811,1531
34326,-3.2513,-3.5566,17.5938,1567
34331,-11.2504,-0.6548,7.9009,1559
34336,-7.9308,6.5062,3.5422,1549
34341,14.2072,6.93,13.6398,1531
34346,6.456,-5.0937,15.1421,1555
34351,-10.1586,-1.4545,12.8628,1562
34356,-14.048,4.197,4.9009,1562
34361,7.1168,7.7201,8.2851,1549
34366,13.0436,-2.2625,13.5524,1548
34371,-7.5022,-2.3559,17.5303,1545
34376,-12.8892,0.5016,6.6798,1561
34381,-2.9568,6.7469,3.9971,1555
34386,15.0679,4.3012,14.1282,1555
34391,1.7083,-4.6459,16.6182,1541
34396,-10.2592,-1.3408,9.9383,1563
34401,-11.8202,5.5713,4.0474,1544
34406,11.4335,8.2468,11.4682,1559
34411,10.3298,-4.3275,13.9594,1518
34416,-9.7193,-1.6795,15.761,1575
34421,-14.218,2.2505,5.8227,1542
34426,2.1967,7.2197,5.5569,1555
34431,14.5567,0.8727,13.6553,1545
34436,-3.4441,-3.5626,17.7087,1560
34441,-11.163,-0.7434,7.8961,1544
34446,-7.9595,6.3422,3.6057,1560
34451,14.1509,7.106,13.5368,1545
34456,6.4596,-5.1056,15.123,1553
34461,-10.1359,-1.476,12.8724,1553
34466,-14.0157,4.1551,4.9237,1558
34471,7.1395,7.8685,8.3845,1545
34476,12.9969,-2.3858,13.374,1555
34481,-7.5118,-2.3331,17.4442,1545
34486,-12.8748,0.4956,6.681,1548
34491,-3.0215,6.8522,4.0725,1542
34496,15.1589,4.1851,14.0109,1542
34501,1.6759,-4.6855,16.5703,1553
34506,-10.2484,-1.2713,9.9778,1565
34511,-11.9578,5.6096,4.0749,1544
34516,11.4467,8.1989,11.4455,1553
34521,10.3334,-4.361,13.8552,1531
34526,-9.7408,-1.6197,15.8352,1576
34531,-14.2551,2.2039,5.8239,1545
34536,2.1656,7.2556,5.6802,1553
34541,14.6058,0.6584,13.5225,1530
34546,-3.2729,-3.5171,17.5794,1565
34551,-11.2695,-0.7482,7.9859,1547
34556,-8.0266,6.4452,3.6691,1557
34561,14.2587,7.0234,13.5404,1527
34566,6.5481,-5.1463,15.0021,1563
34571,-10.2639,-1.3396,13.0221,1554
34576,-14.139,4.0797,4.9129,1547
34581,7.2221,7.9404,8.4683,1543
34586,13.0053,-2.3978,13.362,1553
34591,-7.4412,-2.1584,17.5806,1547
34596,-12.9861,0.4226,6.7301,1559
34601,-3.0538,6.7959,4.0498,1541
34606,15.214,4.1863,14.0312,1560
34611,1.8783,-4.6914,16.4637,1553
34616,-10.398,-1.245,10.0413,1565
34621,-11.9985,5.539,4.0282,1548
34626,11.4156,8.1511,11.4778,1559
34631,10.4758,-4.4245,13.86,1531
34636,-9.7971,-1.4533,15.8975,1559
34641,-14.2192,2.2326,5.7688,1545
34646,2.0411,7.1994,5.6611,1565
34651,14.7303,0.7338,13.5596,1543
34656,-3.1639,-3.4907,17.577,1559
34661,-11.1953,-0.6536,7.9092,1555
34666,-8.0721,6.3805,3.6236,1548
34671,14.1713,7.0138,13.5404,1531
34676,6.699,-5.1475,15.0883,1553
34681,-10.2137,-1.2641,12.9981,1558
34686,-14.1366,4.0881,4.8243,1555
34691,7.082,7.7931,8.2839,1549
34696,13.1897,-2.2362,13.4722,1543
34701,-7.4328,-2.2003,17.5698,1545
34706,-12.9131,0.4752,6.6224,1528
34711,-3.1256,6.7888,3.9816,1529
34716,15.1673,4.2904,14.2096,1543
34721,1.9261,-4.7094,16.5056,1549
34726,-10.3561,-1.1887,10.009,1566
34731,-11.8956,5.5641,4.0426,1543
34736,11.2539,8.0876,11.4215,1555
34741,10.6315,-4.3622,13.9474,1546
34746,-9.7923,-1.561,15.8736,1560
34751,-14.2216,2.2745,5.7628,1545
34756,2.0686,7.1299,5.5857,1557
34761,14.7148,0.8188,13.7331,1529
34766,-3.2501,-3.5566,17.5962,1567
34771,-11.2958,-0.6608,7.8877,1553
34776,-7.8973,6.4536,3.5961,1559
34781,14.0647,7.0809,13.562,1542
34786,6.614,-5.1439,15.0811,1553
34791,-10.2843,-1.4102,12.8856,1551
34796,-14.0216,4.1192,4.853,1565
34801,7.0773,7.8793,8.3785,1551
34806,13.0209,-2.2936,13.4231,1546
34811,-7.4448,-2.32,17.5854,1542
34816,-12.9215,0.4585,6.6463,1557
34821,-3.0035,6.8666,3.9863,1513
34826,15.1421,4.276,14.0013,1555
34831,1.7669,-4.6926,16.5739,1547
34836,-10.2687,-1.3719,9.9719,1563
34841,-11.9159,5.5222,4.0462,1529
34846,11.4934,8.3318,11.4922,1563
34851,10.3358,-4.3586,13.8708,1527
34856,-9.7683,-1.6412,15.8113,1557
34861,-14.2814,2.1249,5.8251,1583
34866,2.1763,7.2712,5.6515,1563
34871,14.5101,0.8583,13.4446,1545
34876,-3.3639,-3.4872,17.741,1555
34881,-11.157,-0.8679,7.9069,1547
34886,-7.9571,6.3351,3.6907,1543
34891,14.0971,7.3107,13.4746,1533
34896,6.5613,-5.1427,15.0751,1546
34901,-10.1945,-1.4868,12.9299,1597
34906,-14.121,3.966,4.9752,1533
34911,7.1886,8.0649,8.3941,1545
34916,13.0771,-2.296,13.1466,1547
34921,-7.5405,-2.1895,17.6668,1581
34926,-12.8509,0.3304,6.7002,1547
34931,-3.0251,6.7624,4.0689,1541
34936,15.1086,4.397,13.8505,1563
34941,1.7825,-4.6507,16.5834,1544
34946,-10.1682,-1.4353,9.9623,1572
34951,-11.9662,5.4121,4.0797,1533
34956,11.4347,8.406,11.4575,1557
34961,10.3884,-4.3311,13.7822,1527
34966,-9.7959,-1.5646,15.9178,1573
34971,-14.2802,2.0351,5.8251,1568
34976,2.2063,7.2245,5.6407,1551
34981,14.5496,0.911,13.3944,1544
34986,-3.3088,-3.4297,17.753,1560
34991,-11.2575,-0.9385,7.9033,1563
34996,-7.9188,6.262,3.7026,1554
35001,14.1282,7.3167,13.55,1545
35006,6.6283,-5.1044,15.0224,1555
35011,-10.1945,-1.4904,12.9275,1541
35016,-14.1294,3.9109,4.9273,1549
35021,7.2329,8.0912,8.4934,1565
35026,13.0951,-2.2661,13.0221,1553
35031,-7.6184,-2.0865,17.844,1561
35036,-12.9538,0.2274,6.6918,1566
35041,-2.873,6.675,4.1049,1531
35046,15.0152,4.5262,13.8205,1517
35051,1.8675,-4.6029,16.6445,1555
35056,-10.2376,-1.4832,9.8689,1559
35061,-11.7855,5.363,4.0175,1533
35066,11.3904,8.5234,11.5436,1548
35071,10.404,-4.3407,13.7044,1544
35076,-9.815,-1.567,15.9993,1557
35081,-14.1701,1.9884,5.8419,1555
35086,2.1955,7.2951,5.7533,1555
35091,14.4777,0.8859,13.2639,1533
35096,-3.3148,-3.3854,17.8715,1563
35101,-11.1294,-0.9697,7.9272,1547
35106,-8.0325,6.2668,3.7326,1544
35111,14.1294,7.4101,13.5009,1531
35116,6.5517,-5.0793,15.1026,1557
35121,-10.0952,-1.5419,12.8784,1556
35126,-14.1378,3.8547,4.9572,1545
35131,7.2496,8.1343,8.4827,1553
35136,13.0197,-2.2661,13.1106,1544
35141,-7.5896,-2.15,17.7746,1544
35146,-12.9239,0.2442,6.7385,1557
35151,-2.9892,6.7145,4.136,1549
35156,15.0045,4.4688,13.7942,1553
35161,1.81,-4.6232,16.702,1561
35166,-10.1502,-1.5179,9.9419,1563
35171,-11.819,5.3151,4.1025,1547
35176,11.4203,8.5748,11.5831,1551
35181,10.471,-4.2689,13.7236,1543
35186,-9.8737,-1.579,15.9969,1563
35191,-14.2431,1.9477,5.8359,1544
35196,2.3248,7.2149,5.7162,1555
35201,14.449,1.0319,13.2256,1543
35206,-3.462,-3.3914,17.9541,1563
35211,-11.1977,-1.0415,7.8123,1555
35216,-7.7476,6.2118,3.6847,1553
35221,14.0145,7.4615,13.4638,1527
35226,6.5553,-5.0601,15.1326,1547
35231,-10.1143,-1.6544,12.8138,1547
35236,-14.0037,3.9133,4.8961,1554
35241,7.3131,8.1906,8.5665,1546
35246,12.9838,-2.2398,13.0891,1544
35251,-7.7285,-2.2338,17.844,1548
35256,-12.9706,0.2598,6.7241,1593
35261,-2.7737,6.7157,4.1503,1533
35266,14.8991,4.391,13.7367,1553
35271,1.64,-4.6819,16.7666,1556
35276,-10.258,-1.5143,9.8258,1553
35281,-11.6801,5.3798,4.124,1545
35286,11.4203,8.655,11.6514,1559
35291,10.3418,-4.4508,13.6661,1545
35296,-9.93,-1.6412,15.8592,1573
35301,-14.2826,2.0171,5.8215,1549
35306,2.4026,7.3921,5.8897,1547
35311,14.4909,0.735,13.1154,1531
35316,-3.4967,-3.4644,17.9481,1568
35321,-11.2504,-0.9685,7.8853,1551
35326,-7.7297,6.2225,3.7397,1544
35331,14.1892,7.3155,13.4315,1551
35336,6.456,-5.1954,15.0978,1561
35341,-10.2089,-1.5,12.791,1561
35346,-14.0863,3.8666,4.9488,1543
35351,7.5393,8.3246,8.7137,1511
35356,12.9024,-2.4253,12.9802,1545
35361,-7.7883,-2.0973,17.7841,1549
35366,-12.9251,0.2646,6.7098,1555
35371,-2.7414,6.7612,4.2006,1575
35376,15.0344,4.3012,13.641,1565
35381,1.5383,-4.5849,16.6912,1545
35386,-10.1945,-1.5191,9.8294,1571
35391,-11.7807,5.3893,4.0893,1499
35396,11.6873,8.5665,11.7029,1560
35401,10.2747,-4.3778,13.7212,1543
35406,-9.8845,-1.4964,15.7993,1555
35411,-14.3461,1.998,5.849,1547
35416,2.5857,7.3382,5.9424,1561
35421,14.4514,0.68,13.1394,1542
35426,-3.735,-3.2561,17.9278,1555
35431,-11.2994,-1.0151,7.78,1555
35436,-7.5489,6.2345,3.711,1541
35441,14.2635,7.2903,13.544,1545
35446,6.3147,-5.0661,15.1134,1559
35451,-10.1526,-1.5119,12.6905,1555
35456,-14.03,3.9492,4.8614,1549
35461,7.7333,8.3546,8.8753,1548
35466,12.8233,-2.5019,12.9754,1547
35471,-7.9033,-2.0195,17.7925,1551
35476,-13.1478,0.267,6.6176,1565
35481,-2.4505,6.8007,4.2748,1529
35486,14.9638,4.0929,13.6146,1555
35491,1.3527,-4.5753,16.8241,1547
35496,-10.3394,-1.476,9.7767,1558
35501,-11.5281,5.4324,4.0546,1549
35506,11.8764,8.5748,11.8824,1555
35511,10.094,-4.5514,13.72,1541
35516,-9.9766,-1.4688,15.6868,1573
35521,-14.3748,2.1632,5.7186,1531
35526,2.8718,7.5154,6.1184,1555
35531,14.3532,0.4393,13.0149,1547
35536,-3.9744,-3.1759,18.0499,1561
35541,-11.4431,-0.9313,7.671,1563
35546,-7.3658,6.3554,3.6931,1547
35551,14.3401,7.0892,13.5751,1531
35556,6.1172,-5.1811,15.2152,1549
35561,-10.1873,-1.5119,12.4941,1542
35566,-13.9773,4.0689,4.8064,1557
35571,8.0146,8.4096,8.995,1553
35576,12.7539,-2.6815,13.0688,1553
35581,-8.0026,-1.9537,17.7207,1549
35586,-13.2627,0.4597,6.5422,1553
35591,-2.1512,6.7947,4.2665,1532
35596,15.0212,3.8858,13.5955,1563
35601,1.0235,-4.4784,16.921,1560
35606,-10.3908,-1.4653,9.5445,1560
35611,-11.4096,5.5821,3.9863,1547
35616,12.1302,8.521,12.0524,1559
35621,9.9264,-4.5657,13.9809,1529
35626,-9.9886,-1.5706,15.4665,1571
35631,-14.4801,2.3595,5.6168,1543
35636,3.2537,7.4819,6.1423,1550
35641,14.3401,0.1808,13.2004,1530
35646,-4.1743,-3.2214,17.9374,1562
35651,-11.5365,-0.7003,7.6638,1557
35656,-7.0354,6.4224,3.5817,1556
35661,14.5041,6.7433,13.708,1531
35666,5.7724,-5.126,15.4115,1559
35671,-10.2208,-1.4557,12.2954,1559
35676,-13.878,4.391,4.6651,1555
35681,8.3079,8.2181,9.1339,1541
35686,12.5779,-2.8192,13.3429,1555
35691,-8.2768,-2.0794,17.4454,1554
35696,-13.4303,0.7422,6.4356,1553
35701,-1.7538,6.9061,4.2713,1531
35706,15.0093,3.5434,13.8169,1556
35711,0.5411,-4.4388,17.0527,1547
35716,-10.4842,-1.3934,9.3015,1572
35721,-11.1606,5.8119,3.8786,1533
35726,12.3158,8.3438,12.2954,1557
35731,9.7049,-4.8207,14.0492,1545
35736,-10.064,-1.6053,15.1685,1565
35741,-14.5723,2.6384,5.5174,1547
35746,3.6033,7.6124,6.3937,1558
35751,14.4059,-0.2263,13.3309,1529
35756,-4.5669,-3.2154,17.905,1561
35761,-11.8848,-0.5507,7.4843,1547
35766,-6.6391,6.5158,3.5973,1555
35771,14.6477,6.4955,13.8947,1542
35776,5.5091,-5.3307,15.542,1543
35781,-10.337,-1.3946,11.9554,1545
35786,-13.6577,4.4796,4.5346,1565
35791,8.6299,8.3522,9.4104,1544
35796,12.5085,-3.0538,13.3525,1553
35801,-8.5772,-1.9836,17.4633,1551
35806,-13.5452,0.8559,6.3386,1547
35811,-1.3862,6.9587,4.3742,1533
35816,15.0344,3.2298,13.7547,1564
35821,0.2933,-4.4891,17.1497,1541
35826,-10.4854,-1.2917,9.1638,1561
35831,-10.8673,5.8263,3.8008,1551
35836,12.5875,8.3019,12.378,1563
35841,9.4415,-4.8447,14.2623,1533
35846,-9.9934,-1.4856,14.9829,1575
35851,-14.5998,2.7354,5.4241,1544
35856,4.0366,7.5633,6.3829,1561
35861,14.2084,-0.3496,13.3632,1547
35866,-4.9321,-3.0083,18.1109,1561
35871,-11.8633,-0.5171,7.3502,1556
35876,-6.3363,6.5278,3.5721,1559
35881,14.7243,6.444,13.8983,1530
35886,5.1164,-5.2038,15.7,1555
35891,-10.1742,-1.5131,11.7053,1547
35896,-13.6505,4.5921,4.4604,1561
35901,8.9723,8.3989,9.7013,1547
35906,12.2882,-3.2693,13.3632,1551
35911,-8.7113,-1.9321,17.3975,1550
35916,-13.7391,0.9074,6.2656,1555
35921,-0.9301,6.9168,4.4353,1544
35926,14.9422,3.0933,13.7307,1561
35931,-0.1568,-4.3239,17.3687,1543
35936,-10.5812,-1.3587,8.9866,1566
35941,-10.4363,5.8131,3.6739,1545
35946,12.7192,8.3821,12.5696,1563
35951,9.2285,-4.8842,14.2706,1530
35956,-10.1311,-1.5586,14.8237,1577
35961,-14.5017,2.7964,5.3403,1547
35966,4.4257,7.6315,6.6379,1565
35971,14.0348,-0.4633,13.1932,1545
35976,-5.3606,-2.8838,18.2199,1571
35981,-11.9926,-0.5483,7.1994,1549
35986,-5.8694,6.4955,3.6081,1548
35991,14.6477,6.3997,13.8828,1541
35996,4.6962,-5.1655,15.8317,1560
36001,-10.155,-1.5814,11.485,1543
36006,-13.3692,4.6148,4.4472,1556
36011,9.2991,8.5928,10.0245,1544
36016,12.0572,-3.4572,13.2723,1561
36021,-8.8992,-1.7933,17.2406,1555
36026,-13.7822,0.9098,6.2034,1555
36031,-0.516,7.0006,4.6388,1546
36036,14.9123,2.7845,13.4626,1561
36041,-0.577,-4.1779,17.4585,1544
36046,-10.5896,-1.4293,8.7867,1575
36051,-10.1502,5.8287,3.7864,1547
36056,12.9993,8.3881,12.6821,1554
36061,8.8238,-4.9249,14.3173,1528
36066,-10.1203,-1.5886,14.4813,1575
36071,-14.5807,2.8934,5.3642,1544
36076,4.9057,7.8542,6.9025,1561
36081,13.8205,-0.7171,13.0221,1545
36086,-5.7616,-2.7378,18.2366,1565
36091,-12.1183,-0.5842,7.179,1547
36096,-5.4217,6.4512,3.7062,1567
36101,14.7279,6.2788,13.7439,1531
36106,4.3239,-5.0194,15.9562,1554
36111,-10.076,-1.6903,11.2324,1549
36116,-13.222,4.6483,4.4077,1560
36121,9.6786,8.7149,10.1861,1543
36126,11.8537,-3.4955,13.2244,1562
36131,-9.0848,-1.7957,17.1616,1545
36136,-13.8349,1.0451,6.177,1554
36141,-0.0958,7.009,4.7812,1550
36146,14.7722,2.7306,13.4901,1560
36151,-1.069,-4.0115,17.6177,1593
36156,-10.586,-1.3994,8.6826,1577
36161,-9.8857,5.867,3.7553,1547
36166,13.0628,8.3426,12.882,1563
36171,8.5078,-4.9165,14.352,1541
36176,-10.1789,-1.6544,14.3496,1572
36181,-14.4981,2.9856,5.3606,1530
36186,5.1763,7.8494,7.1467,1567
36191,13.7367,-1.0044,12.9538,1533
36196,-5.9233,-2.6887,18.1181,1568
36201,-12.1518,-0.5076,7.2341,1557
36206,-5.138,6.5565,3.7314,1555
36211,14.8608,5.946,13.7427,1549
36216,3.9002,-4.9392,16.0184,1566
36221,-10.0712,-1.5921,11.0504,1545
36226,-13.1071,4.7764,4.3802,1565
36231,9.9419,8.606,10.3214,1544
36236,11.5544,-3.6248,13.3824,1549
36241,-9.1973,-1.8459,16.9402,1558
36246,-12.22,-0.4046,7.0749,1554
36251,0.146,7.0689,4.8064,1545
36256,14.862,5.855,13.8505,1560
36261,3.8211,-4.9644,16.0005,1547
36266,-10.1442,-1.646,11.0516,1574
36271,-13.1154,4.8219,4.4041,1529
36276,10.0389,8.5892,10.4232,1555
36281,11.5772,-3.7445,13.3561,1531
36286,-9.1578,-1.7035,16.8695,1577
36291,-13.9223,1.2139,6.2177,1531
36296,0.2286,7.0868,4.8746,1567
36301,14.8536,2.2817,13.471,1543
36306,-1.4018,-3.9169,17.5746,1567
36311,-10.5991,-1.3479,8.5305,1556
36316,-9.6738,5.9879,3.6775,1543
36321,13.4039,8.2301,12.8856,1531
36326,8.1894,-4.9787,14.5005,1561
36331,-10.161,-1.5957,14.1761,1554
36336,-14.4346,3.1137,5.3175,1557
36341,5.4648,7.9045,7.355,1529
36346,13.6302,-1.1588,12.9778,1551
36351,-6.1938,-2.6276,18.1289,1549
36356,-12.2284,-0.3986,7.0509,1545
36361,-4.9883,6.5529,3.7972,1533
36366,14.7746,5.7293,13.7523,1571
36371,3.8056,-5.023,16.095,1553
36376,-10.1778,-1.5419,11.048,1575
36381,-13.0891,4.8985,4.4041,1549
36386,10.0521,8.6275,10.5417,1567
36391,11.5927,-3.7804,13.3549,1531
36396,-9.2153,-1.6795,16.9366,1576
36401,-13.9702,1.3168,6.1184,1545
36406,0.2251,7.1263,4.9297,1567
36411,14.9386,2.0997,13.5009,1529
36416,-1.342,-3.9444,17.4178,1563
36421,-10.7703,-1.1253,8.6251,1551
36426,-9.7085,6.1184,3.7362,1567
36431,13.4518,7.8266,13.0149,1533
36436,8.2205,-5.029,14.4646,1559
36441,-10.2364,-1.3695,14.1641,1553
36446,-14.4957,3.2633,5.2445,1571
36451,5.3977,7.7812,7.3885,1531
36456,13.8265,-1.3767,13.1944,1548
36461,-6.1507,-2.5857,17.905,1553
36466,-12.3349,-0.2837,7.1,1567
36471,-4.9309,6.6403,3.7888,1523
36476,15.0511,5.4097,13.9007,1571
36481,3.6631,-4.944,16.0639,1545
36486,-10.2448,-1.4904,11.0133,1567
36491,-13.0556,5.0063,4.3443,1545
36496,10.2639,8.4408,10.4926,1564
36501,11.4239,-3.8391,13.4758,1529
36506,-9.244,-1.6472,16.7079,1577
36511,-14.0935,1.385,6.1327,1545
36516,0.4357,7.0904,4.9069,1565
36521,14.9278,1.9513,13.6326,1543
36526,-1.3862,-3.9576,17.3604,1576
36531,-10.8445,-1.087,8.5808,1559
36536,-9.6857,6.1758,3.6296,1544
36541,13.7056,7.7093,13.0412,1527
36546,8.023,-5.0075,14.5855,1558
36551,-10.1514,-1.3384,14.1653,1547
36556,-14.6178,3.4512,5.2373,1565
36561,5.8107,7.7883,7.3957,1544
36566,13.6996,-1.4784,13.2842,1547
36571,-6.1998,-2.5031,17.7769,1547
36576,-12.3948,-0.0467,7.0725,1556
36581,-4.7836,6.693,3.6559,1543
36586,15.2391,5.2912,14.0432,1565
36591,3.377,-4.8052,16.0328,1547
36596,-10.1897,-1.4641,10.9319,1576
36601,-13.113,5.1499,4.3108,1531
36606,10.5297,8.3785,10.58,1555
36611,11.2755,-3.8259,13.5392,1529
36616,-9.2548,-1.7214,16.6253,1572
