timestamp_ms,ax,ay,az,acs_adc
318906,8.6586,5.0769,12.8892,1515
318911,5.9173,-4.2401,18.5443,1511
318916,-8.0373,-0.4142,8.8813,1531
318921,-8.5868,4.5155,3.7816,1514
318926,6.3243,5.2373,9.9898,1527
318931,10.9714,-2.1237,17.51,1513
318936,-6.7481,-0.8691,12.1506,1518
318941,-12.9802,3.219,4.4855,1531
318946,4.0606,5.3965,7.1443,1513
318951,12.7539,0.9337,16.5535,1572
318956,-6.4153,-2.3942,16.0136,1519
318961,-15.1529,1.561,5.4576,1515
318966,1.2139,5.6204,5.0194,1543
318971,11.8693,3.7433,15.5815,1503
318976,-3.225,-4.2449,18.7203,1527
318981,-13.4087,0.0335,6.5817,1515
318986,-2.5857,5.5689,3.7481,1517
318991,9.6367,5.1092,13.811,1523
318996,3.0179,-4.6651,18.9908,1509
319001,-9.1806,-0.5279,8.0098,1527
319006,-6.8773,4.8878,3.7146,1507
319011,7.3263,5.2864,11.1845,1507
319016,9.1016,-3.1651,17.9589,1523
319021,-6.9516,-0.729,10.5884,1525
319026,-11.1701,3.7577,4.2198,1513
319031,5.1966,5.2014,8.2827,1517
319036,12.2978,-0.2394,16.8959,1501
319041,-6.8163,-1.6987,14.3425,1545
319046,-14.5855,2.1739,5.1236,1509
319051,2.6396,5.5174,5.8323,1529
319056,12.4307,2.575,16.0555,1519
319061,-5.4205,-3.4405,17.5974,1513
319066,-14.4478,0.6045,6.1399,1531
319071,-0.6812,5.8538,4.2976,1512
319076,10.8194,4.4137,14.7495,1519
319081,-0.492,-4.6316,18.9908,1523
319086,-11.0409,-0.3723,7.1778,1527
319091,-4.7453,5.5366,3.7038,1527
319096,8.5138,5.0446,12.6953,1503
319101,5.8849,-4.1456,18.5,1519
319106,-7.9895,-0.5243,8.9543,1548
319111,-8.7089,4.5957,4.0211,1512
319116,6.4835,5.0721,9.9862,1531
319121,10.7416,-2.077,17.3747,1501
319126,-7.0988,-0.8799,12.0321,1519
319131,-12.5085,3.1292,4.6687,1531
319136,4.361,5.2852,7.2305,1529
319141,12.5313,0.8475,16.5152,1517
319146,-6.7469,-2.2685,15.8209,1523
319151,-14.522,1.5167,5.5725,1517
319156,1.6113,5.7102,5.1739,1531
319161,11.9183,3.3339,15.6653,1507
319166,-3.9193,-3.9708,18.4054,1523
319171,-13.447,0.1664,6.3985,1525
319176,-2.1213,5.8574,3.9636,1517
319181,10.0149,4.7453,14.1234,1544
319186,2.0399,-4.707,18.9848,1511
319191,-9.809,-0.3472,7.6926,1544
319196,-6.201,5.2218,3.6583,1511
319201,7.7919,5.102,11.7376,1517
319206,8.1439,-3.6212,18.0643,1528
319211,-7.3298,-0.4836,9.9659,1514
319216,-10.2113,4.0642,4.112,1512
319221,5.7078,5.1727,8.9172,1523
319226,11.9375,-1.1037,17.1952,1513
319231,-6.9264,-1.2605,13.4817,1545
319236,-13.8457,2.5678,4.9368,1519
319241,3.2633,5.4959,6.2381,1511
319246,12.5971,1.8687,16.338,1527
319251,-5.9999,-2.9365,16.9869,1511
319256,-14.5867,0.972,5.9735,1516
319261,0.1951,5.8179,4.5394,1523
319266,11.3593,4.0223,15.275,1511
319271,-1.9656,-4.3981,18.6915,1541
319276,-12.0069,-0.1233,6.9192,1523
319281,-3.7601,5.7365,3.7589,1511
319286,9.262,4.9321,13.3656,1527
319291,4.3706,-4.4927,18.567,1514
319296,-8.5281,-0.3735,8.4264,1541
319301,-7.8219,4.8782,3.8774,1509
319306,7.0342,5.0075,10.7356,1519
319311,9.8234,-2.7653,17.7135,1519
319316,-7.1132,-0.6393,11.1247,1522
319321,-11.7436,3.5889,4.4341,1531
319326,5.0039,5.1248,7.9428,1522
319331,12.5911,0.1209,16.7498,1511
319336,-6.9025,-1.8016,14.9542,1531
319341,-14.8979,2.0004,5.2804,1513
319346,2.3786,5.4528,5.442,1544
319351,12.299,2.9066,15.9322,1515
319356,-4.8878,-3.5961,17.9649,1515
319361,-14.2156,0.3795,6.353,1529
319366,-1.1768,5.7317,4.1492,1513
319371,10.6015,4.6639,14.5627,1529
319376,0.5555,-4.6412,18.98,1528
319381,-10.3214,-0.3484,7.4424,1525
319386,-5.4265,5.3067,3.6488,1523
319391,8.1846,5.2206,12.2188,1523
319396,6.8438,-3.9169,18.3085,1516
319401,-7.5262,-0.5638,9.4248,1529
319406,-9.5636,4.2617,4.0749,1513
319411,6.2333,5.2637,9.5038,1531
319416,11.461,-1.6221,17.1473,1501
319421,-6.8031,-0.9792,12.8365,1519
319426,-13.7415,2.8467,4.798,1529
319431,3.6895,5.3678,6.7098,1523
319436,12.8365,1.5239,16.3572,1531
319441,-6.1842,-2.6719,16.7043,1528
319446,-15.1733,1.0965,5.8143,1525
319451,0.5686,5.6348,4.7118,1527
319456,11.5867,3.9744,15.3456,1513
319461,-2.4337,-4.2521,18.7969,1528
319466,-12.6845,-0.2646,6.8917,1531
319471,-3.3411,5.4564,3.7625,1517
319476,9.493,5.2253,13.4997,1529
319481,4.1958,-4.5107,18.7789,1511
319486,-8.351,-0.5758,8.3809,1545
319491,-7.9487,4.7752,3.6799,1506
319496,7.1898,5.3223,10.799,1515
319501,9.8485,-2.6659,17.6297,1515
319506,-6.8055,-0.7841,11.1642,1533
319511,-12.2068,3.5434,4.3862,1533
319516,5.0087,5.3451,7.944,1525
319521,12.5408,0.2011,16.599,1499
319526,-6.8486,-1.9249,14.9877,1527
319531,-15.1517,1.8519,5.381,1519
319536,2.2087,5.4959,5.5079,1541
319541,12.2811,3.0837,15.8233,1508
319546,-4.7369,-3.6871,18.069,1517
319551,-13.7212,0.1185,6.5003,1526
319556,-1.4593,5.6431,4.1096,1523
319561,10.4208,4.8171,14.443,1546
319566,0.7853,-4.5346,18.7286,1512
319571,-10.1837,-0.6297,7.5705,1523
319576,-5.7006,5.2361,3.8104,1513
319581,8.2863,5.3486,12.2068,1517
319586,7.3095,-3.6775,17.8332,1533
319591,-7.1862,-0.7278,9.6869,1527
319596,-10.1933,4.1049,4.2162,1507
319601,6.0801,5.3032,9.347,1527
319606,11.3796,-1.1899,16.7415,1499
319611,-6.9994,-1.2977,13.0867,1525
319616,-13.7367,2.5402,5.0949,1515
319621,3.9049,5.5138,6.7912,1525
319626,12.7,1.6472,15.9167,1519
319631,-6.4799,-2.7174,16.781,1515
319636,-14.8357,0.893,5.9867,1525
319641,0.565,5.7449,4.7262,1525
319646,11.4108,4.0115,15.1302,1523
319651,-2.4576,-4.1839,18.7071,1547
319656,-12.0081,-0.3328,6.9252,1525
319661,-3.4046,5.6264,3.9097,1510
319666,9.5433,5.1427,13.526,1525
319671,3.9887,-4.379,18.4354,1517
319676,-8.4288,-0.6572,8.3354,1530
319681,-7.7943,4.7525,3.8235,1503
319686,7.3059,5.3941,10.9427,1517
319691,9.7528,-2.709,17.3029,1519
319696,-6.8342,-0.8404,11.1821,1527
319701,-12.2619,3.45,4.5298,1527
319706,5.1643,5.369,8.0948,1525
319711,12.39,0.1592,16.2471,1516
319716,-7.0306,-1.8387,14.9793,1531
319721,-14.8979,1.816,5.4636,1515
319726,2.4936,5.5378,5.703,1545
319731,12.4702,3.067,15.6258,1517
319736,-5.0745,-3.5482,18.1205,1529
319741,-13.8852,0.2083,6.4177,1524
319746,-1.1001,5.5438,4.0845,1527
319751,10.5872,4.938,14.5687,1526
319756,0.3639,-4.4903,18.8903,1531
319761,-10.4591,-0.6512,7.5082,1531
319766,-5.2074,5.1811,3.7804,1519
319771,8.5198,5.4899,12.4822,1516
319776,6.9839,-3.8642,18.0822,1559
319781,-7.4915,-0.6764,9.4834,1541
319786,-9.894,4.2641,3.9923,1516
319791,6.2237,5.3474,9.5313,1532
319796,11.4347,-1.5083,16.9701,1481
319801,-6.9683,-1.1863,12.8916,1519
319806,-13.8014,2.8048,4.8854,1529
319811,3.9456,5.3582,6.8007,1518
319816,12.6905,1.4988,16.1896,1528
319821,-6.505,-2.5678,16.5116,1523
319826,-14.9302,1.0953,5.9005,1523
319831,0.9122,5.5665,4.8255,1525
319836,11.7376,3.972,15.2894,1512
319841,-2.8467,-4.1216,18.6472,1533
319846,-12.299,-0.2155,6.8678,1528
319851,-3.1161,5.5378,3.8176,1511
319856,9.584,5.1404,13.6745,1519
319861,3.3842,-4.4592,18.5263,1519
319866,-8.9256,-0.6752,8.2157,1553
319871,-7.3658,4.8662,3.8822,1514
319876,7.5142,5.3343,11.2312,1519
319881,9.3518,-3.0358,17.4872,1513
319886,-7.112,-0.6764,10.8254,1519
319891,-12.0033,3.7014,4.361,1525
319896,5.2541,5.3103,8.2803,1517
319901,12.3888,-0.2801,16.5906,1503
319906,-7.1383,-1.5969,14.5974,1545
319911,-14.7531,2.0698,5.3642,1515
319916,2.733,5.4827,5.9424,1527
319921,12.5791,2.5833,15.7131,1519
319926,-5.5103,-3.2453,17.753,1523
319931,-14.2503,0.4417,6.2991,1526
319936,-0.7877,5.6,4.3215,1512
319941,11.0038,4.6902,14.7052,1519
319946,-0.1808,-4.4867,18.925,1527
319951,-10.5117,-0.5471,7.3442,1531
319956,-5.1056,5.2541,3.6847,1513
319961,8.7592,5.5019,12.7048,1515
319966,6.4033,-4.1013,18.1624,1544
319971,-7.6602,-0.7195,9.1459,1529
319976,-9.651,4.3706,3.9097,1503
319981,6.5829,5.5019,9.9874,1531
319986,11.3832,-1.9728,16.9905,1509
319991,-6.9815,-0.9337,12.4558,1523
319996,-14.0492,3.0754,4.6328,1527
320001,4.1707,5.375,7.0976,1530
320006,12.9275,1.1073,16.2064,1525
320011,-6.7002,-2.3343,16.2291,1523
320016,-15.099,1.2641,5.8275,1531
320021,1.1887,5.5366,5.0673,1527
320026,12.1422,3.808,15.4618,1523
320031,-3.4644,-3.9851,18.5371,1548
320036,-12.6007,-0.2442,6.7445,1527
320041,-2.6911,5.4851,3.8726,1516
320046,10.0449,5.302,13.945,1525
320051,2.7019,-4.5262,18.7155,1515
320056,-8.8346,-0.7422,8.0864,1543
320061,-7.1982,4.8902,3.7457,1509
320066,7.8243,5.5138,11.5412,1517
320071,8.7556,-3.2729,17.5579,1531
320076,-7.1275,-0.8499,10.4986,1523
320081,-11.5484,3.7733,4.3886,1525
320086,5.612,5.4181,8.6586,1528
320091,12.3313,-0.5064,16.5643,1507
320096,-7.0246,-1.488,14.1461,1543
320101,-14.9159,2.1919,5.2553,1516
320106,3.0047,5.466,6.0861,1520
320111,12.7802,2.5031,15.8101,1523
320116,-5.788,-3.0466,17.5782,1518
320121,-14.5532,0.4322,6.2848,1510
320126,-0.4752,5.4312,4.4987,1517
320131,11.3952,4.7501,14.7662,1519
320136,-0.9804,-4.3251,18.9956,1523
320141,-10.9738,-0.7159,7.2389,1528
320146,-4.7429,5.053,3.6799,1542
320151,9.104,5.7197,12.9,1515
320156,5.8167,-4.1863,18.3504,1527
320161,-7.6591,-0.8224,8.9663,1532
320166,-9.5888,4.4652,3.8618,1503
320171,6.8893,5.6767,10.3358,1543
320176,10.9547,-2.296,17.018,1511
320181,-7.0461,-0.9313,11.983,1525
320186,-13.5667,3.2597,4.5801,1531
320191,4.5466,5.4755,7.5298,1517
320196,13.0556,0.753,16.0914,1517
320201,-6.9516,-2.1368,15.9741,1501
320206,-15.2128,1.4174,5.5605,1498
320211,1.5682,5.4516,5.1918,1544
320216,12.3349,3.5458,15.4163,1519
320221,-4.0689,-3.7936,18.5407,1525
320226,-13.0568,-0.1676,6.6427,1527
320231,-2.2625,5.369,3.9756,1509
320236,10.4351,5.2469,14.1246,1541
320241,2.0375,-4.537,18.8232,1531
320246,-9.1842,-0.7578,7.8997,1549
320251,-6.8558,4.8794,3.6847,1515
320256,7.9727,5.6611,11.7148,1516
320261,8.3893,-3.486,17.7805,1529
320266,-6.9815,-0.7865,10.167,1519
320271,-11.5053,3.9121,4.1863,1515
320276,5.7616,5.5138,8.8346,1517
320281,12.1051,-0.929,16.6828,1506
320286,-6.9276,-1.3479,13.7726,1547
320291,-14.8093,2.3391,5.0913,1512
320296,3.1388,5.5174,6.2297,1518
320301,12.8593,2.1464,15.9454,1523
320306,-5.8538,-2.8898,17.358,1525
320311,-14.4813,0.6225,6.1878,1541
320316,-0.2801,5.5677,4.3826,1523
320321,11.3976,4.4484,15.0224,1526
320326,-1.3276,-4.3048,18.8196,1523
320331,-11.218,-0.5531,7.1958,1532
320336,-4.4784,5.3319,3.7649,1519
320341,9.2045,5.3379,13.1142,1519
320346,5.3139,-4.3024,18.4366,1491
320351,-7.6746,-0.6584,8.825,1526
320356,-9.171,4.5801,3.8702,1509
320361,6.8438,5.3067,10.2747,1525
320366,10.4543,-2.4277,17.3604,1507
320371,-6.7648,-0.8823,11.734,1522
320376,-13.0975,3.3351,4.6531,1529
320381,4.6136,5.4205,7.4687,1525
320386,12.6941,0.4369,16.5368,1519
320391,-6.6523,-2.0171,15.4917,1523
320396,-15.0751,1.6245,5.6144,1525
320401,1.5933,5.6994,5.0961,1531
320406,12.0883,3.1053,15.7395,1513
320411,-3.9588,-3.7158,18.1708,1529
320416,-13.1035,0.152,6.62,1531
320421,-2.2972,5.9005,3.9241,1509
320426,10.1718,4.5813,14.2587,1531
320431,1.6903,-4.4915,18.7047,1518
320436,-9.7025,-0.4645,7.7548,1517
320441,-6.4248,5.3965,3.7589,1509
320446,8.0577,4.9392,11.8525,1523
320451,7.944,-3.5542,17.9757,1530
320456,-7.0964,-0.4717,10.0676,1525
320461,-10.647,4.1061,4.2102,1507
320466,5.7545,5.0182,8.8202,1531
320471,11.6334,-1.0726,17.0252,1512
320476,-6.9444,-1.2318,13.4482,1532
320481,-13.7499,2.4972,5.0961,1511
320486,3.3938,5.4863,6.3099,1525
320491,12.706,1.6795,16.277,1518
320496,-5.9843,-2.7737,16.8935,1527
320501,-14.6142,0.9445,6.0645,1513
320506,-0.0874,5.8251,4.3515,1513
320511,11.236,3.8834,15.366,1523
320516,-1.5909,-4.2162,18.5742,1525
320521,-11.5879,-0.2059,7.1048,1579
320526,-4.148,5.6707,3.8068,1527
320531,9.2273,4.9249,13.3848,1511
320536,4.8926,-4.4185,18.3037,1511
320541,-8.0984,-0.4262,8.6311,1543
320546,-8.6562,4.8339,3.8427,1503
320551,6.9145,5.1212,10.4722,1557
320556,10.2819,-2.7234,17.577,1508
320561,-6.8929,-0.644,11.5221,1526
320566,-12.8221,3.5566,4.5957,1530
320571,4.6699,5.3427,7.5681,1523
320576,12.6402,0.0455,16.7008,1511
320581,-6.8019,-1.7897,15.093,1519
320586,-14.9243,1.8854,5.5545,1514
320591,1.6628,5.6731,5.3187,1527
320596,12.4115,2.8287,15.9789,1515
320601,-4.1659,-3.5937,17.905,1530
320606,-13.1154,0.3376,6.5194,1530
320611,-2.247,5.7521,3.9732,1553
320616,10.3034,4.4963,14.4729,1525
320621,1.7262,-4.6064,18.6436,1515
320626,-9.6139,-0.4286,7.7093,1531
320631,-6.5697,5.2888,3.7062,1528
320636,8.1475,5.0398,11.995,1518
320641,8.2037,-3.814,17.9577,1527
320646,-7.2018,-0.4262,9.9563,1517
320651,-11.1259,4.2748,4.1372,1545
320656,5.8167,5.1954,8.9411,1527
320661,12.0428,-1.2689,17.0982,1507
320666,-6.9121,-1.087,13.441,1531
320671,-14.3856,2.7198,5.0398,1525
320676,3.2142,5.5115,6.341,1524
320681,12.894,1.634,16.3153,1527
320686,-5.8802,-2.7102,16.8911,1520
320691,-14.698,0.9469,5.9867,1515
320696,-0.2011,5.7437,4.5981,1509
320701,11.5365,3.9157,15.2822,1517
320706,-1.3443,-4.3347,18.6664,1525
320711,-11.1294,-0.2837,7.1395,1524
320716,-4.4999,5.4923,3.7206,1517
320721,9.1806,4.9919,13.2627,1509
320726,5.1751,-4.4341,18.3504,1515
320731,-8.0074,-0.4848,8.7532,1529
320736,-9.0022,4.7932,3.8547,1511
320741,6.9097,5.2086,10.5225,1527
320746,10.6039,-2.721,17.3663,1515
320751,-6.9336,-0.6524,11.6777,1519
320756,-13.3896,3.5338,4.5705,1523
320761,4.4796,5.43,7.4412,1513
320766,12.8066,0.1688,16.6373,1523
320771,-6.6774,-1.8771,15.3887,1513
320776,-14.9961,1.7454,5.6204,1523
320781,1.4305,5.715,5.2002,1527
320786,12.2775,2.9425,15.8688,1511
320791,-3.8152,-3.6823,17.9421,1524
320796,-12.7515,0.1867,6.6295,1529
320801,-2.5271,5.7449,3.9804,1513
320806,10.2041,4.5741,14.2611,1523
320811,2.1859,-4.5957,18.5108,1525
320816,-9.1626,-0.4214,7.9332,1527
320821,-6.9683,5.2565,3.7912,1511
320826,7.8685,5.0709,11.7783,1518
320831,8.4791,-3.6524,17.7422,1531
320836,-7.1611,-0.4633,10.1754,1529
320841,-11.4191,4.1958,4.2461,1527
320846,5.5522,5.1427,8.7843,1517
320851,12.2882,-1.1229,16.9869,1497
320856,-7.0306,-1.1408,13.7451,1530
320861,-14.5879,2.6468,5.1535,1526
320866,2.8383,5.4516,6.1363,1523
320871,12.651,1.6831,16.3656,1516
320876,-5.5474,-2.9161,16.8636,1510
320881,-14.0791,0.9828,6.1375,1533
320886,-0.729,5.9268,4.4939,1519
320891,11.0983,3.6559,15.2726,1525
320896,-0.5207,-4.4568,18.318,1527
320901,-10.6315,0.0299,7.1874,1525
320906,-5.0853,5.8191,3.7733,1521
320911,8.6862,4.4951,13.0819,1515
320916,6.0801,-4.3539,18.0379,1523
320921,-7.8398,-0.2215,8.9938,1529
320926,-9.3482,4.871,4.0689,1517
320931,6.5003,4.8183,10.1646,1529
320936,11.1103,-2.3331,17.1724,1501
320941,-7.0892,-0.6345,12.1649,1523
320946,-13.1346,3.2777,4.8088,1518
320951,4.0606,5.2086,7.1814,1519
320956,12.7419,0.7254,16.5224,1529
320961,-6.4715,-2.1392,15.9382,1511
320966,-14.6765,1.409,5.8395,1515
320971,0.9337,5.7856,4.968,1529
320976,11.8094,3.2669,15.5659,1519
320981,-2.788,-3.9301,18.1792,1543
320986,-12.3864,-0.0072,6.7947,1523
320991,-3.2094,5.7545,3.948,1523
320996,9.5708,4.6747,13.9534,1523
321001,3.7613,-4.5047,18.3887,1513
321006,-8.5844,-0.3903,8.2899,1545
321011,-7.7512,4.9572,3.8415,1511
321016,7.252,5.102,11.0277,1518
321021,9.7803,-3.0801,17.4849,1520
321026,-6.8714,-0.5495,11.0014,1517
321031,-12.3768,3.7529,4.44,1545
321036,4.877,5.3211,8.0146,1525
321041,12.7144,-0.2406,16.7139,1511
321046,-6.8271,-1.5706,14.7267,1543
321051,-15.0727,2.0961,5.3834,1515
321056,1.9309,5.5462,5.5246,1551
321061,12.5193,2.6456,16.0507,1517
321066,-4.4939,-3.3914,17.7518,1517
321071,-13.4267,0.3603,6.45,1525
321076,-1.9106,5.6204,4.0869,1509
321081,10.6171,4.4772,14.5448,1567
321086,1.2258,-4.6052,18.5862,1515
321091,-9.7552,-0.4381,7.6339,1519
321096,-6.3746,5.2445,3.7924,1509
321101,8.2133,5.1224,12.1637,1509
321106,7.9212,-3.887,18.0224,1526
321111,-7.1694,-0.4214,9.8402,1523
321116,-11.0959,4.3371,4.1216,1512
321121,5.7449,5.187,8.9711,1528
321126,12.0728,-1.3312,17.0623,1515
321131,-6.8761,-1.0594,13.3249,1533
321136,-14.5651,2.7785,5.0925,1515
321141,3.0706,5.4408,6.3889,1515
321146,13.0508,1.6975,16.2099,1523
321151,-5.7317,-2.6839,16.8588,1513
321156,-14.5388,0.8643,6.1208,1543
321161,-0.3867,5.5677,4.5945,1515
321166,11.4802,4.1049,15.0033,1511
321171,-0.9445,-4.2533,18.6604,1523
321176,-11.1965,-0.4238,7.2951,1525
321181,-4.6663,5.2038,3.8271,1523
321186,9.1004,5.2421,12.8437,1509
321191,5.9041,-4.2808,18.3599,1518
321196,-7.9715,-0.6357,8.9663,1543
321201,-9.4535,4.4999,3.9145,1516
321206,6.6128,5.4444,10.0305,1543
321211,11.3306,-2.2637,17.2502,1503
321216,-6.8462,-0.7446,12.0895,1523
321221,-14.1138,3.3459,4.5777,1525
321226,4.0294,5.381,7.1455,1527
321231,13.4243,0.8978,16.3249,1519
321236,-6.4727,-2.0482,16.1226,1525
321241,-15.2475,1.3683,5.7377,1515
321246,0.8571,5.296,5.0829,1531
321251,12.4965,3.7828,15.3385,1515
321256,-3.1723,-3.8164,18.5347,1531
321261,-12.815,-0.3723,6.8606,1524
321266,-3.1951,5.0961,3.9744,1513
321271,10.2472,5.3738,13.6625,1527
321276,3.4895,-4.5514,18.67,1513
321281,-8.7508,-0.735,8.3139,1545
321286,-8.1463,4.7657,3.7373,1483
321291,7.6375,5.6084,11.0612,1496
321296,9.7396,-3.1328,17.5028,1501
321301,-7.0138,-0.6452,10.8613,1511
321306,-12.6474,3.8295,4.2976,1511
321311,5.0518,5.4648,8.1989,1515
321316,13.0903,-0.2562,16.5499,1502
321321,-6.8953,-1.4293,14.777,1511
321326,-15.3157,2.1452,5.2864,1507
321331,2.0638,5.2732,5.7305,1525
321336,13.1693,2.7964,15.7718,1499
321341,-4.8554,-3.2202,17.8859,1507
321346,-13.8804,0.2478,6.4416,1517
321351,-1.7514,5.2589,4.2521,1507
321356,11.1594,4.7836,14.4598,1528
321361,0.8942,-4.5406,18.7442,1503
321366,-10.088,-0.5962,7.6519,1508
321371,-6.3865,5.0913,3.7601,1509
321376,8.4934,5.3834,12.1338,1501
321381,7.8063,-4.0378,17.9817,1519
321386,-7.416,-0.5124,9.7109,1507
321391,-11.3808,4.3503,4.1611,1507
321396,5.8383,5.3211,9.2931,1522
321401,12.3373,-1.5766,16.8959,1493
321406,-7.0856,-0.893,13.198,1451
321411,-14.7662,2.8802,5.017,1447
321416,3.1843,5.3678,6.5613,1453
321421,13.2555,1.5251,16.1022,1445
321426,-5.9927,-2.5031,16.8193,1467
321431,-14.2228,0.8727,6.1375,1497
321436,-0.3041,5.4767,4.6603,1495
321441,11.6155,3.9456,15.0667,1499
321446,-1.2953,-4.1551,18.3372,1511
321451,-10.9654,-0.395,7.2449,1507
321456,-4.707,5.369,3.9971,1514
321461,9.1937,5.0015,13.1298,1503
321466,5.5031,-4.2437,17.9529,1505
321471,-7.7452,-0.5231,9.0082,1519
321476,-9.6774,4.6962,4.1635,1496
321481,6.7888,5.1475,10.3154,1523
321486,10.7571,-2.3499,16.9031,1482
321491,-7.0342,-0.6943,12.0668,1511
321496,-13.6086,3.3674,4.9752,1499
321501,4.4831,5.284,7.4915,1507
321506,12.9443,0.5375,16.0854,1501
321511,-6.6236,-1.913,15.7922,1503
321516,-14.9518,1.4724,5.8969,1497
321521,1.1696,5.5677,5.1858,1511
321526,12.0787,3.2681,15.4139,1499
321531,-3.1795,-3.6763,18.0176,1523
321536,-12.2439,-0.0024,6.9647,1499
321541,-3.037,5.612,4.0582,1493
321546,9.9335,4.6687,13.8552,1513
321551,3.2058,-4.3742,18.1923,1493
321556,-8.7795,-0.4992,8.3258,1515
321561,-7.7177,5.0697,4.0306,1501
321566,7.5417,5.0314,11.218,1496
321571,9.402,-3.1795,17.2742,1501
321576,-7.0988,-0.5303,11.0301,1499
321581,-12.3038,3.8654,4.6471,1517
321586,5.1691,5.1451,8.26,1513
321591,12.4379,-0.5255,16.4087,1500
321596,-7.0844,-1.3683,14.4646,1514
321601,-14.6729,2.2386,5.5881,1493
321606,2.393,5.4588,5.9125,1523
321611,12.8006,2.3535,15.7215,1499
321616,-4.9979,-3.1005,17.4609,1503
321621,-13.6039,0.4441,6.5553,1507
321626,-1.3527,5.5174,4.3048,1487
321631,10.8553,4.385,14.4574,1515
321636,0.4764,-4.3096,18.4018,1506
321641,-10.1155,-0.5447,7.859,1512
321646,-5.8131,5.1978,3.9923,1506
321651,8.5174,5.114,12.3242,1497
321656,7.1323,-3.8738,17.6548,1512
321661,-7.5346,-0.5471,9.7612,1501
321666,-10.6279,4.3479,4.2916,1497
321671,6.1196,5.2026,9.396,1510
321676,11.6634,-1.5909,16.7666,1493
321681,-7.0832,-0.9553,13.0939,1515
321686,-14.2479,2.8623,5.2517,1502
321691,3.6332,5.3558,6.7361,1507
321696,12.8377,1.2869,15.9071,1507
321701,-6.2489,-2.32,16.3991,1509
321706,-14.4502,1.002,6.2429,1499
321711,0.2514,5.5905,5.0218,1507
321716,11.6849,3.7517,14.9697,1506
321721,-2.0554,-3.8942,18.1097,1510
321726,-11.321,-0.3807,7.2425,1509
321731,-4.0031,5.4504,4.1001,1501
321736,9.4547,4.9704,13.1777,1500
321741,4.2928,-4.1623,17.8955,1501
321746,-8.2313,-0.6249,8.825,1520
321751,-8.5234,4.7477,4.2964,1499
321756,7.1838,5.2182,10.7464,1510
321761,10.1083,-2.6564,16.7917,1497
321766,-7.1587,-0.6596,11.6418,1500
321771,-12.9335,3.4141,4.8866,1513
321776,4.8171,5.2433,7.914,1510
321781,12.7419,0.1856,15.9789,1507
321786,-7.112,-1.6604,15.3109,1532
321791,-14.8776,1.6544,5.7772,1507
321796,1.8567,5.5019,5.6431,1523
321801,12.4702,2.9844,15.3672,1502
321806,-4.4017,-3.3603,17.8488,1528
321811,-12.9514,0.0012,6.7481,1499
321816,-2.1536,5.4516,4.3096,1501
321821,10.5225,4.8554,14.133,1513
321826,1.9393,-4.3359,18.2223,1483
321831,-9.086,-0.6512,8.0792,1517
321836,-7.039,5.0242,3.9887,1492
321841,8.0721,5.3199,11.8166,1507
321846,8.3953,-3.4046,17.2059,1487
321851,-7.2341,-0.6081,10.4375,1499
321856,-11.8046,4.0163,4.5645,1509
321861,5.7138,5.2361,8.9495,1511
321866,12.2882,-0.984,16.3237,1491
321871,-7.1934,-1.1456,13.9929,1523
321876,-14.8273,2.4493,5.4384,1501
321881,2.958,5.3786,6.1758,1528
321886,12.7503,1.9441,15.8077,1497
321891,-5.4133,-2.7414,17.0922,1508
321896,-13.9127,0.6644,6.5122,1511
321901,-0.8368,5.5821,4.5693,1513
321906,11.1929,4.1228,14.7962,1524
321911,0.0515,-4.2593,18.0834,1509
321916,-10.3848,-0.4094,7.592,1513
321921,-5.5474,5.3451,4.0007,1511
321926,8.6682,4.944,12.6306,1497
321931,6.9516,-3.9612,17.6105,1509
321936,-7.6076,-0.4357,9.7312,1513
321941,-10.6279,4.5526,4.2964,1499
321946,6.2968,5.0099,9.6534,1519
321951,11.6538,-1.7777,16.7139,1491
321956,-7.2077,-0.7709,12.9371,1532
321961,-14.3293,3.1065,5.1188,1501
321966,3.7493,5.2613,6.8702,1517
321971,13.0831,1.1791,16.0842,1507
321976,-6.2118,-2.2266,16.3859,1495
321981,-14.6118,1.1432,6.0813,1513
321986,0.231,5.4815,4.8339,1514
321991,11.7926,3.5291,15.3013,1499
321996,-1.81,-3.9528,18.1217,1480
322001,-11.7064,-0.1987,7.1515,1511
322006,-4.1468,5.4504,3.9289,1511
322011,9.5888,4.8111,13.4243,1497
322016,5.1439,-4.3946,18.0271,1507
322021,-8.3019,-0.4142,8.7053,1528
322026,-9.2488,4.9225,3.8966,1532
322031,6.9599,5.0937,10.5465,1523
322036,11.0361,-2.7785,17.2311,1493
322041,-7.1084,-0.4633,11.8381,1506
322046,-13.9271,3.6955,4.5693,1506
322051,4.397,5.0925,7.5369,1511
322056,13.3405,0.1808,16.4374,1507
322061,-6.6583,-1.634,15.5611,1499
322066,-15.3037,1.8112,5.636,1515
322071,1.3324,5.3427,5.2816,1507
322076,12.7132,3.0466,15.688,1501
322081,-3.231,-3.5733,18.1624,1517
322086,-13.0352,0.0491,6.7588,1513
322091,-2.8671,5.3427,3.9971,1453
322096,10.4088,4.8387,13.9438,1509
322101,3.4584,-4.4556,18.4497,1496
322106,-9.2117,-0.5483,8.3486,1531
322111,-7.8673,4.8626,3.7912,1499
322116,7.6998,5.2241,11.1797,1497
322121,9.9443,-3.2884,17.5866,1507
322126,-7.1862,-0.4908,10.9092,1507
322131,-12.7826,3.9684,4.1707,1517
322136,4.9811,5.1511,8.0493,1499
322141,13.3656,-0.3663,16.8707,1501
322146,-6.7385,-1.2617,14.7974,1512
322151,-15.6258,2.3355,5.1846,1509
322156,1.9692,5.1559,5.4636,1541
322161,13.4399,2.7677,16.0256,1502
322166,-4.5669,-3.1484,17.8584,1517
322171,-14.3425,0.2885,6.4608,1515
322176,-1.8854,5.1894,4.0235,1511
322181,11.4012,4.8662,14.5208,1533
322186,1.2031,-4.5334,18.8268,1485
322191,-10.3046,-0.644,7.7704,1513
322196,-6.8283,5.0769,3.6045,1499
322201,8.588,5.2972,12.044,1497
322206,7.9954,-4.0139,18.0427,1519
322211,-7.5729,-0.4633,9.906,1514
322216,-11.9399,4.5059,4.0318,1499
322221,6.0717,5.2002,9.1806,1519
322226,12.1709,-1.719,17.1233,1491
322231,-7.191,-0.8368,13.1645,1525
322236,-14.7806,2.9892,5.0003,1501
322241,3.4488,5.2696,6.5996,1511
322246,13.1142,1.251,16.3069,1509
322251,-6.0501,-2.3547,16.4422,1496
322256,-14.2144,1.002,6.177,1513
322261,0.0503,5.5941,4.7585,1515
322266,11.7232,3.5171,15.2391,1513
322271,-1.7657,-3.948,18.0176,1512
322276,-11.2623,-0.2717,7.1958,1517
322281,-4.2246,5.6479,4.0151,1491
322286,9.5756,4.7178,13.4135,1509
322291,4.6819,-4.2294,17.9362,1502
322296,-8.0433,-0.4633,8.8274,1518
322301,-8.9579,4.9177,4.0618,1508
322306,7.1922,5.0135,10.7871,1514
322311,10.167,-2.6013,16.9545,1493
322316,-7.1754,-0.6141,11.57,1503
322321,-13.0735,3.541,4.7465,1511
322326,4.9716,5.2014,7.8937,1513
322331,12.9466,0.1197,16.2195,1499
322336,-6.9947,-1.567,15.2822,1499
322341,-15.2068,1.7837,5.6922,1496
322346,1.9489,5.4636,5.454,1525
322351,12.536,2.9449,15.6617,1507
322356,-4.1623,-3.2609,17.9266,1499
322361,-13.2794,0.0994,6.6942,1511
322366,-2.0518,5.5282,4.1252,1509
322371,10.7021,4.798,14.3856,1527
322376,2.0925,-4.3981,18.3025,1484
322381,-9.5421,-0.6177,7.9703,1525
322386,-7.0617,5.0925,3.7086,1499
322391,8.2337,5.2936,11.9147,1509
322396,8.8382,-3.6655,17.5687,1509
322401,-7.2317,-0.4537,10.343,1515
322406,-12.4618,4.2521,4.1515,1515
322411,5.715,5.2696,8.7915,1510
322416,12.7707,-1.1696,16.7642,1492
322421,-7.094,-1.0211,13.9007,1526
322426,-15.19,2.7066,5.0649,1509
322431,2.8311,5.2828,6.2393,1524
322436,13.3477,1.9656,16.2147,1502
322441,-5.4408,-2.7749,17.1712,1501
322446,-14.3604,0.6919,6.2417,1509
322451,-0.9661,5.4468,4.3694,1509
322456,11.6131,4.1779,15.0284,1527
322461,-0.0215,-4.4377,18.3551,1509
322466,-10.4914,-0.4058,7.4843,1513
322471,-5.8897,5.4097,3.7589,1513
322476,9.0405,4.956,12.8162,1507
322481,6.7816,-4.2689,17.8572,1510
322486,-7.7572,-0.4513,9.4463,1515
322491,-10.7883,4.6711,4.0438,1499
322496,6.614,5.0182,9.7743,1527
322501,11.6681,-2.1045,16.9809,1496
322506,-7.0533,-0.6823,12.6797,1523
322511,-14.6513,3.225,4.8985,1483
322516,3.9002,5.2804,6.8534,1515
322521,13.2711,0.9601,16.3141,1502
322526,-6.2177,-2.0542,16.2303,1507
322531,-14.9614,1.2605,6.0298,1499
322536,0.4968,5.5282,4.8076,1497
322541,12.2559,3.6081,15.3827,1514
322546,-2.1021,-3.7625,18.3132,1517
322551,-11.9806,-0.2897,7.1635,1513
322556,-3.9696,5.381,3.8427,1506
322561,9.8438,4.9093,13.5009,1507
322566,4.7309,-4.2976,18.2881,1501
322571,-8.442,-0.6536,8.7556,1513
322576,-9.0309,4.8052,3.8547,1495
322581,7.2508,5.2732,10.6123,1526
322586,10.7703,-2.788,17.328,1502
322591,-6.9731,-0.6249,11.5951,1508
322596,-13.9438,3.7242,4.4005,1507
322601,4.5969,5.3008,7.5334,1523
322606,13.5488,0.1508,16.5954,1518
322611,-6.602,-1.5742,15.4749,1507
322616,-15.682,1.8699,5.5761,1507
322621,1.3791,5.2876,5.2409,1517
322626,13.0843,3.1184,15.6868,1508
322631,-3.5949,-3.4093,18.105,1515
322636,-13.4806,-0.091,6.8354,1511
322641,-2.745,5.2421,3.978,1512
322646,10.8625,5.0027,14.0348,1517
322651,2.7402,-4.4281,18.5551,1495
322656,-9.4763,-0.6931,8.2995,1525
322661,-7.7824,4.9859,3.6823,1497
322666,8.2061,5.369,11.3713,1516
322671,9.1782,-3.4907,17.6357,1515
322676,-7.3047,-0.5698,10.6602,1511
322681,-12.5648,4.1551,4.2461,1525
322686,5.5438,5.2457,8.4551,1503
322691,12.9239,-0.9325,16.836,1499
322696,-7.0042,-1.1037,14.1521,1517
322701,-15.3983,2.551,5.1607,1507
322706,2.5893,5.2194,5.9376,1541
322711,13.4458,2.1428,16.0866,1497
322716,-5.357,-2.7904,17.3017,1501
322721,-14.194,0.5279,6.3746,1515
322726,-1.1061,5.369,4.3491,1501
322731,11.7531,4.3132,14.9314,1513
322736,-0.1568,-4.2629,18.5096,1499
322741,-10.7679,-0.5722,7.4939,1513
322746,-5.691,5.2792,3.7637,1501
322751,9.1399,5.1439,12.7467,1499
322756,6.8139,-4.2006,17.929,1511
322761,-7.7584,-0.4345,9.323,1509
322766,-11.0002,4.6866,3.9911,1503
322771,6.4464,5.2792,9.8318,1511
322776,11.8549,-2.2434,17.0491,1495
322781,-7.1587,-0.6333,12.542,1517
322786,-14.7243,3.3327,4.798,1499
322791,3.7864,5.4396,6.9875,1513
322796,13.4626,0.7578,16.3763,1503
322801,-6.3231,-2.0674,16.1776,1509
322806,-14.8524,1.318,5.7904,1517
322811,0.2897,5.6084,4.9105,1507
322816,12.2691,3.3232,15.5456,1499
322821,-2.0794,-3.954,18.2414,1511
322826,-11.8345,-0.1903,6.9611,1511
322831,-4.2497,5.521,3.9145,1501
322836,9.8246,4.8219,13.7655,1509
322841,4.9081,-4.6364,18.1971,1509
322846,-8.4192,-0.3867,8.497,1513
322851,-9.5984,5.0901,3.808,1509
322856,7.2748,5.1894,10.9056,1508
322861,10.9942,-3.2441,17.261,1491
322866,-7.2748,-0.2729,11.4874,1510
322871,-14.0767,3.9468,4.4269,1511
322876,4.6615,5.2301,7.8925,1509
322881,13.4159,-0.2981,16.5846,1511
322886,-6.9192,-1.4617,15.1421,1502
322891,-15.1302,1.9525,5.4911,1511
322896,1.4952,5.4923,5.4648,1520
322901,12.8066,2.6456,16.0005,1503
322906,-3.571,-3.5087,17.8212,1524
322911,-12.8664,0.0958,6.6523,1507
322916,-2.9329,5.6084,4.039,1501
322921,10.6051,4.5155,14.4478,1520
322926,3.122,-4.5741,18.1121,1501
322931,-8.9435,-0.407,8.0876,1525
322936,-8.1223,5.2373,3.7385,1500
322941,7.9284,5.0685,11.7364,1513
322946,9.5864,-3.5698,17.4358,1501
322951,-7.1623,-0.3831,10.5872,1513
322956,-12.7611,4.1803,4.2138,1517
322961,5.3642,5.205,8.5078,1507
322966,13.2375,-0.7278,16.6888,1507
322971,-6.9791,-1.1803,14.467,1523
322976,-15.6234,2.3942,5.1056,1507
322981,2.2362,5.3367,5.9053,1525
322986,13.5069,2.5295,16.1477,1507
322991,-4.8866,-3.1292,17.7877,1506
322996,-14.5388,0.2526,6.2165,1525
323001,-1.6939,5.3379,4.1851,1497
323006,11.6203,4.8818,14.8057,1525
323011,1.1827,-4.713,18.9166,1510
323016,-10.7344,-0.6979,7.4891,1514
323021,-6.8043,5.1571,3.5674,1498
323026,8.7628,5.6252,12.3684,1505
323031,8.4551,-4.2222,17.8943,1513
323036,-7.6914,-0.4262,9.7683,1512
323041,-12.1661,4.5226,3.814,1511
323046,5.9388,5.387,9.3027,1516
323051,12.7012,-1.5754,16.9653,1493
323056,-7.2125,-0.9421,13.4279,1527
323061,-14.8512,2.9113,4.7681,1507
323066,3.3423,5.3678,6.5853,1511
323071,13.1813,1.5874,16.2662,1513
323076,-6.0992,-2.6324,16.9043,1497
323081,-14.5783,0.9266,5.8107,1517
323086,-0.1185,5.5246,4.689,1499
323091,11.801,4.0761,15.3744,1513
323096,-1.4138,-4.3551,18.6029,1507
323101,-11.0911,-0.425,6.9635,1509
323106,-4.7321,5.4684,3.7002,1516
323111,9.2488,5.1667,13.5368,1509
323116,5.4887,-4.537,18.245,1499
323121,-7.8973,-0.6033,8.6299,1519
323126,-9.7085,4.8734,3.8439,1499
323131,6.9755,5.4181,10.7176,1525
323136,10.9978,-2.727,17.2023,1492
323141,-6.9719,-0.5974,11.6885,1511
323146,-14.054,3.4848,4.5095,1503
323151,4.476,5.4827,7.6662,1514
323156,13.1837,0.3065,16.4003,1513
323161,-6.7421,-1.822,15.6545,1507
323166,-15.0224,1.4186,5.6395,1511
323171,1.2007,5.6491,5.2373,1501
323176,12.384,3.1891,15.6413,1501
323181,-3.6152,-3.6332,18.1864,1527
323186,-12.3996,-0.2789,6.7098,1511
323191,-2.9856,5.5222,4.0654,1507
323196,10.2711,4.9752,14.2108,1517
323201,3.0646,-4.4915,18.4066,1500
323206,-8.4527,-0.7482,8.0816,1525
323211,-8.0804,4.9309,3.7613,1507
323216,7.604,5.4492,11.5293,1503
323221,9.4607,-3.2274,17.3316,1499
323226,-6.7947,-0.6357,10.7045,1511
323231,-12.8353,3.8223,4.3862,1525
323236,5.2014,5.5019,8.4755,1501
323241,12.882,-0.4621,16.4278,1497
323246,-6.8989,-1.3623,14.5927,1513
323251,-15.3804,2.0027,5.3594,1509
323256,2.2553,5.4145,5.7413,1531
323261,13.0376,2.788,15.84,1511
323266,-4.7872,-3.1137,17.8847,1515
323271,-13.5919,-0.0431,6.5122,1509
323276,-1.8447,5.3642,4.1683,1509
323281,11.0229,4.9871,14.5747,1525
323286,1.0642,-4.361,18.6963,1507
323291,-9.8653,-0.9565,7.6543,1525
323296,-6.6894,4.9752,3.7002,1495
323301,8.5222,5.6719,12.2571,1503
323306,8.2037,-3.7122,17.844,1511
323311,-7.1443,-0.7278,9.8402,1503
323316,-11.8968,4.2126,3.9648,1514
323321,5.9448,5.5486,9.165,1510
323326,12.5779,-1.2151,16.7163,1500
323331,-6.9456,-1.1253,13.4829,1519
323336,-15.0667,2.5965,4.9141,1500
323341,3.0957,5.4504,6.438,1527
323346,13.4207,2.0231,16.0471,1497
323351,-5.9532,-2.648,17.273,1505
323356,-14.856,0.5052,5.9951,1517
323361,-0.4513,5.3403,4.5442,1506
323366,11.9435,4.6052,15.0404,1517
323371,-1.075,-4.3203,19.0219,1511
323376,-11.1378,-0.8068,7.1431,1507
323381,-5.1439,5.1499,3.6871,1509
323386,9.3506,5.6383,13.131,1499
323391,6.0358,-4.2904,18.2474,1515
323396,-7.8171,-0.9002,8.855,1517
323401,-10.1406,4.5789,3.7541,1511
323406,6.7277,5.6024,10.343,1518
323411,11.5568,-2.1883,17.0742,1491
323416,-6.9073,-0.7985,12.1913,1523
323421,-14.2659,3.2298,4.4257,1512
323426,4.1312,5.3905,7.2915,1516
323431,13.6098,0.978,16.1932,1507
323436,-6.7074,-2.0937,16.2866,1507
323441,-15.3181,1.2462,5.6036,1513
323446,0.9194,5.3163,5.1284,1507
323451,12.651,3.8678,15.5647,1526
323456,-3.2034,-3.8499,18.6832,1517
323461,-12.621,-0.486,6.7098,1499
323466,-3.3579,5.211,3.8439,1509
323471,10.2316,5.4085,13.9833,1513
323476,3.6787,-4.5215,18.6592,1501
323481,-8.8011,-0.82,8.175,1529
323486,-8.5293,4.8997,3.5877,1491
323491,7.616,5.5929,11.3425,1503
323496,10.1095,-3.2513,17.4142,1495
323501,-7.2365,-0.5734,10.884,1507
323506,-13.0316,3.9145,4.1539,1520
323511,5.0985,5.375,8.3989,1514
323516,13.3896,-0.334,16.5739,1505
323521,-7.106,-1.3204,14.795,1517
323526,-15.3169,2.1416,5.1032,1514
323531,2.1225,5.2924,5.7377,1516
323536,13.3309,2.8982,15.9741,1503
323541,-4.8794,-3.2729,17.9912,1519
323546,-13.8756,0.1281,6.274,1527
323551,-1.7777,5.3091,4.1719,1509
323556,11.2013,4.9321,14.7291,1517
323561,1.1732,-4.6304,18.8424,1495
323566,-10.0664,-0.7386,7.5238,1525
323571,-6.6391,5.1128,3.5769,1511
323576,8.424,5.3822,12.3828,1512
323581,8.1882,-4.0175,17.911,1517
323586,-7.4915,-0.4764,9.7528,1512
323591,-11.6849,4.4568,3.9085,1515
323596,5.8598,5.223,9.3889,1496
323601,12.4439,-1.5502,16.9414,1493
323606,-7.27,-0.8595,13.2531,1529
323611,-14.6848,2.8946,4.8375,1507
323616,3.3291,5.2493,6.5613,1523
323621,13.1956,1.5431,16.3488,1507
323626,-6.1459,-2.4541,16.8205,1507
323631,-14.3293,0.9445,5.8873,1519
323636,-0.073,5.5282,4.5921,1494
323641,11.6478,3.8223,15.4354,1515
323646,-1.306,-4.1264,18.433,1510
323651,-11.1558,-0.3771,7.0749,1525
323656,-4.5813,5.4516,3.8223,1501
323661,9.238,4.8674,13.5129,1513
323666,5.7197,-4.2928,18.1193,1515
323671,-7.8901,-0.4776,8.758,1515
323676,-9.8557,4.7908,3.8104,1496
323681,6.7744,5.1523,10.5249,1527
323686,11.2097,-2.4995,17.1616,1485
323691,-6.9635,-0.5662,11.8681,1513
323696,-14.2491,3.4261,4.5215,1500
323701,4.3024,5.363,7.4555,1523
323706,13.2028,0.4573,16.4984,1511
323711,-6.4979,-1.7346,15.7527,1508
323716,-15.0787,1.3982,5.6946,1514
323721,0.9254,5.5713,5.0961,1501
323726,12.4056,3.2944,15.7072,1513
323731,-3.0646,-3.5877,18.2175,1526
323736,-12.0333,-0.328,6.8378,1523
323741,-3.4704,5.4312,3.8966,1515
323746,9.9659,4.9225,13.9785,1503
323751,3.5733,-4.3694,18.2702,1508
323756,-8.3701,-0.7063,8.3139,1517
323761,-8.5042,4.9057,3.8223,1500
323766,7.6004,5.296,11.2911,1523
323771,9.7875,-3.1161,17.3484,1502
323776,-6.8594,-0.589,11.0301,1501
323781,-13.2723,3.7326,4.4855,1515
323786,5.0661,5.3822,8.1068,1511
323791,12.7587,-0.3448,16.5571,1507
323796,-6.8941,-1.3946,14.6884,1507
323801,-15.044,1.9309,5.5043,1501
323806,2.1261,5.6575,5.6383,1523
323811,12.7012,2.5845,15.9621,1513
323816,-4.6819,-3.0191,17.668,1544
323821,-13.3465,0.1556,6.5086,1503
323826,-1.8627,5.5821,4.1132,1501
323831,10.8182,4.5633,14.6609,1513
323836,1.057,-4.2581,18.5599,1500
323841,-9.5888,-0.7063,7.6507,1530
323846,-6.5302,5.1703,3.65,1501
323851,8.3558,5.2888,12.3433,1501
323856,7.9128,-3.8666,17.9134,1515
323861,-7.203,-0.5842,9.651,1508
323866,-11.564,4.2808,4.0127,1511
323871,5.9233,5.4253,9.3601,1515
323876,12.4929,-1.6293,16.9402,1496
323881,-7.0761,-0.8715,13.2028,1503
323886,-14.9781,2.8168,4.8135,1509
323891,3.219,5.5079,6.5829,1513
323896,13.3908,1.47,16.2961,1501
323901,-6.2118,-2.4241,16.8504,1513
323906,-14.5184,0.7769,5.9077,1513
323911,-0.1101,5.5857,4.707,1511
323916,11.9674,3.9828,15.3756,1509
323921,-1.8088,-4.0677,18.7059,1517
323926,-11.2707,-0.6093,6.9145,1519
323931,-4.4568,5.3463,3.7529,1511
323936,9.5624,5.3008,13.5416,1513
323941,4.9344,-4.4125,18.3504,1512
323946,-7.9057,-0.747,8.4479,1524
323951,-9.4068,4.7321,3.7685,1501
323956,7.0677,5.5881,10.8804,1529
323961,10.6638,-2.903,17.2837,1495
323966,-6.9827,-0.6333,11.4,1515
323971,-13.6529,3.5506,4.4412,1511
323976,4.7297,5.6,7.8745,1519
323981,13.1921,-0.0251,16.423,1518
323986,-6.8785,-1.5119,15.2774,1511
323991,-15.1314,1.6783,5.466,1513
323996,1.7585,5.5641,5.4959,1513
324001,12.7264,2.9497,15.7455,1513
324006,-4.5179,-3.2501,18.0834,1524
324011,-13.0855,-0.0634,6.4201,1519
324016,-2.1237,5.4851,4.0522,1490
324021,10.7643,4.7956,14.625,1510
324026,1.3838,-4.4556,18.7095,1503
324031,-9.3338,-0.7434,7.6004,1519
324036,-6.8007,5.1475,3.6607,1500
324041,8.3677,5.3654,12.3265,1503
324046,7.9954,-3.8666,17.9026,1501
324051,-7.1371,-0.5567,9.7312,1500
324056,-11.5185,4.2892,3.9851,1515
324061,6.0047,5.4384,9.3134,1503
324066,12.3265,-1.5574,16.9653,1500
324071,-6.93,-0.893,13.1609,1519
324076,-14.8764,2.8096,4.7908,1509
324081,3.2501,5.4576,6.4871,1517
324086,13.3537,1.4557,16.4158,1501
324091,-6.0442,-2.3703,16.7702,1513
324096,-14.7626,0.82,5.8838,1511
324101,-0.2837,5.5234,4.628,1503
324106,11.965,3.9002,15.5264,1511
324111,-1.5622,-4.0761,18.6891,1513
324116,-11.3437,-0.4836,6.9252,1511
324121,-4.6424,5.3199,3.6739,1511
324126,9.4607,5.1547,13.5284,1498
324131,5.3858,-4.4448,18.4928,1511
324136,-7.8243,-0.5279,8.4803,1516
324141,-9.7432,4.7465,3.638,1495
324146,6.9097,5.3858,10.6398,1530
324151,11.0002,-2.8252,17.5136,1511
324156,-6.8067,-0.5195,11.4575,1511
324161,-13.9331,3.614,4.2844,1495
324166,4.3155,5.4432,7.6267,1515
324171,13.4171,0.073,16.8217,1513
324176,-6.6307,-1.5718,15.3492,1499
324181,-15.3301,1.7178,5.302,1503
324186,1.1791,5.5641,5.2373,1513
324191,12.8042,2.9305,16.0507,1514
324196,-3.6859,-3.4213,18.257,1515
324201,-12.9538,-0.0754,6.4224,1513
324206,-2.8383,5.436,3.9193,1507
324211,10.5453,4.7824,14.5508,1511
324216,2.6181,-4.5945,18.7981,1507
324221,-9.2356,-0.6021,7.6555,1527
324226,-7.5956,5.0542,3.4955,1507
324231,7.938,5.3738,11.904,1513
324236,9.3326,-3.7338,17.984,1513
324241,-6.942,-0.3711,10.1251,1509
324246,-12.5636,4.215,3.8654,1525
324251,5.3726,5.4612,8.7556,1510
324256,13.0197,-1.1217,17.091,1507
324261,-6.9276,-1.0379,13.8253,1515
324266,-15.2032,2.5379,4.7896,1509
324271,2.4672,5.4959,6.0944,1529
324276,13.3213,1.9597,16.429,1513
324281,-5.515,-2.7593,17.4106,1507
324286,-14.1533,0.4956,5.9891,1500
324291,-1.1708,5.5318,4.3024,1508
324296,11.5999,4.2916,15.2726,1523
324301,-0.2765,-4.4233,18.7993,1499
324306,-10.4914,-0.5555,7.0856,1516
324311,-5.7485,5.3259,3.5829,1509
324316,8.9663,5.3163,13.149,1503
324321,6.7385,-4.4065,18.3132,1509
324326,-7.4316,-0.4345,8.9148,1509
324331,-10.7296,4.634,3.723,1499
324336,6.4033,5.4169,10.0952,1519
324341,11.7902,-2.3475,17.3161,1492
324346,-6.8474,-0.6476,12.2068,1531
324351,-14.4538,3.2621,4.4796,1507
324356,3.7828,5.5186,7.112,1515
324361,13.295,0.7302,16.5834,1513
324366,-6.4691,-2.0063,16.0807,1499
324371,-14.9781,1.2103,5.624,1515
324376,0.504,5.6216,4.8638,1497
324381,12.2607,3.5291,15.8281,1513
324386,-2.5893,-3.8391,18.5144,1519
324391,-11.643,-0.322,6.7193,1515
324396,-3.8654,5.5222,3.7697,1511
324401,9.7648,4.9464,14.0372,1503
324406,3.9983,-4.476,18.5144,1507
324411,-8.2528,-0.6967,8.1678,1513
324416,-8.6179,4.9548,3.6859,1509
324421,7.3239,5.3079,11.2647,1511
324426,10.0461,-3.158,17.6453,1501
324431,-6.8618,-0.5734,10.8793,1506
324436,-13.3333,3.7649,4.2808,1509
324441,4.8626,5.387,8.0122,1507
324446,12.7755,-0.3352,16.8097,1516
324451,-6.8977,-1.4425,14.6729,1508
324456,-14.8871,1.9082,5.3463,1501
324461,2.0554,5.697,5.6539,1517
324466,12.5408,2.4122,16.0807,1513
324471,-4.8243,-3.1699,17.6333,1528
324476,-13.1992,0.2011,6.3087,1507
324481,-1.7717,5.8275,4.0941,1495
324486,10.6243,4.3096,14.7638,1517
324491,0.826,-4.4125,18.6233,1502
324496,-9.3386,-0.5674,7.4687,1529
324501,-6.2752,5.3929,3.6536,1499
324506,8.3163,5.0278,12.5301,1501
324511,7.2472,-3.8128,17.9074,1510
324516,-7.1108,-0.5938,9.5158,1507
324521,-10.5512,4.2497,4.027,1513
324526,6.1316,5.2816,9.6857,1503
324531,11.9363,-1.6053,16.9581,1501
324536,-6.8738,-0.8978,12.9071,1517
324541,-14.4801,2.745,4.8327,1499
324546,3.4884,5.5067,6.6152,1520
324551,12.864,1.3408,16.4135,1511
324556,-6.3171,-2.2972,16.4685,1485
324561,-14.8848,0.9038,5.8191,1509
324566,0.3124,5.7365,4.8363,1503
324571,11.9674,3.8367,15.5084,1511
324576,-2.144,-3.9696,18.5898,1503
324581,-11.2934,-0.4681,6.9204,1508
324586,-4.1144,5.4217,3.6368,1516
324591,9.3757,5.1954,13.7439,1496
324596,4.4879,-4.3479,18.4796,1507
324601,-7.9571,-0.7805,8.3857,1525
324606,-8.752,4.689,3.7589,1497
324611,7.1838,5.4312,11.0157,1511
324616,10.3334,-2.8623,17.419,1494
324621,-6.8402,-0.6871,11.1845,1507
324626,-13.3333,3.4967,4.3898,1515
324631,4.6878,5.4648,7.8829,1512
324636,13.034,0.0814,16.6876,1513
324641,-6.766,-1.6664,15.0236,1507
324646,-15.0919,1.7131,5.4384,1515
324651,1.7992,5.6072,5.4456,1523
324656,12.5767,2.873,15.9993,1507
324661,-4.5622,-3.2992,17.9828,1519
324666,-13.4219,-0.0982,6.4141,1508
324671,-2.1033,5.5318,4.0618,1503
324676,10.7332,4.8123,14.5951,1517
324681,1.397,-4.3562,18.8184,1497
324686,-9.0872,-0.735,7.5657,1520
324691,-6.9671,5.1008,3.6093,1499
324696,8.1942,5.4504,12.2487,1508
324701,7.9248,-3.729,17.9924,1497
324706,-6.9983,-0.6632,9.6403,1509
324711,-11.4443,4.1623,4.0905,1514
324716,5.8838,5.4899,9.3218,1503
324721,12.2176,-1.4054,16.8851,1503
324726,-6.9049,-0.9876,13.2531,1515
324731,-14.789,2.5893,4.8794,1509
324736,3.2394,5.551,6.4727,1529
324741,13.0077,1.6233,16.2147,1496
324746,-6.0657,-2.4744,16.8923,1515
324751,-14.4682,0.6488,5.9675,1519
324756,-0.17,5.7078,4.6232,1509
324761,11.6777,4.063,15.366,1517
324766,-1.6448,-4.0378,18.7322,1509
324771,-11.0612,-0.6416,6.9121,1517
324776,-4.5083,5.3654,3.6823,1513
324781,9.2859,5.3654,13.5344,1507
324786,5.2565,-4.2054,18.4246,1525
324791,-7.4615,-0.7338,8.5138,1503
324796,-9.5517,4.5765,3.7194,1511
324801,6.7457,5.5534,10.6374,1520
324806,10.9499,-2.4995,17.2311,1496
324811,-6.7109,-0.7374,11.6083,1523
324816,-13.9271,3.3495,4.4281,1494
324821,4.2425,5.5354,7.6626,1513
324826,13.362,0.4944,16.4553,1524
324831,-6.6583,-1.8423,15.7491,1508
324836,-15.2786,1.4545,5.4612,1516
324841,1.0271,5.5797,5.1439,1500
324846,12.4714,3.3758,15.852,1516
324851,-3.3483,-3.6823,18.4306,1519
324856,-12.2152,-0.2969,6.5841,1515
324861,-3.2609,5.4827,3.8235,1509
324866,10.0604,5.035,14.3054,1499
324871,3.3088,-4.5454,18.5251,1509
324876,-8.4396,-0.6871,7.9595,1524
324881,-8.2492,4.9249,3.644,1509
324886,7.4292,5.3858,11.57,1515
324891,9.7288,-3.2992,17.5543,1507
324896,-6.8103,-0.5483,10.5967,1517
324901,-12.8964,3.8618,4.2353,1516
324906,4.9991,5.442,8.3366,1512
324911,12.9443,-0.419,16.6936,1516
324916,-6.9504,-1.3874,14.5555,1508
324921,-15.1517,2.0949,5.2277,1507
324926,2.0638,5.5258,5.7736,1523
324931,12.8269,2.5726,16.1094,1507
324936,-4.7872,-3.1939,17.7686,1517
324941,-13.277,0.1365,6.2261,1509
324946,-1.8423,5.5809,4.063,1497
324951,10.7284,4.4592,14.9314,1519
324956,1.1708,-4.4077,18.6724,1499
324961,-9.5816,-0.6393,7.4077,1517
324966,-6.4356,5.2194,3.6476,1503
324971,8.2851,5.1715,12.5289,1503
324976,8.0433,-3.8355,17.9601,1513
324981,-7.0378,-0.504,9.5888,1508
324986,-11.4048,4.2892,3.8966,1517
324991,5.7521,5.3403,9.3182,1511
324996,12.4283,-1.3779,17.0347,1507
325001,-6.7995,-0.984,13.2806,1513
325006,-14.9135,2.6983,4.798,1517
325011,3.14,5.4947,6.4584,1543
325016,13.198,1.6448,16.3656,1507
325021,-5.9652,-2.5163,16.994,1511
325026,-14.7555,0.741,5.8838,1519
325031,-0.3029,5.5773,4.5466,1512
325036,11.7196,4.1767,15.4163,1529
325041,-1.2773,-4.1192,18.925,1499
325046,-11.0157,-0.5507,6.9923,1515
325051,-4.7405,5.2253,3.5554,1511
325056,9.1195,5.3355,13.3333,1507
325061,5.6826,-4.3072,18.5335,1517
325066,-7.7488,-0.6895,8.5844,1509
325071,-9.6403,4.5514,3.5446,1514
325076,6.6283,5.5342,10.5034,1527
325081,11.3485,-2.5798,17.3963,1503
325086,-6.7768,-0.6105,11.7519,1531
325091,-14.1449,3.3734,4.2748,1501
325096,4.0594,5.5043,7.3969,1515
325101,13.4458,0.5279,16.6804,1516
325106,-6.5422,-1.8495,15.8544,1544
325111,-15.2056,1.3862,5.4324,1513
325116,0.9301,5.5677,5.0494,1507
325121,12.572,3.4776,15.9035,1507
325126,-3.5171,-3.644,18.4725,1524
325131,-12.6593,-0.3208,6.5374,1519
325136,-3.1831,5.3714,3.8463,1522
325141,10.2711,5.108,14.3066,1507
325146,3.0993,-4.5801,18.7933,1507
325151,-8.5677,-0.7087,7.9128,1526
325156,-8.1319,4.962,3.5805,1496
325161,7.5836,5.4923,11.5221,1515
325166,9.4715,-3.4237,17.8787,1497
325171,-6.778,-0.5303,10.3825,1507
325176,-12.6941,3.9732,4.0725,1519
325181,5.0566,5.4145,8.4551,1509
325186,12.9861,-0.7039,16.9797,1516
325191,-6.8642,-1.257,14.2455,1499
325196,-15.1517,2.2254,5.0446,1501
325201,2.229,5.5007,5.782,1527
325206,13.0173,2.375,16.2746,1505
325211,-5.0649,-3.0406,17.6034,1520
325216,-13.6829,0.3124,6.2261,1519
325221,-1.4796,5.5761,4.1623,1501
325226,11.0337,4.4365,14.9877,1518
325231,0.346,-4.3658,18.8244,1501
325236,-10.1634,-0.6812,7.2999,1525
325241,-5.9532,5.2433,3.5973,1505
325246,8.5449,5.2277,12.7264,1505
325251,7.4567,-4.0558,18.1816,1508
325256,-7.1646,-0.5303,9.3362,1507
325261,-11.2803,4.4005,3.8068,1511
325266,5.9699,5.381,9.584,1513
325271,12.2104,-1.8364,17.1568,1493
325276,-6.8714,-0.808,12.8413,1541
325281,-14.7543,2.9185,4.6902,1513
325286,3.4297,5.5055,6.7971,1533
325291,13.386,1.3001,16.423,1498
325296,-6.1411,-2.2889,16.7199,1511
325301,-14.7854,0.8655,5.7664,1515
325306,0.0144,5.6192,4.6005,1515
325311,11.9267,4.0402,15.5049,1526
325316,-1.7861,-4.0247,18.7981,1509
325321,-11.242,-0.5447,6.9564,1508
325326,-4.4305,5.3534,3.6871,1511
325331,9.4032,5.3546,13.6015,1501
325336,5.0865,-4.3574,18.4713,1519
325341,-7.8554,-0.7482,8.4156,1506
325346,-9.3422,4.7094,3.6224,1505
325351,6.8809,5.5821,10.6602,1523
325356,11.084,-2.7078,17.3496,1511
325361,-6.6427,-0.6632,11.5281,1526
325366,-13.9809,3.5003,4.2449,1545
325371,4.2557,5.4863,7.5765,1544
325376,13.3154,0.395,16.6146,1501
325381,-6.6559,-1.8375,15.5731,1511
325386,-15.3097,1.5431,5.3654,1516
325391,1.1648,5.5103,5.2577,1491
325396,12.6845,3.3878,15.9083,1516
325401,-3.7804,-3.7122,18.5347,1519
325406,-12.8401,-0.2825,6.5206,1509
325411,-2.9137,5.3439,3.8271,1519
325416,10.2759,5.2241,14.2251,1500
325421,2.6264,-4.6052,18.9022,1513
325426,-8.588,-0.8428,7.7716,1527
325431,-7.7967,4.9033,3.5183,1500
325436,7.6195,5.6778,11.6885,1519
325441,9.2524,-3.383,17.8727,1501
325446,-6.6535,-0.7554,10.2041,1517
325451,-12.4822,3.8535,4.0414,1512
325456,5.1607,5.6252,8.5904,1507
325461,12.864,-0.5638,16.7666,1513
325466,-6.7109,-1.4257,14.1833,1493
325471,-15.1828,2.0614,5.0613,1509
325476,2.2517,5.6264,5.9017,1523
325481,12.955,2.4948,16.034,1511
325486,-5.3762,-3.055,17.8224,1519
325491,-13.811,0.0575,6.189,1511
325496,-1.4006,5.5617,4.2677,1505
325501,11.0875,4.7597,14.8548,1553
325506,-0.0299,-4.3706,19.1273,1507
325511,-9.7731,-0.9697,7.2173,1529
325516,-5.9891,5.12,3.6057,1489
325521,8.5186,5.6108,12.7587,1505
325526,7.0162,-4.0187,18.2378,1512
325531,-6.9456,-0.838,9.0154,1509
325536,-10.8697,4.3036,3.8104,1517
325541,6.0705,5.7221,9.815,1515
325546,12.0512,-1.7729,17.0276,1485
325551,-6.5912,-0.9565,12.5432,1525
325556,-14.7471,2.8671,4.604,1511
325561,3.4093,5.7209,6.875,1531
325566,13.38,1.3443,16.259,1509
325571,-6.3482,-2.3571,16.769,1481
325576,-14.771,0.7207,5.7102,1518
325581,-0.0156,5.5617,4.7609,1513
325586,12.0787,4.1276,15.5312,1519
325591,-2.4277,-4.1168,19.0662,1509
325596,-11.7172,-0.747,6.6092,1523
325601,-4.1372,5.2253,3.7254,1487
325606,9.7288,5.7054,13.7451,1507
325611,4.6471,-4.5179,18.9321,1525
325616,-8.011,-0.9074,8.0385,1502
325621,-9.0058,4.6412,3.4668,1507
325626,7.1084,5.9759,11.0409,1513
325631,10.8541,-2.891,17.6489,1495
325636,-6.5254,-0.7997,10.8505,1511
325641,-13.3058,3.5877,3.9373,1503
325646,4.4161,5.7664,8.0637,1515
325651,13.714,0.2047,16.6277,1513
325656,-6.754,-1.804,15.2822,1505
325661,-15.4498,1.5239,4.9835,1509
325666,1.3491,5.4935,5.4468,1513
325671,13.2627,3.4321,15.8436,1507
325676,-4.7034,-3.7098,18.7646,1517
325681,-13.198,-0.407,6.2034,1509
325686,-2.6384,5.3738,3.9935,1509
325691,10.8397,5.387,14.6082,1523
325696,1.5155,-4.7214,19.393,1503
325701,-9.1435,-0.9601,7.27,1525
325706,-7.2257,5.0338,3.4656,1507
325711,8.0457,6.0023,12.202,1503
325716,8.4168,-3.9468,18.2235,1499
325721,-6.7337,-0.6692,9.4751,1517
325726,-11.9195,4.1851,3.8511,1521
325731,5.5749,5.7604,9.3051,1509
325736,12.6773,-1.3611,17.0395,1513
325741,-6.7516,-1.0977,13.3046,1509
325746,-14.8848,2.5355,4.695,1491
325751,2.8491,5.6419,6.5218,1523
325756,13.3668,1.9309,16.2387,1499
325761,-5.9197,-2.7605,17.3903,1515
325766,-14.3544,0.4106,5.8,1529
325771,-0.6309,5.5306,4.4377,1451
325776,11.6502,4.4879,15.1816,1516
325781,-1.2665,-4.312,19.253,1495
325786,-10.6458,-0.8763,6.8702,1519
325791,-5.1176,5.1655,3.6188,1500
325796,8.9938,5.6395,13.3034,1510
325801,5.6479,-4.3263,18.6903,1515
325806,-7.1994,-0.9074,8.4815,1516
325811,-9.9599,4.4161,3.6164,1500
325816,6.5912,5.8215,10.4794,1502
325821,11.0014,-2.332,17.346,1500
325826,-6.4859,-0.9074,11.6993,1529
325831,-13.7822,3.0897,4.4484,1512
325836,4.1755,5.7676,7.5369,1513
325841,12.9718,0.6752,16.2734,1503
325846,-6.6571,-2.0363,15.7682,1499
325851,-14.8393,1.1648,5.539,1514
325856,1.087,5.849,5.1248,1500
325861,11.9854,3.3555,15.7431,1513
325866,-3.8092,-3.6775,18.4713,1519
325871,-11.8262,-0.2789,6.5446,1517
325876,-2.9736,5.7856,3.8295,1519
325881,9.6786,4.701,14.4119,1501
325886,2.1165,-4.4688,18.6544,1511
325891,-8.6239,-0.6788,7.6591,1523
325896,-7.2269,5.2038,3.7302,1541
325901,7.592,5.1248,12.0823,1517
325906,8.7664,-3.4644,17.6836,1501
325911,-6.7277,-0.4549,10.1167,1513
325916,-11.7771,3.9816,4.2138,1512
325921,5.1499,5.2265,8.7472,1512
325926,12.0009,-0.9517,16.9186,1507
325931,-7.0114,-1.2701,13.6254,1499
325936,-14.1461,2.2374,5.1308,1500
325941,2.7533,5.7832,6.3782,1525
325946,12.8461,1.9094,16.1944,1515
325951,-5.5234,-2.9868,17.2921,1517
325956,-12.9215,0.6273,6.025,1508
325961,-1.0594,6.0226,4.1683,1511
325966,10.386,3.9097,15.4222,1545
325971,-0.6285,-4.2485,18.5,1509
325976,-11.4048,-0.3974,6.9336,1523
325981,-5.0099,5.8742,3.9193,1496
325986,8.9196,4.6962,13.392,1508
325991,6.9576,-4.4436,17.9505,1513
325996,-7.167,-0.1101,8.9208,1509
326001,-10.55,4.9249,3.7038,1523
326006,5.6946,4.8985,10.0161,1507
326011,10.8266,-2.2541,17.5938,1501
326016,-6.8977,-0.7745,11.9614,1525
326021,-12.2224,3.0777,4.6843,1501
326026,4.227,5.5534,7.525,1517
326031,13.1597,0.6919,16.3368,1506
326036,-6.4057,-2.3834,16.283,1497
326041,-14.1952,1.2498,5.6383,1487
326046,0.4393,5.8838,4.5873,1511
326051,10.835,3.5003,15.8197,1526
326056,-2.6336,-4.0486,18.3683,1516
326061,-12.7587,-0.4501,6.7301,1513
326066,-3.4177,6.201,4.0701,1507
326071,9.7851,4.7393,13.8433,1503
326076,4.1204,-4.4436,18.5551,1507
326081,-7.7835,-0.4118,8.2456,1519
326086,-8.029,4.8985,3.5769,1511
326091,6.353,4.9931,10.7691,1529
326096,9.1602,-2.3008,17.8823,1496
326101,-6.8043,-1.0127,10.9379,1556
326106,-10.6805,3.1448,4.6244,1515
326111,5.2218,5.2589,8.0409,1513
326116,12.536,0.395,16.4206,1513
326121,-6.8211,-1.8687,15.0966,1513
326126,-14.716,1.4521,5.4289,1507
326131,1.9573,5.6012,5.2218,1517
326136,11.9806,3.3938,15.8831,1501
326141,-4.883,-3.3794,18.0307,1528
326146,-14.139,-0.2286,6.4883,1509
326151,-1.2965,5.9316,4.1958,1503
326156,10.7919,4.9811,14.5807,1513
326161,0.3986,-4.3251,19.1656,1497
326166,-9.8497,-0.7793,7.4771,1525
326171,-5.5138,5.0039,3.383,1503
326176,7.8985,5.4648,12.214,1501
326181,6.6367,-3.5015,18.6053,1513
326186,-7.0126,-0.9792,9.3613,1511
326191,-9.7217,4.0199,3.8762,1517
326196,6.1387,5.4923,9.5086,1511
326201,11.4407,-1.5335,17.2825,1491
326206,-6.5721,-1.1121,12.5372,1528
326211,-14.0157,2.8264,4.5957,1506
326216,3.7182,5.5294,6.7289,1517
326221,12.9861,1.3132,16.6804,1506
326226,-6.2836,-2.3224,16.1848,1512
326231,-14.9494,1.0977,5.7796,1516
326236,0.9026,5.7569,4.6998,1509
326241,12.0357,3.6332,15.7814,1509
326246,-3.6224,-3.711,18.585,1515
326251,-13.0233,-0.3316,6.5853,1508
326256,-2.7689,5.539,3.7421,1513
326261,10.1155,4.968,14.188,1515
326266,2.1931,-4.3239,19.1333,1500
326271,-8.7185,-0.8224,7.8123,1527
326276,-7.1503,4.9572,3.4776,1493
326281,7.6962,5.3343,11.6238,1509
326286,8.1116,-3.3483,18.2546,1503
326291,-6.8546,-0.7997,9.9168,1509
326296,-11.066,3.8559,4.0953,1517
326301,5.6743,5.387,8.9627,1517
326306,12.0907,-0.9984,17.103,1495
326311,-6.8414,-1.2833,13.4446,1545
326316,-14.3544,2.3427,4.9763,1509
326321,3.2573,5.5246,6.1471,1530
326326,12.4714,1.8615,16.368,1511
326331,-6.1076,-2.6408,16.6816,1509
326336,-14.4035,0.5638,6.0358,1513
326341,0.1808,6.0154,4.6112,1516
326346,11.6729,3.8954,15.3744,1528
326351,-2.2685,-4.063,18.5551,1509
326356,-11.1103,-0.4501,6.9492,1509
326361,-3.9636,5.8059,3.6727,1523
326366,8.9926,4.8135,13.6733,1511
326371,3.5446,-4.0438,18.4126,1507
326376,-8.995,-0.7554,8.2875,1517
326381,-7.8195,5.041,4.0175,1507
326386,7.5058,4.9165,11.2085,1522
326391,9.5732,-2.8503,17.3292,1506
326396,-7.0785,-0.5207,11.072,1511
326401,-12.1159,3.6188,4.4341,1509
326406,4.8495,5.0182,8.084,1508
326411,11.9554,-0.1508,16.9126,1512
326416,-7.1611,-1.4437,14.2036,1501
326421,-13.5596,1.8004,5.3774,1499
326426,2.9568,5.7018,6.0334,1518
326431,12.9466,2.3643,15.8927,1502
326436,-5.6563,-3.067,17.5974,1523
326441,-13.2914,0.34,6.2201,1514
326446,-0.9517,5.8287,3.9983,1507
326451,10.3741,4.3263,15.1589,1519
326456,-0.7733,-4.1468,18.573,1497
326461,-11.4108,-0.6871,7.1048,1519
326466,-4.883,5.7688,3.9025,1498
326471,9.2009,4.9548,13.1382,1509
326476,6.1962,-4.0893,18.0475,1507
326481,-7.276,-0.3771,9.0214,1511
326486,-9.9862,4.6112,3.9014,1513
326491,6.025,4.9632,9.997,1515
326496,10.386,-1.8304,17.3029,1496
326501,-7.1575,-0.9577,11.9842,1531
326506,-11.8154,2.9233,4.9668,1501
326511,4.9668,5.3379,7.4903,1511
326516,12.8628,0.9062,16.2255,1513
326521,-6.8714,-2.0303,15.9765,1502
326526,-14.3892,1.2282,5.7425,1507
326531,1.4473,5.7066,4.7381,1517
326536,11.5029,3.5183,15.8341,1509
326541,-3.8954,-3.6715,18.1061,1519
326546,-13.3477,-0.31,6.5876,1515
326551,-2.2649,6.2153,4.0893,1509
326556,10.5453,4.7872,14.3365,1513
326561,2.0039,-4.4353,18.7562,1507
326566,-9.4475,-0.48,7.6519,1517
326571,-6.4859,5.2984,3.4477,1507
326576,7.2592,4.944,11.7076,1501
326581,7.8578,-3.1939,18.3109,1531
326586,-7.2329,-0.8045,9.8916,1509
326591,-10.003,4.0079,4.0677,1517
326596,5.9616,5.1332,9.1255,1518
326601,11.8357,-1.1875,17.1281,1507
326606,-7.0318,-1.1229,13.1849,1517
326611,-13.9115,2.4876,4.8111,1501
326616,3.4189,5.3882,6.3099,1529
326621,12.7132,1.5742,16.6217,1507
326626,-6.2273,-2.5235,16.5176,1511
326631,-14.2551,0.8021,5.9089,1507
326636,0.6991,5.8957,4.6376,1509
326641,11.6083,3.6775,15.5851,1510
326646,-3.0526,-3.8367,18.3228,1513
326651,-12.5791,-0.3998,6.784,1514
326656,-3.2178,5.9628,3.8164,1513
326661,9.8318,4.8937,13.957,1501
326666,2.7461,-4.2353,18.494,1501
326671,-9.1698,-0.6967,8.1415,1519
326676,-7.2915,5.2349,3.7996,1501
326681,7.5429,4.8758,11.412,1512
326686,7.9655,-2.8383,17.6524,1508
326691,-8.0517,-0.814,10.3633,1507
326696,-10.5201,3.8858,4.5897,1523
326701,6.1543,4.8949,8.6526,1519
326706,11.7076,-0.6393,16.7678,1501
326711,-7.4041,-1.251,13.8349,1519
326716,-13.1825,2.1679,5.3295,1508
326721,3.4369,5.2708,6.0094,1519
326726,12.0536,1.9453,16.4015,1501
326731,-6.3422,-2.6432,16.5092,1516
326736,-13.0041,0.5471,6.1471,1509
326741,0.5195,5.9675,4.7094,1513
326746,11.6801,3.6787,15.4127,1485
326751,-2.6181,-4.0522,18.2486,1503
326756,-11.5077,-0.1927,6.7493,1515
326761,-3.814,6.0334,3.6978,1512
326766,9.068,4.4652,13.9079,1498
326771,3.1615,-4.1958,18.2402,1501
326776,-9.3937,-0.5171,8.1535,1523
326781,-7.8697,5.5522,4.0737,1493
326786,8.0134,4.6352,11.5508,1529
326791,8.9459,-3.2262,17.2239,1502
326796,-7.689,-0.2909,10.7775,1510
326801,-11.4359,4.039,4.5406,1515
326806,5.4277,4.707,8.5353,1514
326811,11.4898,-0.7542,16.9102,1493
326816,-7.5741,-1.2462,13.7451,1511
326821,-12.5277,2.2709,5.4851,1511
326826,3.7661,5.4097,6.256,1541
326831,12.6833,1.573,16.1202,1506
326836,-6.1076,-2.557,16.8839,1513
326841,-13.362,0.7733,6.1244,1517
326846,-0.1496,6.0071,4.3395,1507
326851,10.817,3.6799,15.5312,1519
326856,-1.7573,-3.9205,18.2211,1497
326861,-11.886,-0.3136,6.9444,1509
326866,-4.1312,6.1028,4.0151,1497
326871,9.6618,4.6424,13.6517,1499
326876,4.8064,-4.3634,18.0619,1507
326881,-8.1427,-0.2047,8.4731,1501
326886,-8.5222,4.974,3.7745,1507
326891,6.4045,4.6459,10.7081,1523
326896,9.9024,-2.5367,17.5387,1491
326901,-7.3538,-0.6045,11.1761,1515
326906,-11.4706,3.4752,4.634,1499
326911,5.0973,5.1368,8.1558,1509
326916,12.9826,-0.1209,16.6517,1515
326921,-7.2018,-1.4796,14.9434,1509
326926,-14.7938,1.8435,5.3295,1511
326931,1.9704,5.5234,5.3678,1506
326936,12.3122,2.7078,16.2985,1497
326941,-4.713,-3.3531,17.7015,1524
326946,-13.7319,0.2083,6.3758,1512
326951,-1.5957,5.8873,4.1324,1509
326956,10.7799,4.452,14.85,1503
326961,0.8092,-4.4281,18.6796,1497
326966,-9.9766,-0.4812,7.4184,1529
326971,-5.8407,5.3391,3.5458,1499
326976,8.0457,4.9476,12.3517,1509
326981,7.2197,-3.5841,18.2725,1501
326986,-7.2532,-0.6213,9.5265,1508
326991,-9.8617,4.3048,3.9875,1520
326996,6.0944,4.9333,9.4092,1503
327001,11.6562,-1.4174,17.3532,1501
327006,-6.7373,-1.0355,12.8018,1527
327011,-13.6039,2.7282,4.6579,1502
327016,3.5793,5.2577,6.5146,1519
327021,13.0927,1.4976,16.7079,1511
327026,-6.2357,-2.4086,16.4099,1507
327031,-14.9913,1.087,5.7604,1515
327036,0.5674,5.697,4.5226,1501
327041,11.8896,3.6631,15.7981,1512
327046,-3.0299,-3.7409,18.5826,1511
327051,-12.9107,-0.2825,6.6954,1510
327056,-3.1508,5.6599,3.6176,1515
327061,9.8904,4.7154,14.0528,1507
327066,3.122,-4.2198,18.8531,1501
327071,-8.6814,-0.6045,8.0721,1518
327076,-7.4053,4.9476,3.4417,1502
327081,7.3023,4.9835,11.2731,1525
327086,8.7448,-3.0562,18.1492,1499
327091,-7.0402,-0.6871,10.4052,1500
327096,-11.145,3.8415,4.118,1515
327101,5.5498,5.0697,8.5234,1511
327106,12.3469,-0.7494,17.2802,1512
327111,-6.8079,-1.1983,13.7284,1511
327116,-14.5831,2.3906,4.9871,1497
327121,2.9904,5.3331,5.8682,1513
327126,12.9155,2.0135,16.7043,1511
327131,-5.8167,-2.5726,16.8935,1515
327136,-14.8812,0.7087,6.037,1511
327141,0.018,5.551,4.3658,1515
327146,11.9339,4.0067,15.4558,1533
327151,-1.9908,-3.8595,18.6652,1512
327156,-11.9662,-0.4693,6.9528,1511
327161,-3.8211,5.3115,3.5195,1509
327166,9.5241,5.1236,13.4997,1496
327171,4.1049,-4.0318,18.8184,1513
327176,-8.5736,-0.8523,8.4156,1516
327181,-7.9835,4.6759,3.5362,1493
327186,7.3694,5.3127,10.8146,1517
327191,9.8078,-2.8072,18.0188,1507
327196,-6.875,-0.7793,10.7141,1511
327201,-12.5205,3.7541,4.0474,1519
327206,5.1008,5.3391,8.0661,1515
327211,13.2244,-0.3053,17.176,1515
327216,-6.8295,-1.3384,14.2287,1503
327221,-15.433,2.2889,4.9333,1509
327226,2.6025,5.3259,5.7461,1517
327231,13.6266,2.4924,16.3009,1501
327236,-5.7497,-2.7725,17.5315,1523
327241,-14.9769,0.3519,5.9484,1511
327246,-0.6141,5.2792,4.2401,1511
327251,12.1613,4.6819,15.129,1531
327256,-1.4629,-4.1336,19.2278,1501
327261,-11.8082,-0.8559,7.0306,1515
327266,-4.549,5.0601,3.5434,1497
327271,9.6833,5.6216,13.2088,1507
327276,5.0996,-4.3431,18.9537,1512
327281,-8.09,-0.844,8.5162,1511
327286,-9.4834,4.6364,3.5303,1503
327291,7.0342,5.6036,10.6183,1497
327296,10.6446,-2.8168,17.7973,1497
327301,-7.0054,-0.6752,11.1761,1517
327306,-13.5153,3.6428,4.2246,1503
327311,4.7022,5.4408,7.8422,1511
327316,13.2651,-0.2334,16.9222,1516
327321,-7.0222,-1.3731,14.8129,1507
327326,-15.1218,1.9656,5.2301,1513
327331,1.9824,5.4528,5.539,1511
327336,13.0257,2.4409,16.1716,1507
327341,-5.047,-2.976,17.6572,1529
327346,-13.2663,0.2322,6.3171,1503
327351,-1.6472,5.5557,4.1216,1507
327356,11.1223,4.2294,15.014,1515
327361,0.2334,-4.2365,18.4856,1497
327366,-10.003,-0.5435,7.3682,1518
327371,-5.8945,5.351,3.6703,1507
327376,8.7508,4.956,12.8557,1512
327381,6.7912,-4.0139,17.9314,1503
327386,-7.5453,-0.4178,9.323,1503
327391,-10.5201,4.5633,3.9923,1501
327396,6.426,5.0242,9.9024,1514
327401,11.4982,-2.0243,17.1616,1498
327406,-7.2257,-0.6584,12.4582,1515
327411,-13.8732,3.1316,4.8495,1503
327416,4.1084,5.2517,7.118,1517
327421,13.216,0.7266,16.5176,1503
327426,-6.699,-1.901,15.8771,1499
327431,-14.8141,1.3695,5.7676,1511
327436,1.0475,5.6479,4.9117,1509
327441,12.2583,3.1711,15.7969,1511
327446,-3.462,-3.5027,18.0415,1516
327451,-12.5803,-0.067,6.6774,1517
327456,-2.8491,5.7257,3.9313,1517
327461,10.1801,4.5358,14.291,1509
327466,2.7007,-4.3431,18.5539,1512
327471,-8.9268,-0.5686,7.8781,1526
327476,-7.3909,5.138,3.6248,1501
327481,7.7057,4.962,11.8082,1517
327486,8.9447,-3.4728,17.8416,1497
327491,-7.1251,-0.4585,10.1837,1511
327496,-11.9914,4.1719,4.1527,1512
327501,5.4552,5.1619,8.8777,1513
327506,12.6378,-1.0582,16.9557,1507
327511,-7.1072,-1.0463,13.6505,1513
327516,-14.8572,2.5295,4.9787,1499
327521,3.0251,5.46,6.2022,1525
327526,13.0915,1.7992,16.3332,1503
327531,-5.8802,-2.5558,17.0,1515
327536,-14.1868,0.6512,6.0394,1519
327541,-0.3208,5.7305,4.3814,1508
327546,11.4251,3.9169,15.4282,1530
327551,-1.3671,-4.0223,18.5287,1500
327556,-11.0852,-0.4848,7.021,1506
327561,-4.5274,5.5665,3.7002,1493
327566,9.1806,4.8447,13.629,1505
327571,5.2505,-4.215,18.1911,1495
327576,-7.7716,-0.5782,8.6227,1506
327581,-9.1291,4.7513,3.7302,1497
327586,6.9324,5.1667,10.7284,1513
327591,10.4974,-2.5774,17.3149,1492
327596,-7.003,-0.6776,11.5017,1527
327601,-13.0005,3.4429,4.4939,1503
327606,4.7848,5.3678,7.8817,1517
327611,13.1071,0.1652,16.5834,1509
327616,-6.9971,-1.5921,15.1218,1501
327621,-15.1577,1.7166,5.3762,1503
327626,1.9405,5.5725,5.3822,1503
327631,12.615,3.0083,15.9945,1503
327636,-4.7118,-3.225,18.008,1523
327641,-13.6781,0.0467,6.3686,1513
327646,-1.6496,5.5402,3.978,1501
327651,10.7344,4.7728,14.7507,1509
327656,0.9146,-4.3766,18.9298,1500
327661,-9.7468,-0.7183,7.4627,1559
327666,-6.037,5.0805,3.5231,1492
327671,8.2181,5.3331,12.4139,1503
327676,7.5741,-3.8247,18.2785,1507
327681,-7.0569,-0.6428,9.3948,1511
327686,-10.8062,4.2856,3.893,1524
327691,5.9053,5.3403,9.4691,1511
327696,11.989,-1.6185,17.2335,1497
327701,-6.9097,-0.9517,12.7635,1519
327706,-14.4239,2.9281,4.7621,1507
327711,3.5853,5.4731,6.6511,1525
327716,13.277,1.2713,16.6026,1499
327721,-6.3805,-2.2733,16.3536,1509
327726,-14.7878,1.0858,5.7365,1510
327731,0.6021,5.6599,4.6172,1514
327736,12.0309,3.5674,15.7155,1517
327741,-2.9257,-3.7505,18.4796,1511
327746,-12.4894,-0.3352,6.7469,1511
327751,-3.1819,5.6072,3.7852,1510
327756,9.9216,4.8088,14.0719,1501
327761,3.2166,-4.2748,18.6987,1512
327766,-8.7125,-0.6967,8.011,1516
327771,-7.5537,4.9548,3.5674,1497
327776,7.4184,5.1799,11.4215,1518
327781,9.1794,-3.1556,17.9817,1493
327786,-6.9061,-0.7123,10.5034,1515
327791,-11.8597,3.9061,4.1132,1519
327796,5.3786,5.2804,8.5186,1507
327801,12.6342,-0.7242,17.0192,1511
327806,-6.8666,-1.227,13.951,1512
327811,-14.8991,2.3451,5.0254,1513
327816,2.9413,5.5115,5.9508,1523
327821,13.0292,2.0458,16.3704,1501
327826,-5.7533,-2.6624,17.1341,1517
327831,-14.5723,0.6572,6.0633,1493
327836,-0.2454,5.7389,4.2294,1513
327841,11.5173,3.9552,15.427,1527
327846,-1.6652,-3.9672,18.6209,1509
327851,-11.6191,-0.431,7.0437,1513
327856,-4.1707,5.5821,3.5961,1502
327861,9.3589,4.7908,13.5715,1511
327866,4.4137,-4.2078,18.512,1516
327871,-8.3127,-0.6249,8.4707,1509
327876,-8.2791,4.8554,3.6751,1509
327881,7.0713,4.9045,10.8302,1514
327886,9.906,-2.7557,17.8141,1484
327891,-7.0006,-0.6297,11.0887,1513
327896,-12.2451,3.6607,4.3072,1507
327901,5.0278,5.0362,7.9823,1508
327906,12.8557,-0.2478,17.091,1511
327911,-6.9408,-1.4497,14.3999,1499
327916,-14.9243,2.0351,5.2062,1499
327921,2.5905,5.466,5.545,1523
327926,13.0137,2.3774,16.4518,1509
327931,-5.4492,-2.8635,17.3125,1562
327936,-14.2635,0.4465,6.1746,1499
327941,-0.7075,5.7533,4.1096,1510
327946,11.3772,4.0282,15.2559,1523
327951,-1.0774,-3.9828,18.5479,1507
327956,-11.3988,-0.4776,7.1826,1509
327961,-4.616,5.6168,3.6428,1499
327966,9.2201,4.774,13.3142,1509
327971,5.1188,-4.0402,18.3935,1513
327976,-7.999,-0.6285,8.7412,1501
327981,-8.9256,4.8746,3.7158,1496
327986,6.8941,4.8602,10.4758,1511
327991,10.0413,-2.5319,17.6261,1503
327996,-7.1335,-0.7051,11.3928,1509
328001,-12.402,3.553,4.4628,1501
328006,5.0625,5.0901,7.8614,1511
328011,12.8473,-0.164,16.83,1511
328016,-7.0641,-1.3886,14.7459,1497
328021,-14.7507,1.9369,5.3893,1501
328026,2.4074,5.5378,5.539,1517
328031,12.736,2.2745,16.3356,1503
328036,-5.2457,-2.7761,17.3735,1525
328041,-14.2084,0.4729,6.2596,1511
328046,-0.917,5.8574,4.2234,1511
328051,11.4598,3.9205,15.1314,1512
328056,-0.419,-4.033,18.4497,1509
328061,-10.7847,-0.3077,7.2592,1513
328066,-4.9716,5.5964,3.5123,1496
328071,8.8945,4.6639,13.1657,1499
328076,5.533,-3.9959,18.3085,1518
328081,-8.2468,-0.5375,8.8538,1507
328086,-8.9364,4.7968,3.802,1507
328091,7.0054,4.8662,10.4471,1519
328096,10.8948,-2.6324,17.5818,1499
328101,-7.1742,-0.4561,11.5867,1529
328106,-13.4339,3.644,4.3407,1499
328111,4.64,5.0877,7.5393,1507
328116,13.204,-0.1389,17.2155,1506
328121,-6.9576,-1.3551,14.7866,1492
328126,-15.1433,2.1177,5.2696,1501
328131,2.1679,5.5067,5.4408,1501
328136,13.2411,2.3331,16.4697,1511
328141,-4.9129,-2.9604,17.5615,1525
328146,-13.939,0.4154,6.2477,1509
328151,-1.3623,5.6276,3.9636,1505
328156,11.3042,4.1372,15.1146,1523
328161,-0.0263,-4.2341,18.6748,1495
328166,-10.7332,-0.5231,7.3251,1519
328171,-5.3343,5.4001,3.5338,1503
328176,8.9878,4.8985,12.9574,1507
328181,6.2249,-4.0893,18.415,1506
328186,-7.7417,-0.6045,9.0644,1501
328191,-9.9084,4.6855,3.7026,1506
328196,6.6403,5.0039,10.0305,1516
328201,11.0133,-2.3918,17.6943,1523
328206,-6.9252,-0.7075,11.8309,1523
328211,-13.6206,3.395,4.5071,1509
328216,4.47,5.2816,7.3502,1509
328221,13.143,0.1532,16.8827,1507
328226,-6.8127,-1.5622,15.1469,1500
328231,-15.2152,1.725,5.4336,1511
328236,1.7549,5.624,5.2433,1503
328241,12.7958,2.6312,16.2387,1501
328246,-4.5071,-3.1161,17.8176,1515
328251,-13.2519,0.2406,6.3805,1545
328256,-1.913,5.8442,3.9157,1511
328261,10.7727,4.1168,14.9769,1518
328266,0.6321,-4.1887,18.5024,1508
328271,-10.076,-0.5399,7.4484,1531
328276,-6.0657,5.4815,3.6452,1493
328281,8.679,4.6974,12.8473,1510
328286,6.9157,-3.9456,18.0056,1507
328291,-7.5286,-0.3627,9.3278,1509
328296,-10.586,4.6519,3.9265,1518
328301,6.4129,4.7968,9.9587,1513
328306,11.3162,-2.1811,17.3053,1458
328311,-7.4184,-0.5674,12.2368,1517
328316,-13.4865,3.2022,4.7417,1503
328321,4.3239,5.1715,7.3167,1523
328326,13.2782,0.4274,16.7319,1507
328331,-6.9803,-1.7083,15.6102,1509
328336,-14.4993,1.506,5.6096,1519
328341,1.3204,5.606,4.8985,1512
328346,12.1649,2.7569,16.1537,1499
328351,-3.978,-3.3662,17.6465,1513
328356,-13.113,0.1532,6.5218,1517
328361,-2.4433,5.9711,4.1192,1503
328366,10.7607,4.2413,14.7112,1505
328371,2.0315,-4.288,18.1864,1511
328376,-8.9423,-0.2933,7.8027,1523
328381,-6.942,5.4719,3.5973,1499
328386,7.8374,4.6986,12.1661,1517
328391,7.6243,-3.3387,17.8212,1497
328396,-7.8398,-0.5902,9.8366,1507
328401,-10.1442,4.2341,4.2988,1515
328406,6.4045,4.8614,9.4164,1513
328411,12.3182,-1.33,16.8085,1499
328416,-7.3107,-0.8068,13.3393,1518
328421,-14.5292,2.7605,4.9931,1500
328426,3.4345,5.1739,6.3231,1519
328431,12.6558,1.5502,16.7462,1501
328436,-6.3159,-2.2386,16.2734,1511
328441,-14.8476,0.9409,5.8957,1503
328446,0.6728,5.8035,4.8758,1511
328451,12.4894,3.6152,15.4845,1527
328456,-2.4696,-3.79,18.3923,1503
328461,-11.2372,-0.3208,6.8666,1510
328466,-3.7529,5.5845,3.5219,1507
328471,9.3242,4.7932,13.9738,1511
328476,3.1208,-4.0474,18.3875,1513
328481,-9.493,-0.9613,8.1702,1512
328486,-7.4472,5.0506,3.8834,1499
328491,8.1379,5.1056,11.5915,1515
328496,9.3841,-3.0861,17.3005,1501
328501,-7.1503,-0.559,10.7703,1515
328506,-12.5025,3.8786,4.2964,1510
328511,5.2672,5.0542,8.333,1515
328516,11.7388,-0.4178,17.0168,1513
328521,-7.1862,-1.3491,13.8816,1507
328526,-13.5715,2.0482,5.3079,1507
328531,3.4692,5.5079,6.2956,1530
328536,13.289,1.986,15.9669,1510
328541,-6.0346,-2.6935,17.2323,1520
328546,-13.3764,0.4609,6.2249,1515
328551,-0.4896,5.6886,4.1001,1509
328556,10.6769,4.0845,15.4438,1515
328561,-1.6783,-3.9373,18.1409,1499
328566,-11.9878,-0.6237,7.1742,1503
328571,-4.2054,5.9089,3.9504,1497
328576,10.0413,4.8949,13.6721,1511
328581,4.8626,-4.2796,17.941,1523
328586,-7.835,-0.3675,8.5485,1511
328591,-9.2285,4.9009,3.6883,1497
328596,6.7528,4.9045,10.799,1527
328601,9.7049,-2.5989,17.4645,1495
328606,-7.3598,-0.8116,11.1737,1531
328611,-11.8836,3.4225,4.6136,1495
328616,5.46,5.2517,8.3761,1511
328621,13.0328,-0.3089,16.3117,1510
328626,-7.4316,-1.3934,14.8381,1503
328631,-14.7387,1.8316,5.4133,1513
328636,2.3607,5.448,5.3893,1515
328641,12.2643,2.5642,16.2447,1501
328646,-5.2553,-2.9149,17.2299,1523
328651,-14.0839,0.2203,6.3398,1501
328656,-1.0056,5.9687,4.5119,1516
328661,11.6227,4.3024,14.9638,1511
328666,-0.0323,-4.2341,18.4401,1499
328671,-9.6223,-0.4621,7.2496,1527
328676,-5.6228,5.4468,3.5482,1494
328681,8.2444,4.9787,12.9706,1508
328686,5.8826,-3.8128,18.0236,1509
328691,-8.3462,-0.8404,9.0381,1505
328696,-9.1435,4.5466,4.1108,1515
328701,7.0952,5.1236,10.4591,1510
328706,11.4922,-2.3547,16.8205,1501
328711,-7.4256,-0.6309,12.3206,1523
328716,-14.1414,3.2657,4.7321,1499
328721,4.2186,5.1715,7.1539,1523
328726,12.6797,0.656,16.7498,1513
328731,-6.8893,-1.8459,15.4318,1507
328736,-14.6178,1.4126,5.6312,1513
328741,1.7478,5.7521,5.4552,1506
328746,12.9239,2.9604,15.7335,1508
328751,-3.948,-3.4453,18.0343,1515
328756,-12.068,0.0072,6.6331,1507
328761,-2.5546,5.6288,3.6966,1511
328766,9.9683,4.561,14.6238,1513
328771,1.5239,-4.1731,18.2869,1501
328776,-10.5117,-0.8499,7.8135,1519
328781,-6.347,5.375,3.9385,1498
328786,8.8466,5.0182,12.3696,1525
328791,8.3187,-3.7385,17.504,1507
328796,-7.2568,-0.3603,10.0796,1506
328801,-11.8405,4.3826,3.9863,1519
328806,5.7844,4.9955,9.0345,1508
328811,11.5412,-1.2462,17.243,1502
328816,-7.2508,-1.0523,12.961,1510
328821,-13.3956,2.6647,4.9775,1503
328826,3.9947,5.4073,6.942,1525
328831,13.6673,1.2306,16.1728,1497
328836,-6.699,-2.2517,16.69,1506
328841,-14.4957,0.9445,5.8538,1511
328846,0.4298,5.4073,4.4113,1503
328851,11.7292,3.6763,15.8867,1523
328856,-2.9688,-3.6164,18.1876,1511
328861,-12.736,-0.4082,6.8714,1513
328866,-3.146,5.6719,3.966,1509
328871,10.4878,4.8518,14.1545,1506
328876,3.3818,-4.3227,18.3049,1508
328881,-8.4348,-0.5782,8.0553,1515
328886,-8.1151,5.0566,3.5314,1509
328891,7.3849,5.1236,11.4443,1519
328896,8.9316,-3.1173,17.7614,1498
328901,-7.2748,-0.808,10.4208,1506
328906,-11.625,3.8654,4.2808,1503
328911,5.8023,5.3044,8.8071,1510
328916,12.7216,-0.9505,16.7139,1513
328921,-7.3011,-1.1528,13.8876,1497
328926,-15.0236,2.3511,5.0649,1511
328931,3.0502,5.387,6.0286,1527
328936,13.0017,2.0219,16.3524,1503
328941,-6.0059,-2.5582,16.9964,1523
328946,-14.5077,0.5447,6.0394,1512
328951,-0.1508,5.7377,4.4712,1501
328956,11.8549,4.0761,15.2954,1527
328961,-1.7693,-3.9409,18.5802,1509
328966,-11.1929,-0.6105,7.0042,1515
328971,-4.3036,5.4169,3.6931,1501
328976,9.42,5.1811,13.562,1506
328981,4.5789,-4.1827,18.3037,1512
328986,-8.1475,-0.8332,8.5258,1503
328991,-8.6646,4.7585,3.7218,1495
328996,7.3298,5.3702,10.9403,1516
329001,10.1035,-2.7725,17.3963,1487
329006,-7.0569,-0.7111,11.2611,1532
329011,-13.0436,3.6356,4.397,1507
329016,5.1032,5.3427,8.0481,1509
329021,12.9191,-0.1987,16.678,1511
329026,-7.1646,-1.4557,14.7351,1503
329031,-15.0368,1.9501,5.296,1506
329036,2.563,5.5043,5.6886,1517
329041,13.0137,2.5019,16.0711,1507
329046,-5.4767,-2.8551,17.5627,1519
329051,-13.8804,0.2562,6.2991,1502
329056,-0.9242,5.6252,4.1108,1500
329061,11.3353,4.3874,15.0739,1529
329066,-0.6285,-4.0989,18.5658,1508
329071,-10.7452,-0.7302,7.2532,1529
329076,-5.0769,5.2984,3.6308,1493
329081,9.1195,5.1763,13.1549,1513
329086,5.8526,-4.0522,18.1588,1510
329091,-7.7213,-0.7051,8.9818,1503
329096,-9.8114,4.5969,3.8188,1514
329101,6.839,5.2852,10.3477,1500
329106,10.7763,-2.3858,17.279,1497
329111,-7.1479,-0.7985,11.7196,1517
329116,-13.4578,3.3483,4.6483,1501
329121,4.7621,5.3271,7.6638,1509
329126,13.1873,0.2789,16.52,1515
329131,-7.039,-1.6688,15.2379,1509
329136,-15.0655,1.6496,5.5629,1513
329141,2.0279,5.4935,5.2744,1500
329146,12.7467,2.9233,16.0352,1511
329151,-4.7058,-3.1448,17.7805,1517
329156,-13.6146,0.0347,6.4823,1511
329161,-1.6017,5.6587,3.9887,1499
329166,11.0157,4.5789,14.7986,1507
329171,0.5866,-4.1336,18.5778,1501
329176,-9.9671,-0.735,7.4735,1523
329181,-5.9125,5.2481,3.6093,1495
329186,8.6778,5.2241,12.6139,1511
329191,6.7469,-3.7601,18.0116,1501
329196,-7.6195,-0.7841,9.402,1510
329201,-10.2508,4.4281,3.9708,1515
329206,6.6559,5.2409,9.9635,1510
329211,11.3078,-1.9321,17.0539,1499
329216,-7.2257,-0.8811,12.3768,1524
329221,-13.8588,3.0382,4.6771,1507
329226,4.4221,5.3163,7.2042,1529
329231,13.1909,0.7817,16.4314,1544
329236,-6.9504,-1.8639,15.8209,1509
329241,-15.1218,1.3144,5.5761,1516
329246,1.6328,5.5186,5.0829,1513
329251,12.5899,3.2406,15.8173,1506
329256,-4.2832,-3.2836,18.0439,1519
329261,-13.2567,-0.1592,6.5876,1511
329266,-2.0458,5.5881,3.9025,1520
329271,10.7978,4.7716,14.6405,1498
329276,1.3024,-4.2521,18.4461,1499
329281,-9.5289,-0.8116,7.7069,1517
329286,-6.3494,5.1775,3.5769,1496
329291,8.4527,5.2708,12.3768,1507
329296,7.3861,-3.6775,17.8667,1501
329301,-7.531,-0.7075,9.6941,1509
329306,-10.5285,4.3024,3.9911,1517
329311,6.4057,5.3079,9.6199,1503
329316,11.801,-1.6364,17.0276,1499
329321,-7.185,-0.9385,12.7276,1523
329326,-14.4155,2.9521,4.7669,1508
329331,4.0342,5.3666,6.8151,1532
329336,13.4099,1.1169,16.5475,1501
329341,-6.7552,-2.0686,16.0663,1502
329346,-15.1433,1.16,5.7485,1513
329351,1.2234,5.551,4.8399,1507
329356,12.5672,3.5183,15.7826,1513
329361,-3.7493,-3.5147,18.2283,1512
329366,-12.7467,-0.3364,6.7014,1511
329371,-2.6061,5.5186,3.7661,1513
329376,10.5309,4.9225,14.4119,1509
329381,1.9597,-4.2593,18.5862,1497
329386,-9.2823,-0.8464,7.8254,1527
329391,-6.8821,5.0506,3.5877,1501
329396,8.2492,5.29,11.9938,1526
329401,7.9428,-3.5075,17.8763,1501
329406,-7.3167,-0.7721,9.9575,1513
329411,-11.2839,4.1623,4.1312,1509
329416,6.1675,5.3199,9.2727,1509
329421,11.9866,-1.4569,17.0,1499
329426,-7.2293,-0.9649,13.0604,1510
329431,-14.5388,2.7234,4.8411,1499
329436,3.8906,5.3905,6.6858,1544
329441,13.3142,1.3024,16.4338,1501
329446,-6.5972,-2.1189,16.417,1512
329451,-14.8656,0.9744,5.8718,1513
329456,0.9421,5.6419,4.6459,1509
329461,12.293,3.5386,15.6916,1519
329466,-3.3351,-3.547,18.2079,1499
329471,-12.7599,-0.3424,6.8151,1503
329476,-2.873,5.6767,3.8104,1509
329481,10.337,4.7872,14.2359,1503
329486,2.5498,-4.2581,18.494,1499
329491,-8.8873,-0.7649,7.993,1516
329496,-7.2484,5.1499,3.5303,1507
329501,8.0098,5.1739,11.7926,1519
329506,8.2157,-3.3148,17.7769,1496
329511,-7.3119,-0.7518,10.1849,1508
329516,-11.1797,4.0187,4.2006,1511
329521,6.0525,5.199,8.9747,1517
329526,12.2236,-1.172,16.9318,1507
329531,-7.173,-1.1444,13.4985,1509
329536,-14.6034,2.5343,4.9919,1500
329541,3.6763,5.4001,6.2776,1533
329546,13.0699,1.585,16.4877,1509
329551,-6.3315,-2.3152,16.4949,1509
329556,-14.9841,0.832,5.9496,1523
329561,0.7362,5.8,4.6232,1508
329566,12.3265,3.6787,15.6784,1527
329571,-2.8599,-3.6631,18.3324,1501
329576,-12.2152,-0.3663,6.8714,1517
329581,-3.1903,5.6958,3.6164,1513
329586,10.0006,4.889,14.0791,1500
329591,2.7557,-4.063,18.518,1509
329596,-9.262,-0.9122,8.157,1515
329601,-7.2413,5.0889,3.735,1502
329606,8.0457,5.0434,11.5532,1515
329611,8.6131,-3.1855,17.7075,1493
329616,-7.1467,-1.1648,13.5955,1511
329621,-11.6203,4.0139,4.2054,1513
329626,3.5087,5.4013,6.1603,1511
329631,12.0943,-0.9541,17.1102,1509
329636,-6.3494,-2.2996,16.5104,1501
329641,-14.2048,2.4924,5.0661,1511
329646,0.6105,5.8,4.6376,1525
329651,12.3936,3.7098,15.5432,1503
329656,-2.7797,-3.7457,18.4389,1517
329661,-11.9961,-0.3472,6.8666,1515
329666,-3.2789,5.5749,3.5793,1515
329671,9.8952,4.8447,13.957,1517
329676,2.7809,-4.1503,18.5838,1501
329681,-9.5708,-0.9589,8.1163,1501
329686,-7.0557,5.0374,3.7122,1512
329691,8.1547,5.1822,11.6646,1511
329696,8.843,-3.3399,17.7937,1507
329701,-7.2149,-0.644,10.3992,1517
329706,-11.9531,4.0618,4.027,1498
329711,5.7616,5.1966,8.6933,1513
329716,12.0572,-1.0894,17.194,1495
329721,-7.2209,-1.1732,13.4003,1511
329726,-14.1725,2.5558,4.9368,1506
329731,3.7421,5.4731,6.4799,1517
329736,13.5763,1.4186,16.3799,1507
329741,-6.5781,-2.2889,16.6289,1507
329746,-14.7794,0.8296,5.8802,1497
329751,0.6093,5.5629,4.361,1525
329756,12.0787,3.6871,15.8269,1499
329761,-3.2693,-3.5757,18.2306,1505
329766,-12.8162,-0.4549,6.8031,1513
329771,-2.9521,5.679,3.8547,1513
329776,10.6614,4.859,14.1964,1527
329781,2.6336,-4.2461,18.4401,1507
329786,-8.7747,-0.7051,8.0469,1516
329791,-7.3706,5.0589,3.5841,1514
329796,7.8793,5.1966,11.71,1497
329801,8.0589,-3.237,17.826,1503
329806,-7.5046,-0.844,10.1538,1516
329811,-10.8014,3.9911,4.2844,1497
329816,6.2309,5.2637,9.1063,1513
329821,12.2559,-1.2222,16.8851,1495
329826,-7.3119,-1.0858,13.362,1503
329831,-14.6238,2.5235,5.0051,1513
329836,3.6607,5.387,6.3195,1509
329841,13.0233,1.5407,16.5056,1509
329846,-6.5278,-2.1895,16.3931,1503
329851,-14.9829,0.8942,5.9364,1499
329856,0.8679,5.7497,4.7692,1517
329861,12.6031,3.6583,15.5623,1501
329866,-3.1975,-3.5889,18.3791,1508
329871,-12.2032,-0.4226,6.8043,1517
329876,-3.0478,5.4947,3.6919,1503
329881,10.1107,5.0063,14.1354,1517
329886,2.393,-4.0917,18.5575,1497
329891,-9.4344,-1.0092,7.9787,1515
329896,-6.875,4.9261,3.735,1515
329901,8.3606,5.3247,11.8262,1512
329906,8.5269,-3.3088,17.6752,1503
329911,-7.1479,-0.7829,10.1897,1513
329916,-11.8106,4.0079,4.0965,1501
329921,5.8502,5.4001,8.9304,1519
329926,12.2463,-0.996,16.9689,1500
329931,-7.0318,-1.1756,13.4015,1512
329936,-14.6812,2.5031,4.9129,1506
329941,3.7613,5.4863,6.5158,1516
329946,13.5308,1.6484,16.259,1509
329951,-6.596,-2.3176,16.7534,1501
329956,-15.1373,0.7937,5.8622,1507
329961,0.6644,5.4827,4.5502,1515
329966,12.2823,3.984,15.5384,1502
329971,-3.1496,-3.699,18.4964,1517
329976,-12.3876,-0.5782,6.8211,1519
329981,-3.14,5.4181,3.7505,1509
329986,10.2759,5.1822,14.0683,1527
329991,2.8096,-4.2198,18.5407,1510
329996,-8.7688,-0.8978,8.0768,1511
330001,-7.5753,4.9225,3.6284,1507
330006,7.8817,5.4145,11.6502,1501
330011,8.7293,-3.2465,17.6596,1519
330016,-7.1814,-0.7901,10.3609,1503
330021,-11.8321,3.8846,4.2341,1507
330026,5.7616,5.3582,8.8609,1543
330031,12.4439,-1.0127,16.7905,1495
330036,-7.2664,-1.172,13.6709,1519
330041,-14.8692,2.3391,5.0446,1509
330046,3.3639,5.5665,6.2692,1515
330051,13.2579,1.7861,16.2913,1514
330056,-6.371,-2.4588,16.8911,1507
330061,-14.6477,0.5746,6.0286,1511
330066,0.158,5.6778,4.6029,1527
330071,12.0345,3.9744,15.4402,1500
330076,-2.3296,-3.8056,18.3899,1531
330081,-11.5796,-0.6596,6.8965,1502
330086,-3.8547,5.4983,3.7577,1499
330091,9.8749,5.1763,13.8014,1523
330096,3.9504,-4.1611,18.2594,1506
330101,-8.2408,-0.8523,8.3079,1511
330106,-8.3199,4.792,3.8092,1497
330111,7.6339,5.4169,11.2587,1503
330116,9.6283,-2.8826,17.3268,1514
330121,-7.1395,-0.8511,10.8529,1507
330126,-12.4534,3.6344,4.4532,1501
330131,5.4971,5.4157,8.4922,1516
330136,12.9861,-0.3543,16.4637,1501
330141,-7.3203,-1.391,14.4969,1527
330146,-15.3827,1.9525,5.223,1507
330151,2.8371,5.4971,5.9292,1515
330156,13.2076,2.4696,15.9107,1511
330161,-5.9101,-2.7282,17.5004,1509
330166,-14.3628,0.2011,6.1974,1507
330171,-0.6285,5.5246,4.3958,1507
330176,11.813,4.5454,15.123,1511
330181,-1.081,-4.039,18.6484,1517
330186,-10.7703,-0.9158,7.118,1513
330191,-4.9261,5.2397,3.7038,1511
330196,9.4655,5.5115,13.3608,1520
330201,5.5138,-4.1492,17.99,1501
330206,-7.8937,-0.8894,8.9256,1524
330211,-9.7061,4.5753,3.863,1493
330216,7.1742,5.5318,10.6386,1499
330221,10.7368,-2.4948,16.9509,1507
330226,-7.2568,-0.8176,11.8058,1507
330231,-13.5093,3.2765,4.6196,1523
330236,4.8926,5.351,7.7165,1501
330241,13.0029,0.328,16.3332,1497
330246,-7.2197,-1.6915,15.3576,1522
330251,-14.9542,1.482,5.6455,1508
330256,2.1261,5.5964,5.3929,1516
330261,12.7144,2.9497,15.87,1513
330266,-4.859,-3.1125,17.7446,1511
330271,-13.562,-0.0395,6.5601,1517
330276,-1.561,5.7916,4.0821,1500
330281,10.9511,4.6364,14.7483,1499
330286,0.5531,-4.1611,18.3623,1513
330291,-9.9659,-0.6883,7.5549,1512
330296,-5.794,5.3391,3.717,1512
330301,8.5856,5.114,12.5468,1497
330306,6.6762,-3.6607,17.7817,1507
330311,-7.7476,-0.7458,9.5038,1517
330316,-9.9323,4.3802,4.1671,1497
330321,6.6307,5.1475,9.8414,1510
330326,11.3066,-1.6987,16.8971,1494
330331,-7.258,-0.9433,12.633,1501
330336,-13.5069,2.8539,4.9297,1518
330341,4.3036,5.2385,6.9611,1507
330346,12.8724,1.0558,16.3692,1506
330351,-6.8331,-2.0243,15.8891,1511
330356,-14.6298,1.0523,5.9125,1497
330361,1.4353,5.7413,5.0637,1531
330366,12.457,3.3399,15.6545,1501
330371,-3.8942,-3.4776,17.9984,1513
330376,-12.9299,-0.2466,6.6559,1516
330381,-2.3846,5.8562,3.9409,1499
330386,10.4148,4.7022,14.3844,1527
330391,1.7214,-4.1288,18.3671,1513
330396,-9.9814,-0.7997,7.8482,1510
330401,-6.4081,5.2505,3.7517,1517
330406,8.4013,5.1643,12.0632,1509
330411,7.9571,-3.383,17.5722,1503
330416,-7.3957,-0.7135,10.1263,1513
330421,-11.1905,4.1001,4.0977,1499
330426,6.1244,5.2696,9.2727,1526
330431,11.898,-1.2989,16.7965,1496
330436,-7.3885,-1.087,13.1921,1493
330441,-14.3987,2.5917,4.9201,1515
330446,3.9959,5.4468,6.8438,1514
330451,13.4003,1.2486,16.1381,1495
330456,-6.8618,-2.1811,16.4829,1500
330461,-14.8656,0.8715,5.9149,1500
330466,0.9708,5.6431,4.7345,1519
330471,12.2823,3.6763,15.6736,1511
330476,-3.5171,-3.5243,18.1061,1507
330481,-12.4259,-0.4836,6.7888,1520
330486,-2.9078,5.7281,3.9349,1511
330491,10.4615,4.9763,14.3101,1525
330496,2.4014,-4.2258,18.1121,1512
330501,-8.8346,-0.7733,8.0505,1513
330506,-7.3586,5.1655,3.7661,1508
330511,8.1056,5.223,11.9926,1509
330516,8.0948,-3.3327,17.2849,1477
330521,-7.6555,-0.8104,10.3058,1511
330526,-11.0564,3.948,4.4664,1507
330531,6.2572,5.1811,9.3087,1519
330536,12.1997,-1.1708,16.4553,1493
330541,-7.6016,-1.0942,13.611,1513
330546,-14.212,2.405,5.2601,1511
330551,3.6847,5.4169,6.4691,1512
330556,12.7527,1.7442,16.1226,1511
330561,-6.6128,-2.3571,16.5786,1507
330566,-14.5867,0.6381,6.1052,1512
330571,0.6237,5.8526,4.9249,1511
330576,12.2535,3.8954,15.2882,1513
330581,-2.5798,-3.8774,18.2486,1519
330586,-11.1546,-0.3986,6.8821,1512
330591,-3.7326,5.6575,3.7601,1508
330596,9.4547,4.8949,13.8995,1519
330601,3.2801,-4.0534,18.0523,1507
330606,-9.5876,-0.9194,8.2696,1515
330611,-7.5525,5.0925,4.0701,1479
330616,8.2396,5.1451,11.5377,1497
330621,9.6343,-3.0765,17.0431,1517
330626,-7.3873,-0.498,11.0349,1513
330631,-12.5432,3.8618,4.3958,1501
330636,5.3594,5.0793,8.3222,1511
330641,12.056,-0.4393,16.7438,1509
330646,-7.4113,-1.3264,14.0875,1529
330651,-13.6553,2.0554,5.3415,1495
330656,3.4393,5.4492,6.3003,1513
330661,13.5153,1.9561,15.8496,1507
330666,-6.0585,-2.6348,17.3041,1512
330671,-13.8983,0.4441,6.1866,1513
330676,-0.4022,5.5833,4.1887,1517
330681,11.2216,4.142,15.3373,1509
330686,-1.5778,-3.7661,18.2462,1528
330691,-12.1733,-0.6608,7.1527,1503
330696,-4.0701,5.7066,3.9672,1507
330701,10.1382,5.0578,13.465,1511
330706,4.9117,-4.1336,17.9326,1481
330711,-7.9823,-0.5638,8.8166,1503
330716,-8.9914,4.78,3.7098,1498
330721,6.9564,5.0901,10.5788,1501
330726,9.7731,-2.5067,17.4741,1483
330731,-7.3658,-0.9038,11.321,1518
330736,-11.8776,3.4668,4.5861,1511
330741,5.4971,5.29,8.1367,1503
330746,13.1897,-0.2227,16.5751,1501
330751,-7.3047,-1.4234,14.8141,1511
330756,-15.3804,1.8878,5.3403,1495
330761,2.3966,5.4312,5.3941,1513
330766,12.8605,2.6492,16.3129,1509
330771,-5.4121,-2.8192,17.4023,1500
330776,-14.2862,0.2215,6.3003,1507
330781,-0.8906,5.7413,4.2737,1499
330786,11.7483,4.3108,15.0978,1502
330791,-0.7937,-4.1025,18.4186,1525
330796,-10.6003,-0.6692,7.258,1511
330801,-5.1906,5.3247,3.6176,1493
330806,9.1315,5.1392,13.1873,1516
330811,5.284,-3.8918,18.4701,1498
330816,-7.9823,-0.9086,8.764,1525
330821,-9.1662,4.6795,3.9672,1517
330826,7.2652,5.2924,10.7272,1501
330831,10.4962,-2.5881,16.9593,1511
330836,-7.4316,-0.7123,11.546,1511
330841,-13.2136,3.3339,4.476,1519
330846,5.023,5.4205,8.0589,1509
330851,12.9071,0.073,16.4781,1495
330856,-7.3298,-1.6676,14.9159,1513
330861,-14.8165,1.6963,5.6084,1499
330866,2.3427,5.5941,5.4456,1555
330871,12.8724,2.6516,15.9705,1501
330876,-5.3558,-2.9999,17.5363,1497
330881,-13.3656,0.0599,6.4272,1516
330886,-1.2306,5.8754,4.3,1515
330891,11.1725,4.2629,15.0392,1507
330896,-0.316,-4.0893,18.2043,1523
330901,-10.4938,-0.6476,7.3358,1511
330906,-5.2912,5.5773,3.8188,1513
330911,9.165,5.102,13.1238,1511
330916,6.0597,-3.9361,17.6536,1501
330921,-7.8434,-0.571,9.25,1523
330926,-9.7336,4.6304,4.0917,1513
330931,6.9671,5.1834,10.4675,1501
330936,10.6901,-2.2709,16.7774,1551
330941,-7.6698,-0.7853,11.9806,1507
330946,-12.9646,3.1867,4.8231,1517
330951,5.0601,5.3151,7.8614,1513
330956,13.3261,0.3472,16.2219,1500
330961,-7.4041,-1.6568,15.5731,1517
330966,-14.9111,1.4281,5.618,1509
330971,2.059,5.5414,5.193,1549
330976,12.5779,3.049,15.9262,1508
330981,-4.9608,-3.0718,17.6836,1497
330986,-13.9402,-0.0491,6.4308,1523
330991,-1.5131,5.7604,4.2665,1513
330996,11.4874,4.7369,14.8381,1503
331001,0.6488,-4.2976,18.348,1517
331006,-9.4451,-0.6716,7.5369,1512
331011,-6.183,5.2301,3.5482,1513
331016,8.6311,5.3391,12.706,1512
331021,6.3734,-3.7338,17.8093,1503
331026,-8.1714,-0.9194,9.4296,1529
331031,-9.6798,4.3395,4.1922,1519
331036,7.167,5.3858,10.2568,1507
331041,11.5784,-2.0255,16.6744,1469
331046,-7.5441,-0.7542,12.5205,1513
331051,-14.1342,3.0335,4.8004,1507
331056,4.4365,5.2756,7.1204,1513
331061,12.6988,0.8464,16.4829,1495
331066,-7.1922,-1.8519,15.597,1529
331071,-14.7543,1.2534,5.7186,1511
331076,1.8914,5.6755,5.5055,1529
331081,13.0676,3.1089,15.6126,1495
331086,-4.4867,-3.4022,18.1061,1453
331091,-12.3816,-0.1951,6.5493,1520
331096,-2.1512,5.5713,3.79,1507
331101,10.4112,4.81,14.7064,1519
331106,0.729,-4.0737,18.3911,1511
331111,-10.6458,-1.0139,7.6794,1511
331116,-5.9496,5.3762,3.9145,1517
331121,9.2512,5.3223,12.6869,1498
331126,7.3586,-3.8128,17.4334,1523
331131,-7.4998,-0.6189,9.7193,1519
331136,-11.133,4.3084,3.9995,1499
331141,6.2991,5.2589,9.7049,1490
331146,10.8457,-1.5502,16.8683,1493
331151,-7.5776,-1.1504,12.6306,1501
331156,-12.973,2.642,4.9201,1512
331161,4.8902,5.5186,7.4424,1497
331166,13.3465,0.8739,15.9167,1509
331171,-7.3933,-1.9513,16.18,1511
331176,-14.4442,1.0199,5.9125,1503
331181,1.4533,5.5581,4.8602,1525
331186,11.8274,3.5291,15.8736,1507
331191,-4.2737,-3.3579,17.7793,1517
331196,-13.3573,-0.4298,6.6846,1511
331201,-1.9956,5.8873,4.2377,1499
331206,11.2539,4.8267,14.5807,1519
331211,1.33,-4.2677,18.1636,1507
331216,-8.9447,-0.7853,7.859,1507
331221,-6.8606,5.2373,3.6571,1508
331226,7.9069,5.2325,12.3876,1509
331231,6.681,-3.3327,17.3592,1507
331236,-8.1774,-1.0822,9.8665,1513
331241,-9.9671,4.1635,4.4173,1511
331246,7.2484,5.3546,10.0401,1527
331251,11.321,-1.561,16.2794,1496
331256,-7.7369,-1.0211,13.0664,1516
331261,-13.8098,2.5067,5.1858,1513
331266,4.3443,5.2529,6.9133,1509
331271,12.2176,1.4688,16.022,1503
331276,-6.9839,-2.1596,15.8568,1499
331281,-13.7726,0.7326,6.1112,1514
331286,1.9465,5.7856,5.3654,1527
331291,12.4115,3.5518,15.178,1509
331296,-4.3132,-3.4129,18.0798,1513
331301,-12.2643,-0.4585,6.7481,1517
331306,-2.217,5.8035,3.9588,1508
331311,10.064,4.9572,14.2551,1519
331316,1.1085,-3.8942,18.1696,1497
331321,-10.4028,-0.9804,7.8638,1513
331326,-6.2513,5.4624,4.1456,1511
331331,9.0297,5.3127,12.3972,1501
331336,7.3502,-3.4058,17.2323,1501
331341,-7.7201,-0.6464,9.906,1519
331346,-10.2855,4.0677,4.2401,1507
331351,6.2321,5.0135,9.4571,1515
331356,11.1306,-1.0187,16.6481,1499
331361,-7.6411,-1.1935,13.0185,1508
331366,-12.7419,2.411,5.1104,1510
331371,4.6986,5.3187,7.1299,1507
331376,13.0412,1.3431,15.9047,1509
331381,-7.3454,-2.1596,16.3835,1499
331386,-14.5448,0.8703,5.849,1511
331391,1.3779,5.63,4.8937,1531
331396,11.9387,3.7134,15.7622,1493
331401,-3.9756,-3.5518,18.1157,1501
331406,-13.1561,-0.3891,6.6655,1525
331411,-2.3104,5.9245,4.0594,1509
331416,10.7057,4.9392,14.437,1530
331421,1.8292,-4.3167,18.2666,1496
331426,-9.098,-0.6907,7.8542,1511
331431,-6.7624,5.1655,3.6224,1513
331436,8.0313,5.2325,12.1793,1497
331441,7.3682,-3.3519,17.5148,1515
331446,-8.0505,-0.9325,9.9898,1515
331451,-10.1766,3.9935,4.3419,1498
331456,6.7193,5.2014,9.5565,1525
331461,11.8417,-1.239,16.3967,1497
331466,-7.5776,-1.1181,13.477,1513
331471,-13.951,2.3727,5.1392,1509
331476,3.9061,5.2852,6.5589,1515
331481,12.3613,1.7071,16.2363,1514
331486,-6.7768,-2.387,16.1992,1501
331491,-13.8361,0.5387,5.9699,1507
331496,1.3431,5.7988,5.1655,1519
331501,12.2954,3.8355,15.2726,1507
331506,-3.4668,-3.7769,18.3516,1513
331511,-11.9124,-0.3771,6.8067,1511
331516,-2.9317,5.7054,3.6009,1495
331521,9.6103,5.0099,14.1138,1515
331526,2.1105,-4.0091,18.2749,1503
331531,-10.1311,-1.0116,7.9883,1517
331536,-6.8893,5.3451,4.0929,1499
331541,8.6514,5.2313,12.0548,1499
331546,8.4467,-3.2848,17.2263,1512
331551,-7.4496,-0.6201,10.3394,1511
331556,-11.2551,3.8882,4.2198,1507
331561,5.7664,5.041,8.8849,1513
331566,11.5257,-0.7159,16.8456,1495
331571,-7.531,-1.4054,13.5117,1512
331576,-12.9957,2.144,5.2361,1507
331581,4.2545,5.4636,6.7672,1507
331586,13.0269,1.6101,15.8975,1517
331591,-6.8929,-2.4193,16.7893,1496
331596,-14.2982,0.6907,5.9185,1502
331601,0.6704,5.7269,4.4329,1515
331606,11.6011,3.9373,15.7179,1510
331611,-3.1304,-3.7134,18.1588,1516
331616,-12.73,-0.4597,6.7588,1517
331621,-3.1161,5.9628,3.9373,1499
331626,10.4256,4.9009,14.218,1523
331631,3.0825,-4.3802,18.0762,1495
331636,-8.7269,-0.5303,8.1547,1514
331641,-7.5872,5.029,3.6679,1498
331646,7.5621,5.0613,11.7627,1501
331651,8.3414,-3.0574,17.3544,1517
331656,-8.011,-0.8224,10.5082,1511
331661,-10.6698,3.887,4.4173,1495
331666,6.462,5.0901,9.0585,1519
331671,12.2679,-0.8966,16.453,1492
331676,-7.6219,-1.1181,14.0216,1519
331681,-14.1306,2.2948,5.2361,1499
331686,3.5733,5.2996,6.0897,1512
331691,12.4307,1.9788,16.332,1523
331696,-6.3075,-2.4972,16.5834,1497
331701,-13.9103,0.5674,6.0908,1513
331706,0.6476,5.8131,4.7501,1507
331711,12.3493,3.9385,15.4055,1500
331716,-2.4457,-3.978,18.3719,1513
331721,-11.6945,-0.3962,6.8498,1507
331726,-3.7014,5.5881,3.4117,1511
331731,9.3541,5.047,14.0767,1512
331736,3.2477,-4.0761,18.1349,1493
331741,-9.9695,-0.9146,8.327,1511
331746,-7.3777,5.2038,3.9923,1499
331751,8.3342,5.0314,11.4168,1509
331756,9.238,-2.9473,17.4262,1513
331761,-7.3251,-0.5962,10.7476,1508
331766,-12.0129,3.7517,4.1958,1501
331771,5.4564,5.1116,8.4755,1515
331776,11.9243,-0.4106,16.8085,1500
331781,-7.3598,-1.4401,13.9666,1525
331786,-13.4782,1.9297,5.2481,1499
331791,3.7314,5.5689,6.2405,1515
331796,13.222,1.895,16.1106,1507
331801,-6.462,-2.6133,17.1018,1509
331806,-14.1785,0.516,6.0573,1509
331811,0.1221,5.8119,4.2641,1517
331816,11.4191,4.1025,15.5336,1507
331821,-2.4648,-3.7625,18.2953,1525
331826,-12.5743,-0.5638,6.9204,1515
331831,-3.571,6.0082,3.9217,1499
331836,10.4399,5.0135,14.0145,1523
331841,3.5446,-4.2844,18.099,1501
331846,-8.825,-0.559,8.3043,1527
331851,-7.7333,5.017,3.5985,1495
331856,7.4101,5.0446,11.3545,1499
331861,8.655,-2.9688,17.5303,1517
331866,-7.8446,-0.82,10.6135,1515
331871,-10.7548,3.7661,4.385,1499
331876,6.1902,5.2265,9.0034,1517
331881,12.3493,-0.9948,16.6229,1501
331886,-7.7369,-1.1181,13.9366,1523
331891,-14.3113,2.2984,5.0147,1501
331896,3.4333,5.448,6.1758,1513
331901,12.9191,1.6879,16.5368,1517
331906,-6.5015,-2.3798,16.6229,1500
331911,-14.3796,0.7207,5.946,1509
331916,0.6871,5.8742,4.7274,1511
331921,12.3852,3.6069,15.627,1509
331926,-2.9772,-3.7721,18.1085,1525
331931,-12.1063,-0.2861,6.7576,1510
331936,-3.2262,5.8083,3.6571,1509
331941,9.985,4.78,14.2012,1523
331946,2.484,-4.1743,18.2498,1501
331951,-9.9395,-0.8021,8.023,1517
331956,-7.0569,5.3091,3.8738,1509
331961,8.5365,5.102,11.9124,1501
331966,8.2408,-3.3279,17.4777,1515
331971,-7.6243,-0.6285,10.3609,1503
331976,-10.8685,3.9983,4.2294,1500
331981,6.0346,5.0637,9.0237,1525
331986,11.4622,-1.0307,16.8707,1492
331991,-7.6195,-1.2438,13.2459,1517
331996,-12.7108,2.2697,5.1164,1515
332001,4.3491,5.363,6.8043,1509
332006,13.0388,1.3886,16.0543,1514
332011,-7.1216,-2.3607,16.5655,1509
332016,-14.1737,0.6716,5.8945,1494
332021,1.002,5.6551,4.6723,1519
332026,11.7184,3.6955,15.7215,1503
332031,-3.9169,-3.5314,17.9362,1519
332036,-12.5301,-0.5459,6.772,1519
332041,-2.5558,5.9388,4.1527,1508
332046,10.8002,4.8806,14.3664,1516
332051,1.5502,-4.1851,18.1026,1513
332056,-9.2273,-0.6608,7.8614,1516
332061,-6.7253,5.2936,3.7134,1501
332066,7.9918,5.0757,12.2416,1498
332071,6.9061,-3.1891,17.3927,1505
332076,-8.3857,-0.8176,9.9335,1518
332081,-9.894,4.2533,4.4221,1503
332086,7.1144,5.114,9.7851,1516
332091,11.3737,-1.4688,16.3883,1493
332096,-7.8458,-0.8236,13.0292,1507
332101,-13.2004,2.6372,5.0075,1515
332106,4.4269,5.053,6.9635,1507
332111,12.615,1.3396,16.3823,1509
332116,-7.0689,-2.0327,15.9586,1501
332121,-13.9271,0.9888,5.8526,1503
332126,1.9297,5.6324,5.2026,1528
332131,12.6581,3.3698,15.6988,1501
332136,-4.2904,-3.2825,17.9314,1513
332141,-12.9419,-0.1018,6.5721,1517
332146,-1.9776,5.7676,3.8116,1497
332151,10.3681,4.6663,14.5304,1525
332156,1.0223,-3.9492,18.3982,1501
332161,-10.6853,-0.6907,7.6794,1508
332166,-5.9137,5.4851,3.784,1518
332171,8.8274,4.8507,12.3972,1500
332176,7.1814,-3.5937,17.8536,1511
332181,-7.7524,-0.3891,9.5529,1511
332186,-10.1562,4.4592,3.9397,1509
332191,6.1483,4.7537,9.6127,1525
332196,11.2623,-1.7298,17.4609,1502
332201,-7.5369,-0.8464,12.3984,1511
332206,-12.9514,3.0299,4.6831,1512
332211,4.3742,5.0841,7.1838,1513
332216,13.4817,0.5255,16.7462,1500
332221,-7.1766,-1.8256,15.7718,1503
332226,-14.7495,1.5107,5.4899,1502
332231,1.5479,5.4588,4.8782,1523
332236,12.4415,2.8335,16.332,1502
332241,-4.4101,-3.1328,17.7434,1503
332246,-13.8409,0.1676,6.3794,1499
332251,-1.8555,5.8562,4.0725,1507
332256,11.2803,4.1767,14.8632,1517
332261,1.0953,-4.209,18.4497,1497
332266,-9.6127,-0.3244,7.6291,1513
332271,-6.1806,5.3965,3.4453,1509
332276,8.1463,4.64,12.5145,1500
332281,6.4141,-3.5494,18.0379,1498
332286,-8.6778,-0.6967,9.3422,1514
332291,-9.3637,4.4712,4.0582,1499
332296,6.9444,4.6819,9.8773,1486
332301,11.5101,-1.998,17.1736,1497
332306,-7.5573,-0.5507,12.5851,1509
332311,-13.6027,3.1615,4.6471,1519
332316,4.0175,4.7728,6.7696,1491
332321,12.4259,0.8404,17.2071,1497
332326,-6.9492,-1.7238,15.2475,1507
332331,-13.6015,1.4928,5.7197,1514
332336,1.9848,5.4648,5.2517,1517
332341,13.0161,2.7138,16.1656,1497
332346,-4.5203,-3.0885,17.5315,1501
332351,-12.3373,0.3268,6.5505,1517
332356,-2.0806,5.7329,3.7074,1485
332361,10.1598,3.9516,14.8536,1524
332366,0.6189,-3.9157,17.9314,1516
332371,-10.817,-0.3639,7.7716,1507
332376,-6.0944,5.8371,3.966,1514
332381,9.4068,4.3155,12.6414,1497
332386,6.3674,-3.8104,17.5303,1502
332391,-8.6526,-0.1317,9.5301,1519
332396,-9.8581,4.6807,4.3048,1503
332401,6.5314,4.0019,9.7049,1513
332406,10.3813,-1.6795,17.3771,1487
332411,-8.0685,-0.5818,12.2511,1513
332416,-11.9698,3.0897,5.2074,1533
332421,5.2337,4.5633,7.2209,1517
332426,12.6091,0.5866,16.6158,1515
332431,-7.4029,-1.3384,15.3408,1517
332436,-13.2196,1.4437,5.8909,1517
332441,2.1141,5.0661,5.1463,1531
332446,12.2595,3.0466,16.0352,1497
332451,-4.7848,-2.6659,17.522,1499
332456,-12.8569,0.0371,6.6391,1517
332461,-1.4605,5.6647,4.1563,1497
332466,11.2001,4.4353,14.613,1511
332471,0.3962,-3.7038,18.2833,1510
332476,-10.72,-0.5782,7.5465,1513
332481,-5.5258,5.3558,3.8116,1508
332486,8.4132,4.6938,12.3637,1507
332491,6.4201,-3.1448,17.8703,1508
332496,-8.2289,-0.7661,9.5158,1511
332501,-9.1722,4.1827,4.1216,1497
332506,6.5817,4.6938,9.7396,1513
332511,11.0983,-1.2857,16.9414,1492
332516,-7.2437,-0.9732,12.6282,1525
332521,-12.9909,2.6911,4.8926,1515
332526,4.3766,4.7681,6.9695,1544
332531,12.5456,1.2534,16.4781,1497
332536,-6.9887,-1.8603,15.5886,1507
332541,-13.6266,0.9912,5.9233,1505
332546,2.1153,5.2936,5.1894,1541
332551,12.7108,3.3926,15.785,1503
332556,-4.3646,-2.9604,17.7734,1509
332561,-12.8784,-0.0371,6.7624,1511
332566,-1.6652,5.5474,3.8595,1499
332571,10.5477,4.4209,14.5137,1512
332576,0.3328,-3.4477,18.0702,1509
332581,-11.3796,-0.7769,7.8578,1496
332586,-5.7485,5.4324,4.0773,1517
332591,9.6199,4.7992,12.3445,1507
332596,6.4248,-3.3926,17.7063,1508
332601,-8.5736,-0.3352,9.4918,1527
332606,-9.2213,4.2784,4.0462,1509
332611,5.9197,4.1515,9.402,1515
332616,10.7069,-1.0163,17.4406,1494
332621,-7.8087,-0.8116,12.1649,1481
332626,-11.8932,2.9425,4.9117,1519
332631,4.7477,4.5226,7.3502,1507
332636,13.532,0.832,16.5296,1519
332641,-7.7285,-1.4796,15.5372,1498
332646,-14.9111,1.5945,5.521,1499
332651,1.8184,4.9704,5.0326,1527
332656,12.7395,2.9389,16.3392,1503
332661,-4.9704,-2.7809,17.5363,1507
332666,-13.7511,0.3352,6.3518,1509
332671,-1.1672,5.6563,4.1276,1513
332676,11.7005,3.9851,14.9961,1497
332681,-0.0347,-3.7373,18.233,1511
332686,-10.8637,-0.1939,7.4555,1511
332691,-5.2481,5.4815,3.5853,1519
332696,8.8849,4.2892,12.8569,1507
332701,5.685,-3.4788,18.1433,1497
332706,-8.8334,-0.3855,9.092,1531
332711,-8.8071,4.7321,3.899,1494
332716,7.2077,4.3407,10.1706,1497
332721,10.9834,-2.1799,17.5184,1505
332726,-7.5717,-0.2334,11.88,1499
332731,-13.1909,3.6488,4.4963,1517
332736,4.5454,4.5298,7.3574,1511
332741,13.5225,-0.0084,17.3616,1499
332746,-7.2413,-1.0283,14.8369,1481
332751,-15.2523,2.247,5.2481,1507
332756,2.2589,5.0087,5.4959,1529
332761,13.9558,2.3511,16.5739,1509
332766,-5.0865,-2.5271,17.6381,1510
332771,-14.4334,0.5866,6.2429,1515
332776,-1.2905,5.1164,3.802,1497
332781,11.7053,4.2365,15.1613,1498
332786,-0.1149,-3.8475,18.5467,1519
332791,-10.7488,-0.4968,7.4855,1509
332796,-5.5905,5.2062,3.4884,1513
332801,9.4188,4.7645,13.0436,1499
332806,5.7688,-3.9169,18.0032,1512
332811,-8.3234,-0.5231,9.2644,1513
332816,-9.9168,4.7896,4.0007,1503
332821,7.185,4.4412,10.1526,1493
332826,10.2604,-2.4002,17.3292,1471
332831,-7.6878,-0.5698,12.0009,1507
332836,-12.5193,3.5662,5.0314,1513
332841,5.2613,4.5406,7.4903,1489
332846,12.1709,-0.1413,16.8372,1492
332851,-7.3873,-1.2294,14.5867,1515
332856,-12.7767,1.9872,5.9735,1497
332861,2.903,5.1272,5.4205,1529
332866,12.5995,1.8052,16.2315,1507
332871,-4.8997,-2.5271,16.6146,1497
332876,-12.4534,0.7314,6.8223,1515
332881,-1.0965,5.7868,4.2018,1495
332886,11.2432,3.3088,14.9817,1507
332891,-0.7889,-3.3998,17.2478,1512
332896,-10.9403,-0.097,7.9069,1507
332901,-5.0302,5.9017,4.1731,1497
332906,10.2807,3.9816,13.0448,1500
332911,4.719,-3.7757,17.2909,1497
332916,-10.2376,-0.1041,9.2668,1530
332921,-9.0405,5.2924,4.3826,1496
332926,7.8111,4.0749,10.3394,1507
332931,9.2416,-2.5762,17.03,1513
332936,-9.4894,-0.2562,11.3856,1507
332941,-11.4275,4.0019,5.1404,1513
332946,6.2321,4.5777,8.0613,1502
332951,12.3888,-0.9158,16.6768,1485
332956,-8.1092,-0.6321,14.3892,1525
332961,-13.1549,2.3798,5.6563,1501
332966,2.9293,4.853,5.7329,1517
332971,12.7024,1.5359,16.441,1515
332976,-5.6599,-2.2182,16.429,1493
332981,-12.9826,1.0163,6.5278,1572
332986,-0.3675,5.6946,4.6232,1496
332991,11.7531,3.0394,15.4222,1502
332996,-1.6712,-3.6392,17.1604,1513
333001,-11.3294,0.2693,7.4304,1511
333006,-4.6124,6.0932,4.0534,1515
333011,9.8857,3.7218,13.7738,1516
333016,3.9851,-4.203,17.1485,1503
333021,-9.4619,0.146,8.9459,1529
333026,-8.5832,5.6707,4.3347,1495
333031,8.1714,4.027,11.2312,1499
333036,8.9435,-3.3734,16.8145,1509
333041,-8.661,0.1317,11.1354,1507
333046,-11.412,4.4209,4.9811,1511
333051,6.1399,4.3455,8.5724,1510
333056,12.226,-1.3886,16.593,1499
333061,-7.7991,-0.5423,13.8816,1527
333066,-13.2854,2.7138,5.7736,1491
333071,3.4345,4.8949,6.2249,1513
333076,12.8545,1.1289,16.1968,1505
333081,-6.0406,-2.0315,16.1453,1500
333086,-13.4985,1.172,6.5206,1497
333091,-0.0251,5.6958,4.859,1507
333096,12.2272,2.9772,15.2235,1503
333101,-1.8292,-3.5446,17.3783,1523
333106,-11.3389,0.2418,7.3203,1516
333111,-4.2341,5.9472,4.0582,1491
333116,9.754,3.8978,13.6458,1517
333121,3.6224,-4.0103,17.425,1507
333126,-9.8438,-0.0886,8.7352,1515
333131,-8.1451,5.4169,4.2485,1489
333136,8.2552,4.2306,11.3605,1501
333141,9.4367,-3.4931,16.8528,1507
333146,-8.1271,0.0658,11.2312,1507
333151,-12.1889,4.1958,4.7585,1503
333156,5.4504,4.452,8.5808,1511
333161,11.8728,-1.0906,16.5583,1499
333166,-7.7596,-1.0008,13.9007,1527
333171,-13.398,2.5857,5.6743,1459
333176,3.7074,5.1044,6.4608,1509
333181,13.2806,1.1672,15.7826,1509
333186,-5.8143,-2.2505,16.429,1501
333191,-12.9706,1.142,6.6427,1523
333196,-0.2741,5.7628,4.5466,1503
333201,11.2611,2.9137,15.2499,1499
333206,-1.5467,-3.4836,16.9545,1531
333211,-11.2767,0.3124,7.8123,1491
333216,-3.978,6.3351,4.2545,1503
333221,10.6303,3.4943,13.5452,1515
333226,3.4309,-4.2689,17.0443,1507
333231,-10.7428,0.2861,8.9759,1531
333236,-8.2169,5.9209,4.4724,1495
333241,8.4276,3.8223,10.9008,1501
333246,8.5222,-3.6691,17.1868,1511
333251,-9.4355,0.2167,10.8996,1506
333256,-10.744,4.8483,4.9907,1503
333261,6.4009,4.3179,8.3486,1507
333266,11.8968,-1.9118,17.109,1491
333271,-8.4898,-0.1006,13.3692,1515
333276,-12.141,3.3232,5.5833,1495
333281,3.6368,4.9117,6.1758,1515
333286,13.5739,0.1891,16.9629,1511
333291,-6.3578,-1.4653,16.0412,1507
333296,-14.0779,1.9896,5.9436,1507
333301,0.0395,5.7533,4.5574,1509
333306,12.3098,2.0877,16.0304,1513
333311,-2.49,-3.4872,17.4968,1527
333316,-12.9838,0.8715,6.8618,1510
333321,-3.3782,6.2034,3.9444,1501
333326,10.5369,3.3639,14.2455,1511
333331,3.4261,-4.6711,17.8057,1495
333336,-9.6259,0.4094,8.3534,1507
333341,-7.6543,5.8718,3.7709,1493
333346,7.744,4.0378,11.6322,1500
333351,8.6586,-4.1611,17.7638,1516
333356,-8.5198,-0.0156,10.4974,1501
333361,-10.9571,4.9907,4.3754,1512
333366,6.1603,4.6388,8.8992,1524
333371,12.4163,-2.308,17.1293,1493
333376,-7.4831,-0.6261,13.4674,1507
333381,-13.7176,3.5123,5.1894,1515
333386,3.6081,4.9991,6.2345,1513
333391,12.9443,0.4513,16.8372,1511
333396,-6.2704,-1.9261,15.7766,1498
333401,-13.5225,1.8076,6.1304,1516
333406,0.9708,5.6324,4.9392,1523
333411,13.1837,2.5917,15.6629,1511
333416,-3.2238,-3.4955,17.7243,1509
333421,-12.5205,0.5507,6.9324,1522
333426,-2.7785,5.9233,3.7792,1507
333431,9.9659,3.705,14.1761,1519
333436,1.6101,-4.2713,17.9673,1498
333441,-11.6813,-0.2753,8.1271,1516
333446,-6.1363,5.8167,4.0737,1503
333451,9.3649,4.4329,12.0871,1498
333456,7.5944,-4.4436,17.5471,1495
333461,-8.5629,0.1556,10.1718,1524
333466,-10.325,5.0194,4.0881,1507
333471,5.7509,4.2737,9.2715,1509
333476,10.8338,-2.2589,17.4633,1503
333481,-8.242,-0.6572,12.4175,1501
333486,-11.8597,3.7637,5.0506,1527
333491,5.0494,4.8686,7.4208,1513
333496,13.562,-0.3615,16.4673,1500
333501,-7.519,-1.2821,15.3121,1508
333506,-14.4622,2.1715,5.7616,1501
333511,1.822,5.211,5.278,1525
333516,12.7336,2.2853,16.0005,1497
333521,-5.1116,-2.8623,17.0946,1513
333526,-13.8026,0.5531,6.6643,1513
333531,-0.8918,5.6898,4.6112,1509
333536,12.3122,3.9696,14.5687,1501
333541,-0.814,-4.1073,17.9122,1515
333546,-11.0337,-0.2646,7.5729,1511
333551,-4.6711,5.4983,4.0079,1511
333556,9.2656,4.8722,12.9215,1499
333561,4.4089,-3.8894,17.7063,1499
333566,-9.5325,-0.9002,9.1075,1519
333571,-8.0242,4.8758,4.4017,1501
333576,8.1714,5.2804,10.9798,1499
333581,9.7444,-2.9892,16.4817,1513
333586,-8.0816,-0.5495,11.546,1501
333591,-12.6103,3.6859,4.798,1510
333596,5.4779,5.1415,8.5377,1517
333601,12.3876,-0.6045,15.8855,1487
333606,-8.0756,-1.2055,14.3257,1517
333611,-14.3485,2.132,5.5617,1500
333616,3.7745,5.3451,6.8019,1503
333621,13.6601,1.6065,15.0152,1515
333626,-7.0186,-2.0363,16.8827,1501
333631,-13.9091,0.4106,6.4272,1497
333636,0.7159,5.3522,5.0518,1519
333641,12.0955,3.8595,14.7447,1509
333646,-3.4345,-3.2046,17.6692,1533
333651,-12.3301,-0.68,7.3023,1515
333656,-2.7282,5.5964,4.5322,1508
333661,11.0923,5.1619,13.6589,1529
333666,1.8471,-3.9564,17.5423,1511
333671,-9.1411,-0.8882,8.5653,1500
333676,-6.8474,5.1176,4.2641,1499
333681,8.3175,5.3307,11.8298,1507
333686,6.6906,-3.2489,16.7762,1513
333691,-8.6945,-0.996,10.3453,1519
333696,-9.8306,4.1946,4.8387,1501
333701,7.2269,5.193,9.8126,1528
333706,11.2013,-1.8423,15.8604,1491
333711,-8.0888,-0.7661,13.1418,1496
333716,-13.3022,2.7222,5.436,1523
333721,4.476,4.9955,7.3646,1502
333726,12.548,0.9577,15.597,1496
333731,-7.677,-1.7202,15.6114,1516
333736,-13.8205,1.2019,6.1543,1503
333741,2.4313,5.4516,5.8981,1519
333746,13.1142,2.9736,14.9458,1499
333751,-5.5988,-2.8419,17.5375,1509
333756,-12.6402,-0.1089,6.7445,1511
333761,-1.0906,5.5761,4.47,1497
333766,11.0636,4.6448,14.3915,1515
333771,-0.9756,-3.8439,17.7997,1510
333776,-10.9547,-0.8224,7.7153,1513
333781,-4.7692,5.6,4.3132,1509
333786,9.9826,5.2541,13.058,1513
333791,4.8052,-4.1551,17.176,1501
333796,-8.4827,-0.6237,9.2129,1527
333801,-8.8107,4.8578,4.2988,1501
333806,7.3119,5.0554,10.8302,1507
333811,9.3733,-2.6049,16.5272,1507
333816,-8.254,-0.7949,11.6035,1513
333821,-11.4958,3.5733,4.9368,1511
333826,6.0382,5.1404,8.691,1517
333831,12.8796,-0.668,15.6054,1493
333836,-8.1427,-0.9816,14.6441,1527
333841,-14.5184,1.9656,5.5809,1505
333846,3.4297,5.114,6.4536,1509
333851,13.1202,2.071,15.4785,1525
333856,-6.8235,-2.1093,16.8205,1487
333861,-14.5555,0.4405,6.2908,1509
333866,0.7135,5.3738,5.1523,1511
333871,12.9682,4.118,14.8129,1498
333876,-3.0071,-3.3866,18.1397,1518
333881,-11.4096,-0.6333,7.1778,1515
333886,-3.2597,5.1942,4.1001,1515
333891,10.4363,5.3439,13.7918,1515
333896,2.3224,-3.9145,17.8787,1507
333901,-9.9982,-1.1839,8.4695,1502
333906,-6.754,4.7609,4.136,1511
333911,8.8645,5.6767,11.8824,1497
333916,8.2277,-3.5111,16.9186,1527
333921,-7.9835,-0.7207,10.5273,1501
333926,-11.734,4.0821,4.4149,1507
333931,6.3051,5.2792,9.2979,1513
333936,11.6023,-1.3946,16.3536,1485
333941,-7.9918,-1.0451,13.2435,1519
333946,-13.6948,2.7354,5.2421,1515
333951,4.476,5.278,7.3382,1511
333956,13.5931,0.8392,15.6174,1505
333961,-7.4974,-1.7298,16.0962,1511
333966,-13.9881,1.0666,6.0956,1513
333971,1.658,5.3247,5.2349,1524
333976,12.3098,3.2932,15.2882,1497
333981,-4.8076,-3.0299,17.4633,1499
333986,-13.149,-0.1712,6.869,1519
333991,-1.3898,5.5486,4.6244,1509
333996,11.8477,4.6088,14.2419,1507
334001,-0.0766,-4.0294,17.8536,1515
334006,-9.894,-0.6692,7.8374,1511
334011,-5.5964,5.1894,4.0582,1501
334016,9.1315,5.1703,12.6976,1497
334021,5.3846,-3.7852,17.2179,1496
334026,-8.8693,-0.8966,9.5888,1516
334031,-9.0225,4.5442,4.4388,1495
334036,7.7776,5.363,10.7631,1511
334041,10.4686,-2.7282,16.1417,1508
334046,-8.2708,-0.5411,12.0919,1499
334051,-13.0711,3.4752,4.8375,1516
334056,5.3834,5.1751,8.2217,1507
334061,12.6414,-0.2143,15.8592,1486
334066,-8.0517,-1.1744,14.7782,1529
334071,-14.3868,1.986,5.6072,1507
334076,3.3722,5.3834,6.4452,1509
334081,13.6996,2.0614,15.1721,1518
334086,-6.6128,-2.2386,17.1138,1501
334091,-13.5967,0.322,6.3853,1509
334096,0.2322,5.357,4.7453,1499
334101,12.0883,4.0977,14.8536,1507
334106,-2.6468,-3.4764,17.8835,1527
334111,-12.1099,-0.6991,7.3251,1503
334116,-3.207,5.4037,4.3167,1502
334121,10.8625,5.0673,13.5189,1515
334126,2.8778,-4.0917,17.6177,1501
334131,-8.9759,-0.7266,8.7508,1513
334136,-7.4627,5.0374,4.0893,1500
334141,8.0601,5.1116,11.5855,1501
334146,7.6004,-3.1029,16.9761,1525
334151,-8.5174,-0.9361,10.72,1502
334156,-10.3585,4.0857,4.7345,1493
334161,6.772,5.1631,9.3398,1514
334166,11.9626,-1.555,15.9705,1501
334171,-8.1379,-0.7075,13.544,1503
334176,-13.9582,2.7414,5.3199,1507
334181,4.1312,5.0302,6.9743,1503
334186,12.9179,1.2115,15.7694,1516
334191,-7.3813,-1.7657,15.8951,1499
334196,-14.3951,1.1983,6.0968,1499
334201,1.8842,5.3486,5.6036,1531
334206,13.3944,3.1759,15.05,1507
334211,-4.8231,-3.0514,17.7099,1511
334216,-12.3792,-0.1784,6.8702,1519
334221,-1.6735,5.3522,4.2772,1501
334226,10.8721,4.7274,14.3281,1527
334231,-0.1317,-3.8415,17.8368,1515
334236,-11.0421,-0.9266,7.9859,1509
334241,-5.1487,5.3427,4.209,1506
334246,9.7731,5.4229,12.7324,1503
334251,5.6707,-3.9361,17.1197,1514
334256,-8.2923,-0.6177,9.6223,1523
334261,-9.5541,4.6184,4.2904,1506
334266,7.0258,5.1619,10.4387,1500
334271,9.7624,-2.32,16.4398,1501
334276,-8.2001,-0.905,12.0309,1500
334281,-11.9507,3.3519,4.9584,1511
334286,5.7473,5.1643,8.4156,1501
334291,12.9706,-0.4238,15.5659,1497
334296,-8.1894,-1.1779,15.0057,1523
334301,-14.3221,1.8603,5.685,1511
334306,3.1436,5.2038,6.0633,1507
334311,12.8066,2.4289,15.4402,1510
334316,-6.456,-2.3284,17.0168,1509
334321,-14.0061,0.3328,6.4847,1499
334326,0.431,5.5462,4.9668,1509
334331,12.5779,4.2054,14.6334,1511
334336,-2.7031,-3.553,18.0295,1518
334341,-11.2001,-0.6812,7.2437,1513
334346,-3.3483,5.3846,4.0618,1501
334351,9.8485,5.266,13.6074,1511
334356,2.5295,-3.8547,17.7482,1509
334361,-9.8785,-1.1552,8.6095,1519
334366,-6.8869,4.9404,4.2437,1496
334371,8.7436,5.4684,11.7256,1512
334376,8.3139,-3.3782,16.617,1507
334381,-8.0421,-0.6812,10.8026,1509
334386,-11.3844,3.972,4.5957,1496
334391,6.1052,5.1834,9.25,1528
334396,11.394,-1.0678,16.1249,1495
334401,-8.1283,-1.1791,13.4434,1515
334406,-13.1633,2.6013,5.3654,1505
334411,4.6567,5.217,7.3358,1507
334416,13.6314,1.1037,15.275,1511
334421,-7.5717,-1.8316,16.4182,1509
334426,-14.2012,0.9637,6.1064,1491
334431,1.6712,5.3391,5.1523,1525
334436,12.22,3.565,15.1721,1498
334441,-4.707,-3.1292,17.6357,1513
334446,-13.2447,-0.322,6.9085,1516
334451,-1.4724,5.6288,4.5203,1499
334456,11.7424,4.9177,14.188,1516
334461,0.2071,-4.0917,17.9182,1507
334466,-9.7085,-0.7542,7.9607,1517
334471,-5.7102,5.2014,4.0019,1515
334476,8.6562,5.3127,12.5839,1511
334481,5.4959,-3.6368,17.17,1508
334486,-8.9148,-1.0582,9.7097,1519
334491,-8.9376,4.4999,4.4544,1495
334496,7.7345,5.4384,10.6889,1501
334501,10.6362,-2.5522,16.0364,1495
334506,-8.2827,-0.668,12.384,1503
334511,-13.1142,3.2226,4.962,1527
334516,5.1559,5.1044,7.9559,1510
334521,12.3816,0.1389,15.7886,1503
334526,-8.0002,-1.4126,14.9494,1517
334531,-14.0647,1.7226,5.776,1501
334536,3.2705,5.3941,6.371,1517
334541,13.5177,2.2984,15.1038,1512
334546,-6.4476,-2.4337,17.2071,1495
334551,-13.2148,0.1712,6.5936,1547
334556,-0.0215,5.4552,4.6819,1503
334561,11.6059,4.282,14.7124,1509
334566,-2.3679,-3.5243,17.7518,1513
334571,-11.9375,-0.7829,7.4627,1512
334576,-3.3986,5.5258,4.3754,1509
334581,10.7823,5.2744,13.4638,1511
334586,3.1496,-4.0953,17.3843,1501
334591,-8.855,-0.7446,8.7364,1523
334596,-7.665,4.9656,4.197,1498
334601,7.9069,5.2553,11.461,1509
334606,7.9476,-3.0095,16.7175,1507
334611,-8.4384,-0.9146,10.8218,1517
334616,-10.5668,3.9576,4.7932,1508
334621,6.7074,5.2493,9.3865,1511
334626,12.0979,-1.4174,15.7658,1500
334631,-8.2612,-0.8164,13.8098,1512
334636,-14.0013,2.5702,5.4265,1503
334641,4.1647,5.1224,6.9408,1507
334646,12.8964,1.3084,15.597,1515
334651,-7.3167,-1.8914,16.0854,1507
334656,-14.2347,1.0882,6.128,1501
334661,1.8435,5.4145,5.5665,1516
334666,13.216,3.2417,14.9075,1497
334671,-4.561,-3.1675,17.7231,1515
334676,-12.2032,-0.1269,6.948,1516
334681,-1.8268,5.4887,4.2162,1507
334686,10.6722,4.7405,14.2168,1517
334691,0.2658,-3.9433,17.7434,1498
334696,-11.1271,-0.8464,8.0349,1503
334701,-5.3008,5.4408,4.1887,1509
334706,9.8366,5.2373,12.6522,1507
334711,6.0406,-4.0438,17.0814,1496
334716,-8.3653,-0.4609,9.8892,1519
334721,-9.6319,4.6747,4.2928,1495
334726,6.8342,4.9213,10.2663,1477
334731,9.9383,-2.2278,16.5583,1511
334736,-8.3965,-0.9038,12.1518,1514
334741,-11.716,3.4895,4.9309,1512
334746,5.679,5.1056,8.2504,1513
334751,13.1394,-0.3591,15.7515,1483
334756,-8.1463,-1.1672,15.0523,1527
334761,-14.3868,1.9656,5.6084,1501
334766,2.9688,5.1691,5.9113,1516
334771,12.8497,2.332,15.6497,1509
334776,-6.3159,-2.466,16.9198,1502
334781,-14.133,0.5626,6.4356,1513
334786,0.413,5.5222,4.9931,1500
334791,12.7084,4.0187,14.7842,1509
334796,-2.545,-3.6799,17.9709,1527
334801,-11.1582,-0.4106,7.2329,1501
334806,-3.4872,5.4791,3.9899,1503
334811,9.8366,4.9572,13.5524,1511
334816,2.5833,-4.045,17.6632,1499
334821,-10.1754,-0.911,8.594,1524
334826,-6.8785,5.1858,4.2605,1487
334831,8.8777,5.3271,11.7675,1505
334836,8.2073,-3.638,16.6744,1516
334841,-8.242,-0.4896,10.7691,1509
334846,-11.218,4.2114,4.604,1496
334851,6.128,4.9919,9.2572,1528
334856,11.2396,-1.3455,16.2075,1495
334861,-8.2181,-1.0403,13.3249,1502
334866,-12.9538,2.7677,5.3702,1505
334871,4.7872,5.193,7.4412,1513
334876,13.4794,0.6967,15.3169,1509
334881,-7.7907,-1.664,16.1046,1503
334886,-13.9355,1.1181,6.1531,1510
334891,1.8735,5.3199,5.4923,1529
334896,12.3002,3.2429,15.1565,1502
334901,-4.9835,-3.0598,17.3795,1509
334906,-13.0532,-0.1341,6.9252,1511
334911,-1.0953,5.6192,4.628,1507
334916,11.9159,4.6627,14.1856,1529
334921,-0.3974,-4.0378,17.6896,1519
334926,-10.1742,-0.6105,7.9523,1513
334931,-5.1607,5.4468,4.1432,1509
334936,8.9579,5.1344,12.7264,1499
334941,4.7154,-3.7541,17.0695,1495
334946,-9.3613,-0.9146,9.572,1527
334951,-8.4467,4.8111,4.5969,1491
334956,8.1259,5.272,10.7727,1508
334961,9.6546,-2.794,16.1465,1501
334966,-8.3426,-0.5507,12.0297,1485
334971,-11.9554,3.5362,5.1212,1515
334976,5.4947,4.9069,8.3881,1503
334981,11.9578,-0.3172,15.7874,1491
334986,-8.163,-1.2474,14.4358,1517
334991,-13.1861,2.065,5.788,1495
334996,3.948,5.2433,6.6655,1511
335001,13.398,1.7502,15.1302,1513
335006,-7.0437,-2.1021,16.8552,1507
335011,-13.6422,0.595,6.4548,1515
335016,0.7697,5.4588,4.9297,1513
335021,11.9519,3.8762,14.856,1513
335026,-3.5195,-3.3902,17.662,1519
335031,-12.5013,-0.4405,7.2149,1501
335036,-2.4505,5.6958,4.4819,1508
335041,11.1989,4.9572,13.8373,1524
335046,1.5886,-4.1994,17.5974,1499
335051,-9.5062,-0.6704,8.4048,1513
335056,-6.5493,5.266,4.124,1515
335061,8.3127,5.1296,12.0189,1508
335066,6.4787,-3.4991,16.9007,1518
335071,-8.9555,-0.8751,10.2723,1520
335076,-9.6079,4.4604,4.6256,1499
335081,7.5178,5.2601,10.0796,1516
335086,10.9355,-2.247,15.9801,1495
335091,-8.3713,-0.6057,12.882,1553
335096,-12.9287,3.0873,5.1918,1527
335101,4.9356,4.9955,7.5585,1513
335106,12.4175,0.5004,15.6892,1497
335111,-7.9092,-1.5335,15.3337,1513
335116,-13.7068,1.6161,5.9544,1506
335121,3.0155,5.3247,6.0537,1516
335126,13.392,2.5247,15.0787,1501
335131,-6.1507,-2.6276,17.2598,1499
335136,-13.2016,0.1879,6.5912,1512
335141,-0.322,5.4444,4.5873,1493
335146,11.5424,4.373,14.6848,1498
335151,-2.0423,-3.699,17.7686,1511
335156,-11.9147,-0.6752,7.5226,1513
335161,-3.6691,5.5318,4.3371,1503
335166,10.6123,5.2816,13.3166,1511
335171,3.5997,-4.2186,17.3053,1507
335176,-9.0106,-0.668,8.9818,1518
335181,-7.8841,4.9859,4.1875,1501
335186,7.7668,5.2194,11.3485,1489
335191,8.1965,-3.0502,16.6409,1515
335196,-8.6981,-0.8894,11.1067,1506
335201,-10.6243,4.0103,4.7609,1509
335206,6.681,5.2445,9.2835,1507
335211,12.0728,-1.4006,15.7024,1492
335216,-8.4084,-0.8511,13.8983,1519
335221,-13.7164,2.5762,5.4815,1503
335226,4.1815,5.1296,6.954,1503
335231,12.73,1.312,15.5635,1516
335236,-7.4148,-1.9393,16.0795,1565
335241,-14.0037,1.069,6.1639,1509
335246,1.9225,5.4624,5.6084,1518
335251,13.1825,3.2896,14.8812,1502
335256,-4.7321,-3.1017,17.7422,1520
335261,-12.1302,-0.2011,6.9324,1513
335266,-1.6975,5.527,4.3191,1507
335271,10.7057,4.7441,14.1892,1523
335276,-0.0132,-3.9648,17.6836,1499
335281,-11.0073,-0.8416,8.017,1517
335286,-5.1176,5.4576,4.3275,1503
335291,9.9264,5.4037,12.7683,1501
335296,5.5701,-4.1444,16.9881,1501
335301,-8.6838,-0.5698,9.7492,1519
335306,-9.256,4.6591,4.3215,1497
335311,7.2556,5.2182,10.5489,1507
335316,9.645,-2.4852,16.3165,1509
335321,-8.4874,-0.8595,12.0261,1513
335326,-11.74,3.5099,4.9763,1519
335331,5.9448,5.2325,8.5449,1499
335336,12.7587,-0.6381,15.512,1503
335341,-8.3989,-1.1085,14.8285,1519
335346,-14.0647,2.0147,5.6802,1497
335351,3.4189,5.1775,6.2752,1507
335356,12.9167,2.0818,15.3839,1508
335361,-6.8486,-2.3188,16.702,1510
335366,-13.9223,0.5698,6.4165,1509
335371,0.8942,5.5581,5.1846,1532
335376,12.7982,3.899,14.6669,1500
335381,-3.4129,-3.5733,17.771,1524
335386,-11.5257,-0.3819,7.2353,1507
335391,-2.824,5.5689,4.2018,1511
335396,10.2185,5.023,13.811,1513
335401,1.5143,-4.0701,17.6477,1501
335406,-10.4124,-0.8871,8.4384,1511
335411,-6.2991,5.3283,4.3706,1511
335416,9.2919,5.3846,12.1458,1508
335421,6.9204,-3.8894,16.702,1519
335426,-8.4647,-0.516,10.3705,1511
335431,-10.1514,4.3586,4.5969,1503
335436,6.6056,5.1032,9.8904,1517
335441,10.3848,-1.8783,16.1465,1494
335446,-8.4898,-0.9421,12.8413,1517
335451,-12.2272,3.043,5.2613,1517
335456,5.4743,5.2361,7.9104,1513
335461,13.064,0.067,15.3504,1503
335466,-8.2708,-1.3384,15.5444,1511
335471,-14.0145,1.5455,5.9412,1506
335476,2.7126,5.3175,5.8814,1529
335481,12.6294,2.6635,15.2247,1497
335486,-6.0968,-2.6528,17.1341,1509
335491,-13.4937,0.2083,6.6068,1513
335496,-0.0407,5.6479,4.8985,1514
335501,12.4068,4.3359,14.4789,1499
335506,-2.0853,-3.8559,17.8188,1553
335511,-10.7955,-0.5543,7.5094,1517
335516,-3.9648,5.4899,4.0869,1501
335521,9.6977,5.1655,13.362,1513
335526,3.0227,-4.1037,17.3101,1511
335531,-9.8198,-0.9194,8.8837,1517
335536,-7.3777,5.1344,4.4269,1495
335541,8.8262,5.4253,11.6442,1508
335546,8.3079,-3.5494,16.4601,1515
335551,-8.436,-0.5052,11.0337,1508
335556,-11.1606,4.0654,4.6795,1506
335561,6.2165,5.0697,9.1985,1511
335566,11.3066,-1.3467,15.9957,1495
335571,-8.4025,-1.0367,13.4746,1515
335576,-12.8353,2.7114,5.4109,1503
335581,4.7692,5.2565,7.3502,1501
335586,13.4099,0.7817,15.3432,1511
335591,-7.859,-1.7298,16.1214,1495
335596,-14.03,1.142,6.1555,1503
335601,1.9261,5.3774,5.5019,1519
335606,12.5109,3.213,15.1505,1507
335611,-5.1511,-3.0514,17.4322,1507
335616,-13.2471,-0.0946,6.8163,1527
335621,-1.008,5.6731,4.7369,1507
335626,12.0117,4.6795,14.2263,1513
335631,-0.5698,-4.1073,17.8141,1515
335636,-10.2843,-0.656,7.7931,1517
335641,-4.9237,5.381,4.0677,1509
335646,9.2572,5.302,12.8712,1496
335651,4.5562,-3.8906,17.2837,1509
335656,-9.4248,-0.9517,9.3458,1517
335661,-8.187,4.7968,4.4077,1496
335666,8.2696,5.4289,11.0313,1508
335671,9.5325,-3.0933,16.2339,1507
335676,-8.3677,-0.5938,11.8034,1511
335681,-11.977,3.6835,4.8291,1511
335686,5.7497,5.1128,8.6012,1509
335691,11.8453,-0.6656,15.858,1487
335696,-8.2361,-1.2103,14.2778,1527
335701,-13.2603,2.3044,5.5713,1497
335706,4.1611,5.2852,6.8283,1503
335711,13.5811,1.4545,15.2163,1507
335716,-7.3071,-2.0016,16.7331,1504
335721,-13.8912,0.7638,6.268,1502
335726,1.1372,5.4169,4.9799,1517
335731,12.226,3.7362,15.0523,1513
335736,-4.1192,-3.31,17.6979,1523
335741,-12.9706,-0.3328,7.0701,1509
335746,-1.895,5.6096,4.4903,1497
335751,11.6346,4.9967,13.9905,1523
335756,0.838,-4.3179,17.7303,1506
335761,-9.8138,-0.6345,8.1798,1509
335766,-5.952,5.2637,4.0043,1511
335771,8.6706,5.2672,12.4235,1506
335776,5.7736,-3.7685,17.0288,1493
335781,-9.2249,-0.8703,9.8869,1517
335786,-9.0297,4.6316,4.5442,1509
335791,7.7632,5.3175,10.4806,1519
335796,10.5046,-2.6767,16.1226,1493
