timestamp_ms,ax,ay,az,acs_adc,rpm
19299,1.7561,3.5721,10.155,1447,2872.05
19304,0.8811,1.9321,11.3689,1443,2872.05
19309,-2.3152,-1.4641,12.4498,1447,2872.05
19314,-4.1001,1.4988,9.657,1455,2871.91
19319,1.4078,3.3854,9.8869,1447,2871.91
19324,2.1081,2.6911,11.1007,1443,2871.91
19329,-1.6664,-1.0139,12.548,1437,2871.91
19334,-4.5885,0.8978,10.2783,1453,2871.91
19339,0.8871,3.0981,9.5517,1453,2872.88
19344,2.5618,3.3435,10.811,1440,2872.88
19349,-1.4892,-0.2897,12.4331,1445,2872.88
19354,-4.5777,0.1401,10.9463,1446,2872.88
19359,0.0383,2.8611,9.2703,1459,2872.74
19364,2.3212,3.7697,10.6063,1443,2872.74
19369,-1.6209,0.3699,12.2128,1435,2872.74
19374,-4.276,-0.6165,11.5628,1445,2872.74
19379,-1.063,2.5295,8.9938,1464,2872.74
19384,2.1093,3.8858,10.4339,1437,2872.74
19389,-1.3216,0.9673,11.9411,1447,2872.74
19394,-3.5841,-1.1229,11.9854,1447,2872.74
19399,-2.3367,2.2589,9.0309,1466,2872.88
19404,1.9166,3.7924,10.3334,1449,2872.88
19409,-0.0922,1.4988,11.6514,1445,2872.88
19414,-2.7892,-1.5347,12.3565,1451,2872.88
19419,-3.48,1.8375,9.2919,1467,2872.46
19424,1.7274,3.547,10.1023,1443,2872.46
19429,1.3779,2.1739,11.3066,1454,2872.46
19434,-2.0626,-1.4162,12.5516,1439,2872.46
19439,-4.3551,1.3096,9.7923,1439,2872.46
19444,1.2486,3.237,9.7827,1455,2872.6
19449,2.3176,2.8826,10.9918,1447,2872.6
19454,-1.5826,-0.8799,12.487,1443,2872.6
19459,-4.7345,0.6273,10.5249,1450,2872.6
19464,0.6393,2.9975,9.5193,1451,2872.6
19469,2.5103,3.4536,10.7536,1445,2872.6
19474,-1.6149,-0.079,12.3481,1443,2872.6
19479,-4.5095,-0.0634,11.0983,1445,2872.6
19484,-0.3256,2.7892,9.1506,1459,2872.46
19489,2.3056,3.8511,10.4818,1447,2872.46
19494,-1.5658,0.65,12.1494,1439,2872.46
19499,-4.0618,-0.7973,11.7184,1449,2872.46
19504,-1.4437,2.4864,8.9651,1467,2872.88
19509,2.0506,3.8523,10.3825,1443,2872.88
19514,-0.978,1.1061,11.8501,1447,2872.88
19519,-3.3878,-1.3288,12.1254,1446,2872.88
19524,-2.7054,2.1201,9.0908,1465,2873.01
19529,1.7933,3.6679,10.2615,1450,2873.01
19534,0.3986,1.6903,11.552,1445,2873.01
19539,-2.5666,-1.5263,12.4271,1450,2873.01
19544,-3.802,1.6867,9.4751,1469,2873.01
19549,1.5167,3.4177,9.997,1445,2873.01
19554,1.7753,2.4541,11.1977,1451,2873.01
19559,-1.8962,-1.2306,12.4738,1446,2873.01
19564,-4.5083,1.1768,10.0054,1451,2873.01
19569,1.1121,3.2034,9.675,1451,2873.56
19574,2.4493,3.0981,10.92,1445,2873.56
19579,-1.5694,-0.5626,12.4834,1445,2873.56
19584,-4.7369,0.4094,10.6291,1443,2873.56
19589,0.3424,2.9006,9.323,1449,2873.84
19594,2.4325,3.5961,10.653,1451,2873.84
19599,-1.6053,0.1472,12.2775,1439,2873.84
19604,-4.4137,-0.3376,11.3365,1443,2873.84
19609,-0.6476,2.654,9.0525,1454,2873.84
19614,2.1668,3.893,10.4112,1435,2873.84
19619,-1.5036,0.7554,12.0105,1443,2873.84
19624,-3.9373,-1.0068,11.8321,1445,2873.84
19629,-1.8687,2.3906,9.0202,1465,2873.84
19634,2.053,3.8654,10.3322,1453,2873.84
19639,-0.6369,1.245,11.7519,1443,2873.84
19644,-3.1077,-1.4138,12.2595,1445,2873.84
19649,-3.0095,2.0423,9.1913,1449,2873.56
19654,1.7825,3.6416,10.167,1451,2873.56
19659,0.8775,1.913,11.4012,1447,2873.56
19664,-2.2889,-1.5287,12.4415,1447,2873.56
19669,-4.0247,1.5574,9.56,1455,2874.39
19674,1.4808,3.286,9.9072,1445,2874.39
19679,2.0614,2.5594,11.1534,1445,2874.39
19684,-1.7358,-1.1444,12.4929,1440,2874.39
19689,-4.6459,0.9457,10.2077,1453,2874.39
19694,0.8918,3.1053,9.5589,1453,2874.39
19699,2.4804,3.2274,10.7931,1447,2874.39
19704,-1.5119,-0.3675,12.5528,1447,2874.39
19709,-4.7178,0.2526,10.8553,1447,2874.39
19714,0.1544,2.9221,9.2045,1463,2874.53
19719,2.4205,3.7589,10.5967,1447,2874.53
19724,-1.6712,0.328,12.2918,1440,2874.53
19729,-4.3036,-0.4872,11.4263,1447,2874.53
19734,-0.9182,2.6252,8.9627,1464,2874.66
19739,2.1524,3.8774,10.422,1445,2874.66
19744,-1.4162,0.8416,11.9614,1449,2874.66
19749,-3.6488,-1.1289,11.904,1449,2874.66
19754,-2.1859,2.2877,8.9483,1469,2874.53
19759,1.9477,3.79,10.2915,1452,2874.53
19764,-0.2693,1.3934,11.7244,1445,2874.53
19769,-2.9329,-1.5071,12.2787,1447,2874.53
19774,-3.3842,1.9154,9.2739,1465,2874.53
19779,1.749,3.5542,10.1167,1447,2874.53
19784,1.227,2.0423,11.4431,1455,2874.53
19789,-2.2027,-1.421,12.4534,1439,2874.53
19794,-4.2545,1.4198,9.7444,1446,2874.53
19799,1.3647,3.3124,9.8605,1452,2874.39
19804,2.2733,2.8216,11.0564,1451,2874.39
19809,-1.6436,-0.8703,12.5013,1443,2874.39
19814,-4.6531,0.7913,10.3525,1453,2874.39
19819,0.7135,3.061,9.4918,1455,2874.94
19824,2.5295,3.377,10.7967,1445,2874.94
19829,-1.5323,-0.2083,12.4032,1439,2874.94
19834,-4.6866,0.0311,10.9559,1448,2874.94
19839,-0.1161,2.7593,9.1997,1461,2874.8
19844,2.3511,3.7996,10.5716,1449,2874.8
19849,-1.6472,0.4262,12.1925,1439,2874.8
19854,-4.2353,-0.6452,11.6382,1451,2874.8
19859,-1.2163,2.563,9.0321,1467,2875.08
19864,2.1189,3.9301,10.4136,1444,2875.08
19869,-1.2498,1.0295,11.9207,1449,2875.08
19874,-3.5542,-1.1732,12.0273,1445,2875.08
19879,-2.4409,2.2362,9.0381,1468,2875.08
19884,1.9441,3.7565,10.2376,1445,2875.08
19889,0.0838,1.6125,11.6155,1443,2875.08
19894,-2.7402,-1.5024,12.3792,1452,2875.08
19899,-3.5781,1.8112,9.3338,1459,2875.08
19904,1.6676,3.4524,10.0173,1443,2875.08
19909,1.5143,2.1751,11.2839,1451,2875.08
19914,-2.0806,-1.4305,12.4882,1447,2875.08
19919,-4.4161,1.2258,9.845,1447,2875.08
19924,1.2067,3.1903,9.7576,1449,2874.66
19929,2.3499,2.9209,11.0325,1444,2874.66
19934,-1.6293,-0.7673,12.5336,1443,2874.66
19939,-4.7573,0.6153,10.4639,1443,2874.66
19944,0.6081,3.0299,9.3948,1449,2875.35
19949,2.5295,3.5506,10.6889,1449,2875.35
19954,-1.6113,-0.0204,12.384,1445,2875.35
19959,-4.5801,-0.0335,11.1701,1445,2875.35
19964,-0.3388,2.7869,9.1147,1461,2875.22
19969,2.2709,3.8559,10.5058,1448,2875.22
19974,-1.5239,0.6057,12.123,1439,2875.22
19979,-4.1001,-0.814,11.6526,1449,2875.22
19984,-1.4533,2.4768,9.0046,1467,2875.22
19989,2.059,3.8571,10.3848,1447,2875.22
19994,-0.9948,1.1037,11.8022,1439,2875.22
19999,-3.3878,-1.3443,12.1218,1443,2875.22
20004,-2.745,2.1416,9.0968,1471,2875.22
20009,1.834,3.7302,10.2915,1451,2875.22
20014,0.3819,1.6831,11.6023,1445,2875.22
20019,-2.5929,-1.4772,12.3924,1450,2875.22
20024,-3.8439,1.7346,9.4355,1467,2875.35
20029,1.5502,3.4548,10.0281,1445,2875.35
20034,1.7861,2.3715,11.2755,1451,2875.35
20039,-1.9369,-1.2402,12.5157,1447,2875.35
20044,-4.5119,1.2055,10.0173,1455,2875.35
20049,1.1109,3.1903,9.6738,1451,2875.49
20054,2.5151,3.0682,10.9307,1443,2875.49
20059,-1.5359,-0.668,12.4331,1447,2875.49
20064,-4.7142,0.4537,10.6255,1443,2875.49
20069,0.3867,2.8934,9.3266,1455,2875.49
20074,2.5127,3.547,10.7176,1449,2875.49
20079,-1.5826,0.0503,12.3146,1448,2875.49
20084,-4.4987,-0.243,11.2456,1461,2875.49
20089,-0.5662,2.6887,9.0537,1459,2875.35
20094,2.2278,3.8583,10.5237,1449,2875.35
20099,-1.6173,0.6835,12.0799,1445,2875.35
20104,-3.9732,-0.893,11.8034,1439,2875.35
20109,-1.7059,2.4409,8.983,1467,2875.22
20114,2.0818,3.8918,10.3573,1449,2875.22
20119,-0.7159,1.2198,11.8262,1444,2875.22
20124,-3.2681,-1.3671,12.1757,1444,2875.22
20129,-2.9604,2.0423,9.104,1455,2875.08
20134,1.8639,3.5997,10.1825,1450,2875.08
20139,0.723,1.7657,11.4287,1449,2875.08
20144,-2.4421,-1.5431,12.3936,1448,2875.08
20149,-4.0043,1.549,9.5265,1459,2875.35
20154,1.5191,3.3591,9.9527,1447,2875.35
20159,1.9944,2.5295,11.1318,1445,2875.35
20164,-1.8268,-1.1133,12.4989,1445,2875.35
20169,-4.5909,1.0511,10.0928,1453,2875.35
20174,0.9972,3.1675,9.669,1453,2875.22
20179,2.5247,3.2489,10.8601,1443,2875.22
20184,-1.579,-0.4238,12.4774,1445,2875.22
20189,-4.7046,0.3651,10.7404,1445,2875.22
20194,0.2753,2.9269,9.2608,1463,2874.94
20199,2.4696,3.6847,10.5955,1446,2874.94
20204,-1.6197,0.2801,12.2835,1439,2874.94
20209,-4.4077,-0.3855,11.4072,1447,2874.94
20214,-0.7685,2.6097,9.0549,1455,2874.94
20219,2.1919,3.8738,10.4507,1443,2874.94
20224,-1.4186,0.7793,12.0129,1451,2874.94
20229,-3.8271,-1.1145,11.8645,1450,2874.94
20234,-2.0147,2.3463,8.9615,1466,2874.8
20239,1.9836,3.8032,10.3322,1453,2874.8
20244,-0.4741,1.3228,11.7615,1446,2874.8
20249,-3.1149,-1.47,12.2655,1449,2874.8
20254,-3.1711,1.9992,9.2308,1465,2874.53
20259,1.798,3.6691,10.1191,1445,2874.53
20264,1.0319,2.0435,11.4407,1453,2874.53
20269,-2.2901,-1.4425,12.4427,1440,2874.53
20274,-4.1456,1.506,9.6486,1443,2874.53
20279,1.4353,3.3303,9.906,1455,2873.84
20284,2.1668,2.6408,11.1043,1449,2873.84
20289,-1.6783,-1.0379,12.4558,1443,2873.84
20294,-4.6184,0.8643,10.2113,1451,2873.84
20299,0.8164,3.0538,9.5217,1453,2873.56
20304,2.5199,3.3124,10.8182,1445,2873.56
20309,-1.5071,-0.3364,12.408,1437,2873.56
20314,-4.6843,0.1185,10.8936,1445,2873.56
20319,-0.0144,2.7869,9.25,1460,2873.29
20324,2.3822,3.7529,10.6159,1447,2873.29
20329,-1.6209,0.4334,12.2392,1437,2873.29
20334,-4.312,-0.4944,11.5137,1451,2873.29
20339,-1.1013,2.6157,9.0597,1471,2873.29
20344,2.1201,3.9385,10.4639,1445,2873.29
20349,-1.2965,0.9996,11.9124,1448,2873.29
20354,-3.559,-1.1624,11.9411,1447,2873.29
20359,-2.3439,2.247,9.0321,1469,2873.56
20364,1.9513,3.7445,10.3058,1443,2873.56
20369,0.0096,1.482,11.6334,1445,2873.56
20374,-2.8527,-1.5467,12.2463,1453,2873.56
20379,-3.5279,1.8256,9.3027,1467,2873.7
20384,1.6712,3.4608,10.1406,1443,2873.7
20389,1.397,2.1237,11.3198,1459,2873.7
20394,-2.0877,-1.4246,12.463,1447,2873.7
20399,-4.3718,1.3084,9.8557,1451,2873.7
20404,1.2893,3.2549,9.8474,1449,2873.98
20409,2.3571,2.9233,11.0636,1445,2873.98
20414,-1.64,-0.759,12.5324,1445,2873.98
20419,-4.7118,0.6967,10.4531,1445,2873.98
20424,0.6309,3.067,9.4966,1451,2874.39
20429,2.569,3.5195,10.6614,1448,2874.39
20434,-1.5455,-0.0467,12.4199,1447,2874.39
20439,-4.5394,-0.073,11.0804,1446,2874.39
20444,-0.2346,2.7485,9.1399,1460,2874.66
20449,2.3403,3.7613,10.5141,1449,2874.66
20454,-1.664,0.5124,12.1566,1443,2874.66
20459,-4.1084,-0.7865,11.643,1449,2874.66
20464,-1.4605,2.4421,8.9854,1467,2874.66
20469,2.0674,3.8523,10.4459,1447,2874.66
20474,-1.0762,1.0678,11.9195,1445,2874.66
20479,-3.486,-1.2869,12.0931,1443,2874.66
20484,-2.6923,2.1811,9.0094,1465,2874.94
20489,1.8854,3.7924,10.2639,1452,2874.94
20494,0.2442,1.67,11.5748,1445,2874.94
20499,-2.63,-1.4605,12.3469,1451,2874.94
20504,-3.729,1.7633,9.3984,1471,2874.53
20509,1.652,3.486,10.0269,1447,2874.53
20514,1.7741,2.3331,11.3449,1449,2874.53
20519,-1.9249,-1.2857,12.4247,1443,2874.53
20524,-4.5179,1.1684,9.9276,1459,2874.53
20529,1.1803,3.1759,9.6977,1453,2874.94
20534,2.4804,2.9808,10.9918,1444,2874.94
20539,-1.573,-0.7242,12.5013,1449,2874.94
20544,-4.7285,0.4752,10.5919,1445,2874.94
20549,0.4166,2.9544,9.3541,1451,2874.53
20554,2.4301,3.6212,10.6853,1451,2874.53
20559,-1.6316,0.0826,12.3301,1447,2874.53
20564,-4.5574,-0.1724,11.1941,1445,2874.53
20569,-0.5064,2.7198,9.1171,1447,2874.39
20574,2.296,3.899,10.5093,1448,2874.39
20579,-1.6173,0.7242,12.0835,1446,2874.39
20584,-3.9624,-0.8835,11.7926,1449,2874.39
20589,-1.6975,2.4325,9.0142,1465,2874.94
20594,2.0387,3.8164,10.3298,1454,2874.94
20599,-0.7087,1.1552,11.7519,1446,2874.94
20604,-3.2034,-1.4246,12.1326,1445,2874.94
20609,-2.9892,2.0171,9.1051,1459,2875.08
20614,1.8088,3.6009,10.258,1450,2875.08
20619,0.7434,1.7514,11.5245,1450,2875.08
20624,-2.4888,-1.5407,12.4391,1440,2875.08
20629,-4.0079,1.6532,9.5289,1447,2875.08
20634,1.5299,3.4058,9.9707,1455,2875.08
20639,1.9537,2.5031,11.218,1451,2875.08
20644,-1.8806,-1.1372,12.5468,1443,2875.08
20649,-4.6017,1.0846,10.0952,1453,2875.08
20654,1.0092,3.1723,9.645,1453,2874.94
20659,2.5594,3.1436,10.884,1446,2874.94
20664,-1.5263,-0.4453,12.4678,1447,2874.94
20669,-4.6878,0.316,10.8026,1446,2874.94
20674,0.2011,2.9245,9.2273,1459,2874.66
20679,2.4696,3.6332,10.635,1447,2874.66
20684,-1.6173,0.2179,12.2799,1439,2874.66
20689,-4.3958,-0.4573,11.3808,1449,2874.66
20694,-0.8176,2.6228,9.0309,1467,2874.39
20699,2.1895,3.8642,10.4495,1447,2874.39
20704,-1.4808,0.7865,12.0728,1451,2874.39
20709,-3.8559,-1.057,11.886,1445,2874.39
20714,-1.9788,2.3619,9.0333,1468,2874.25
20719,2.0087,3.8714,10.4184,1450,2874.25
20724,-0.4788,1.336,11.7603,1446,2874.25
20729,-3.0598,-1.4222,12.2858,1453,2874.25
20734,-3.1879,1.9992,9.2021,1467,2874.39
20739,1.8399,3.6152,10.1813,1443,2874.39
20744,1.1181,1.9393,11.4395,1459,2874.39
20749,-2.2482,-1.4605,12.4223,1445,2874.39
20754,-4.1551,1.506,9.6474,1447,2874.39
20759,1.4222,3.31,9.8713,1453,2874.25
20764,2.2003,2.6576,11.1211,1451,2874.25
20769,-1.7023,-1.0558,12.4834,1440,2874.25
20774,-4.7154,0.8667,10.2352,1449,2874.25
20779,0.8595,3.0526,9.5768,1451,2874.25
20784,2.5187,3.3435,10.8505,1449,2874.25
20789,-1.6245,-0.2873,12.4606,1443,2874.25
20794,-4.7094,0.1879,10.9247,1444,2874.25
20799,0.0347,2.9353,9.2356,1463,2874.53
20804,2.4205,3.7984,10.556,1447,2874.53
20809,-1.67,0.4154,12.2404,1443,2874.53
20814,-4.2784,-0.4812,11.4515,1453,2874.53
20819,-1.0223,2.6276,9.0082,1470,2874.53
20824,2.1739,3.8678,10.4411,1449,2874.53
20829,-1.2989,0.9086,11.9351,1449,2874.53
20834,-3.6021,-1.1911,11.91,1445,2874.53
20839,-2.3331,2.2146,8.9711,1469,2874.25
20844,1.901,3.7445,10.319,1451,2874.25
20849,-0.1125,1.4401,11.637,1445,2874.25
20854,-2.8276,-1.5311,12.2763,1459,2874.25
20859,-3.5255,1.883,9.3158,1463,2874.25
20864,1.658,3.5135,10.1466,1443,2874.25
20869,1.3886,2.1272,11.4191,1453,2874.25
20874,-2.1081,-1.3575,12.4822,1446,2874.25
20879,-4.3383,1.3611,9.7504,1452,2874.25
20884,1.2929,3.292,9.8007,1450,2874.25
20889,2.3463,2.8838,11.0121,1444,2874.25
20894,-1.6041,-0.7985,12.5181,1440,2874.25
20899,-4.7034,0.7147,10.4172,1444,2874.25
20904,0.6249,3.0382,9.4942,1450,2874.39
20909,2.5833,3.4369,10.7045,1453,2874.39
20914,-1.5754,-0.1006,12.3541,1453,2874.39
20919,-4.5945,-0.1353,11.0624,1447,2874.39
20924,-0.2658,2.7414,9.1219,1455,2874.11
20929,2.3044,3.7828,10.5285,1449,2874.11
20934,-1.6209,0.4812,12.1793,1445,2874.11
20939,-4.215,-0.7374,11.6406,1447,2874.11
20944,-1.4114,2.5438,8.9699,1465,2874.39
20949,2.0614,3.9145,10.4279,1448,2874.39
20954,-1.1229,1.0762,11.892,1447,2874.39
20959,-3.4261,-1.2198,12.1314,1443,2874.39
20964,-2.6133,2.1811,9.1171,1453,2874.39
20969,1.9597,3.7781,10.258,1449,2874.39
20974,0.3448,1.6173,11.5724,1449,2874.39
20979,-2.6444,-1.5107,12.3876,1451,2874.39
20984,-3.699,1.7442,9.4164,1471,2874.53
20989,1.6305,3.4764,9.997,1446,2874.53
20994,1.7142,2.2877,11.2468,1444,2874.53
20999,-1.9357,-1.3288,12.5013,1437,2874.53
21004,-4.44,1.1899,9.9503,1455,2874.53
21009,1.0942,3.1615,9.6905,1455,2874.8
21014,2.4026,3.0191,10.975,1445,2874.8
21019,-1.6185,-0.6764,12.4798,1447,2874.8
21024,-4.7908,0.5878,10.5644,1446,2874.8
21029,0.4932,2.9868,9.4068,1455,2874.94
21034,2.5187,3.5961,10.6877,1449,2874.94
21039,-1.7131,0.0646,12.3254,1439,2874.94
21044,-4.4867,-0.146,11.2516,1445,2874.94
21049,-0.5423,2.7545,9.0908,1466,2874.66
21054,2.2817,3.8451,10.4842,1447,2874.66
21059,-1.5766,0.6776,12.0931,1449,2874.66
21064,-3.9492,-0.9134,11.722,1447,2874.66
21069,-1.6867,2.4241,8.8981,1467,2874.66
21074,2.0207,3.8104,10.3501,1453,2874.66
21079,-0.7578,1.1564,11.7795,1444,2874.66
21084,-3.2178,-1.403,12.1326,1447,2874.66
21089,-2.9449,2.071,9.1638,1465,2874.25
21094,1.7825,3.6607,10.2627,1444,2874.25
21099,0.6752,1.7765,11.5125,1449,2874.25
21104,-2.4481,-1.5095,12.3828,1443,2874.25
21109,-3.9875,1.6448,9.5265,1447,2874.25
21114,1.5634,3.4285,9.9886,1454,2874.25
21119,2.0111,2.5079,11.2456,1448,2874.25
21124,-1.8124,-1.1049,12.4906,1444,2874.25
21129,-4.5586,1.0307,10.1131,1453,2874.25
21134,1.0199,3.1687,9.657,1454,2874.39
21139,2.5343,3.1735,10.8565,1443,2874.39
21144,-1.5071,-0.4741,12.3876,1443,2874.39
21149,-4.7082,0.3005,10.7188,1447,2874.39
21154,0.243,2.8886,9.2332,1461,2874.8
21159,2.4157,3.6452,10.6578,1446,2874.8
21164,-1.634,0.1532,12.2703,1437,2874.8
21169,-4.4293,-0.4166,11.3629,1453,2874.8
21174,-0.7901,2.6408,9.0537,1460,2875.49
21179,2.1919,3.9073,10.4375,1443,2875.49
21184,-1.5119,0.7781,12.0632,1448,2875.49
21189,-3.8259,-1.0199,11.959,1447,2875.49
21194,-1.9297,2.3739,9.0154,1459,2875.9
21199,2.0339,3.8439,10.3286,1447,2875.9
21204,-0.4405,1.3048,11.7567,1445,2875.9
21209,-3.0011,-1.4641,12.2487,1453,2875.9
21214,-3.1496,1.9513,9.1901,1455,2875.9
21219,1.8172,3.6164,10.1885,1444,2875.9
21224,1.0558,1.8926,11.4694,1459,2875.9
21229,-2.2805,-1.5131,12.4618,1447,2875.9
21234,-4.1001,1.5335,9.5936,1447,2875.9
21239,1.4006,3.3507,9.9036,1455,2876.18
21244,2.1428,2.6217,11.1151,1447,2876.18
21249,-1.7669,-1.087,12.5097,1443,2876.18
21254,-4.6771,0.9553,10.246,1449,2876.18
21259,0.905,3.0718,9.5349,1453,2876.46
21264,2.5558,3.2801,10.8493,1445,2876.46
21269,-1.561,-0.3053,12.4379,1446,2876.46
21274,-4.7106,0.2741,10.8613,1445,2876.46
21279,0.1065,2.9161,9.2093,1459,2876.59
21284,2.4948,3.7314,10.5728,1448,2876.59
21289,-1.6472,0.3232,12.287,1445,2876.59
21294,-4.3155,-0.4681,11.4503,1451,2876.59
21299,-0.9661,2.6576,8.9878,1461,2876.59
21304,2.1835,3.863,10.4375,1447,2876.59
21309,-1.3084,0.814,11.9387,1449,2876.59
21314,-3.7014,-1.1564,11.9375,1447,2876.59
21319,-2.2051,2.308,8.9818,1470,2876.46
21324,1.9668,3.7912,10.3705,1449,2876.46
21329,-0.2466,1.3743,11.6921,1443,2876.46
21334,-2.9748,-1.4736,12.2703,1455,2876.46
21339,-3.3926,1.9525,9.232,1460,2876.18
21344,1.7358,3.6236,10.1347,1445,2876.18
21349,1.2462,1.998,11.3832,1449,2876.18
21354,-2.2182,-1.3647,12.487,1447,2876.18
21359,-4.2437,1.4868,9.6941,1451,2876.18
21364,1.4138,3.3363,9.839,1453,2875.77
21369,2.2984,2.709,11.133,1439,2875.77
21374,-1.6712,-0.9529,12.463,1448,2875.77
21379,-4.6926,0.8284,10.3298,1445,2875.77
21384,0.7506,3.0311,9.4511,1449,2876.46
21389,2.557,3.3232,10.7955,1448,2876.46
21394,-1.5826,-0.2705,12.4163,1445,2876.46
21399,-4.6938,0.0754,10.9666,1448,2876.46
21404,-0.0527,2.8311,9.1877,1453,2875.9
21409,2.3571,3.7828,10.568,1449,2875.9
21414,-1.7119,0.4142,12.1841,1445,2875.9
21419,-4.2653,-0.5686,11.5712,1446,2875.9
21424,-1.1073,2.5582,8.9902,1467,2875.77
21429,2.15,3.9121,10.4112,1440,2875.77
21434,-1.2833,0.9601,11.9566,1444,2875.77
21439,-3.6057,-1.1612,12.0057,1445,2875.77
21444,-2.3559,2.2482,9.0022,1465,2875.63
21449,1.9872,3.7493,10.2651,1449,2875.63
21454,-0.0096,1.4545,11.6669,1443,2875.63
21459,-2.7521,-1.5287,12.293,1451,2875.63
21464,-3.5303,1.8256,9.3075,1479,2875.77
21469,1.6436,3.5183,10.0999,1445,2875.77
21474,1.4545,2.1775,11.394,1449,2875.77
21479,-2.1308,-1.4389,12.4894,1444,2875.77
21484,-4.4197,1.3647,9.7887,1458,2875.77
21489,1.2809,3.2441,9.748,1447,2875.63
21494,2.3762,2.9018,11.0229,1444,2875.63
21499,-1.6987,-0.8583,12.4977,1447,2875.63
21504,-4.7704,0.7398,10.398,1446,2875.63
21509,0.6871,3.0933,9.4954,1448,2875.63
21514,2.5798,3.4824,10.7464,1449,2875.63
21519,-1.5897,-0.1101,12.4032,1447,2875.63
21524,-4.5669,-0.0096,11.0588,1447,2875.63
21529,-0.2239,2.8204,9.1363,1455,2875.63
21534,2.3296,3.8259,10.5165,1448,2875.63
21539,-1.5802,0.5028,12.1997,1447,2875.63
21544,-4.1623,-0.7254,11.6957,1447,2875.63
21549,-1.3874,2.5067,8.9304,1464,2875.63
21554,2.0973,3.863,10.3801,1453,2875.63
21559,-1.0882,1.008,11.9315,1445,2875.63
21564,-3.4955,-1.3156,12.0632,1444,2875.63
21569,-2.5869,2.1895,9.0369,1471,2875.35
21574,1.9046,3.7314,10.3226,1448,2875.35
21579,0.2861,1.6017,11.5676,1447,2875.35
21584,-2.636,-1.4892,12.3385,1447,2875.35
21589,-3.7062,1.7801,9.432,1455,2874.53
21594,1.6173,3.4884,10.0736,1447,2874.53
21599,1.731,2.2529,11.2599,1450,2874.53
21604,-1.9992,-1.2989,12.4498,1443,2874.53
21609,-4.4604,1.233,9.8976,1459,2874.53
21614,1.2246,3.2322,9.7288,1455,2875.49
21619,2.46,2.9939,10.9882,1445,2875.49
21624,-1.5957,-0.7027,12.4367,1444,2875.49
21629,-4.7465,0.5363,10.574,1448,2875.49
21634,0.4537,2.9616,9.3506,1459,2874.39
21639,2.4529,3.547,10.7105,1445,2874.39
21644,-1.6077,0.0204,12.378,1438,2874.39
21649,-4.5729,-0.1496,11.1905,1449,2874.39
21654,-0.4741,2.7282,9.1698,1454,2874.11
21659,2.2877,3.8499,10.5716,1445,2874.11
21664,-1.6257,0.644,12.1075,1449,2874.11
21669,-3.9959,-0.8224,11.7807,1448,2874.11
21674,-1.6352,2.4565,8.9807,1467,2873.98
21679,2.0853,3.8403,10.3645,1451,2873.98
21684,-0.8224,1.1827,11.8034,1445,2873.98
21689,-3.1915,-1.3874,12.1362,1449,2873.98
21694,-2.9221,2.083,9.1542,1452,2874.25
21699,1.8148,3.65,10.2292,1444,2874.25
21704,0.6644,1.7849,11.5293,1454,2874.25
21709,-2.5103,-1.5802,12.4044,1439,2874.25
21714,-4.0031,1.64,9.4858,1440,2874.25
21719,1.5383,3.3866,9.9264,1455,2873.84
21724,1.9752,2.4469,11.2264,1449,2873.84
21729,-1.8747,-1.2163,12.5313,1439,2873.84
21734,-4.5957,1.0403,10.1478,1449,2873.84
21739,1.0343,3.1939,9.6271,1452,2873.98
21744,2.5271,3.1615,10.8565,1447,2873.98
21749,-1.579,-0.4824,12.4487,1439,2873.98
21754,-4.7094,0.4274,10.7512,1445,2873.98
21759,0.3172,2.9616,9.3099,1472,2873.84
21764,2.4768,3.6966,10.647,1445,2873.84
21769,-1.5957,0.1999,12.3804,1438,2873.84
21774,-4.3718,-0.3675,11.3952,1451,2873.84
21779,-0.741,2.6827,8.995,1467,2873.84
21784,2.2374,3.8415,10.4519,1449,2873.84
21789,-1.4868,0.759,12.0357,1447,2873.84
21794,-3.8176,-1.093,11.8968,1448,2873.84
21799,-1.9824,2.3427,8.9471,1471,2874.11
21804,1.992,3.8223,10.4196,1451,2874.11
21809,-0.4489,1.3072,11.7819,1445,2874.11
21814,-3.0634,-1.4174,12.2607,1455,2874.11
21819,-3.1963,2.0004,9.1913,1459,2874.25
21824,1.804,3.6332,10.1478,1444,2874.25
21829,1.0906,1.9082,11.4371,1455,2874.25
21834,-2.3116,-1.4174,12.481,1447,2874.25
21839,-4.1635,1.5778,9.596,1452,2874.25
21844,1.476,3.3674,9.8761,1449,2874.53
21849,2.2242,2.6552,11.139,1445,2874.53
21854,-1.7238,-1.0259,12.4642,1447,2874.53
21859,-4.6459,0.8799,10.2101,1445,2874.53
21864,0.832,3.0897,9.5134,1451,2874.94
21869,2.5379,3.3076,10.8218,1451,2874.94
21874,-1.6017,-0.3328,12.408,1450,2874.94
21879,-4.6986,0.1975,10.9319,1447,2874.94
21884,-0.0084,2.8287,9.2237,1461,2874.8
21889,2.4062,3.723,10.6183,1445,2874.8
21894,-1.67,0.3843,12.2164,1445,2874.8
21899,-4.3503,-0.5004,11.5472,1445,2874.8
21904,-1.0343,2.6276,9.0309,1459,2875.08
21909,2.1919,3.8918,10.4854,1447,2875.08
21914,-1.33,0.8978,11.9842,1444,2875.08
21919,-3.6129,-1.1205,11.9291,1454,2875.08
21924,-2.308,2.296,9.0369,1467,2875.35
21929,1.9369,3.7469,10.2065,1448,2875.35
21934,-0.0658,1.4126,11.6765,1448,2875.35
21939,-2.9401,-1.5371,12.2416,1447,2875.35
21944,-3.4776,1.8519,9.2392,1462,2875.63
21949,1.6939,3.5075,10.1478,1439,2875.63
21954,1.3551,2.0722,11.3665,1447,2875.63
21959,-2.2063,-1.4353,12.5205,1440,2875.63
21964,-4.3108,1.3755,9.7564,1455,2875.63
21969,1.3096,3.2585,9.8174,1453,2875.9
21974,2.326,2.8587,11.0959,1445,2875.9
21979,-1.749,-0.8787,12.5791,1439,2875.9
21984,-4.7274,0.7901,10.3765,1446,2875.9
21989,0.7697,3.0897,9.4894,1453,2876.18
21994,2.5929,3.4285,10.7224,1451,2876.18
21999,-1.6101,-0.1377,12.4295,1444,2876.18
22004,-4.5849,0.0036,11.0409,1447,2876.18
22009,-0.182,2.7988,9.1554,1443,2876.32
22014,2.3056,3.7421,10.5644,1449,2876.32
22019,-1.6209,0.4381,12.1721,1445,2876.32
22024,-4.2126,-0.6991,11.6167,1446,2876.32
22029,-1.2282,2.551,8.9519,1468,2876.18
22034,2.1404,3.8439,10.4567,1452,2876.18
22039,-1.1504,1.0127,11.8992,1445,2876.18
22044,-3.547,-1.2474,12.0392,1445,2876.18
22049,-2.4768,2.2266,9.0513,1478,2875.77
22054,1.9393,3.7745,10.2999,1447,2875.77
22059,0.1269,1.5263,11.582,1447,2875.77
22064,-2.7617,-1.5024,12.3433,1445,2875.77
22069,-3.6081,1.8352,9.3314,1455,2876.18
22074,1.7154,3.541,10.0592,1448,2876.18
22079,1.6113,2.1991,11.3174,1451,2876.18
22084,-2.0207,-1.3671,12.4917,1439,2876.18
22089,-4.4257,1.3144,9.8246,1455,2876.18
22094,1.2318,3.2106,9.7492,1453,2877.15
22099,2.4505,2.8443,10.9786,1446,2877.15
22104,-1.6257,-0.7937,12.4534,1443,2877.15
22109,-4.7848,0.6752,10.4818,1448,2877.15
22114,0.571,2.9951,9.4164,1461,2876.46
22119,2.5438,3.4872,10.7093,1449,2876.46
22124,-1.6568,-0.1089,12.4151,1437,2876.46
22129,-4.6268,-0.0455,11.1929,1447,2876.46
22134,-0.3256,2.806,9.1099,1466,2876.59
22139,2.3607,3.8666,10.5369,1444,2876.59
22144,-1.5694,0.559,12.2032,1449,2876.59
22149,-4.1468,-0.6955,11.6646,1449,2876.59
22154,-1.4138,2.5474,8.9459,1465,2876.18
22159,2.0961,3.8415,10.4627,1451,2876.18
22164,-1.0116,1.0774,11.8812,1447,2876.18
22169,-3.3914,-1.324,12.0764,1449,2876.18
22174,-2.6492,2.1201,9.068,1467,2876.18
22179,1.8627,3.6739,10.2795,1449,2876.18
22184,0.3986,1.6305,11.5616,1449,2876.18
22189,-2.7066,-1.5538,12.3493,1439,2876.18
22194,-3.8032,1.7226,9.4092,1444,2876.18
22199,1.6388,3.4465,10.0796,1455,2876.04
22204,1.7406,2.3355,11.315,1451,2876.04
22209,-1.992,-1.2869,12.5133,1439,2876.04
22214,-4.4568,1.257,9.9623,1453,2876.04
22219,1.166,3.2597,9.6941,1455,2875.9
22224,2.466,3.0023,10.975,1445,2875.9
22229,-1.6173,-0.6225,12.5253,1439,2875.9
22234,-4.7393,0.5447,10.6003,1447,2875.9
22239,0.4956,3.0323,9.3338,1461,2875.9
22244,2.4995,3.5638,10.6422,1447,2875.9
22249,-1.6257,0.0204,12.3373,1439,2875.9
22254,-4.5071,-0.2358,11.2288,1451,2875.9
22259,-0.5291,2.6899,9.0585,1467,2875.9
22264,2.3116,3.8152,10.501,1438,2875.9
22269,-1.5419,0.6129,12.1494,1451,2875.9
22274,-4.0546,-0.8871,11.7603,1447,2875.9
22279,-1.6412,2.4433,8.9651,1469,2875.9
22284,2.0782,3.8882,10.3597,1448,2875.9
22289,-0.7925,1.1492,11.7938,1443,2875.9
22294,-3.3136,-1.3467,12.2188,1448,2875.9
22299,-2.8862,2.132,9.1435,1460,2875.63
22304,1.8627,3.699,10.2364,1445,2875.63
22309,0.644,1.7765,11.5149,1459,2875.63
22314,-2.484,-1.4569,12.4091,1447,2875.63
22319,-3.9373,1.664,9.4846,1445,2875.63
22324,1.5886,3.3986,9.9132,1453,2876.18
22329,1.98,2.4792,11.1701,1451,2876.18
22334,-1.901,-1.2665,12.4678,1446,2876.18
22339,-4.5861,1.0965,10.0293,1439,2876.18
22344,1.0511,3.1699,9.6055,1459,2876.18
22349,2.5175,3.1364,10.9271,1449,2876.18
22354,-1.6568,-0.5674,12.4882,1447,2876.18
22359,-4.7441,0.4501,10.7655,1445,2876.18
22364,0.3364,2.9592,9.2955,1463,2876.32
22369,2.5127,3.6847,10.659,1447,2876.32
22374,-1.719,0.1784,12.3325,1440,2876.32
22379,-4.4903,-0.2813,11.2958,1451,2876.32
22384,-0.6584,2.7007,9.0848,1487,2876.32
22389,2.2673,3.8283,10.4914,1447,2876.32
22394,-1.4365,0.723,12.0416,1450,2876.32
22399,-3.9229,-0.9768,11.7579,1447,2876.32
22404,-1.8364,2.3858,8.9124,1469,2875.9
22409,2.0279,3.7948,10.3884,1449,2875.9
22414,-0.5962,1.2175,11.7723,1445,2875.9
22419,-3.1316,-1.4605,12.2535,1452,2875.9
22424,-3.0694,1.9848,9.1686,1479,2875.35
22429,1.8112,3.5937,10.2304,1439,2875.35
22434,0.8655,1.8076,11.4036,1453,2875.35
22439,-2.381,-1.4473,12.4151,1445,2875.35
22444,-4.0977,1.6364,9.6223,1450,2875.35
22449,1.4365,3.4105,9.9934,1449,2875.08
22454,2.0937,2.5666,11.1103,1439,2875.08
22459,-1.7957,-1.0594,12.5241,1447,2875.08
22464,-4.6292,1.0032,10.0999,1445,2875.08
22469,0.9625,3.1352,9.6067,1453,2874.66
22474,2.5786,3.225,10.8254,1453,2874.66
22479,-1.573,-0.4142,12.475,1449,2874.66
22484,-4.6639,0.2466,10.817,1448,2874.66
22489,0.0766,2.8706,9.2249,1461,2874.39
22494,2.3762,3.6835,10.568,1448,2874.39
22499,-1.6281,0.2466,12.2451,1443,2874.39
22504,-4.4005,-0.5231,11.4299,1448,2874.39
22509,-0.9313,2.6049,8.9914,1463,2874.53
22514,2.15,3.8906,10.489,1449,2874.53
22519,-1.4892,0.8667,12.0596,1445,2874.53
22524,-3.7146,-1.0726,11.9866,1445,2874.53
22529,-2.1141,2.3403,8.9603,1452,2874.39
22534,2.0051,3.8283,10.3094,1450,2874.39
22539,-0.243,1.3838,11.722,1447,2874.39
22544,-2.9868,-1.5131,12.238,1451,2874.39
22549,-3.3411,1.9333,9.2273,1477,2874.94
22554,1.8268,3.5338,10.1275,1447,2874.94
22559,1.2594,2.0339,11.4443,1447,2874.94
22564,-2.1703,-1.5,12.4163,1449,2874.94
22569,-4.2461,1.3862,9.663,1455,2874.94
22574,1.3491,3.2477,9.8007,1453,2875.08
22579,2.2709,2.7461,11.0983,1447,2875.08
22584,-1.7705,-1.0127,12.5001,1451,2875.08
22589,-4.7393,0.8643,10.307,1447,2875.08
22594,0.8164,3.1137,9.499,1454,2875.22
22599,2.5702,3.4429,10.8242,1448,2875.22
22604,-1.664,-0.2358,12.4008,1445,2875.22
22609,-4.6388,0.1365,11.0097,1449,2875.22
22614,-0.0862,2.8563,9.1949,1465,2875.35
22619,2.381,3.7852,10.6051,1451,2875.35
22624,-1.6496,0.4334,12.2631,1451,2875.35
22629,-4.2533,-0.5974,11.576,1449,2875.35
22634,-1.1265,2.5774,8.9902,1465,2875.63
22639,2.1835,3.8858,10.3489,1453,2875.63
22644,-1.1947,0.9062,11.9399,1447,2875.63
22649,-3.5985,-1.2677,11.9854,1443,2875.63
22654,-2.4229,2.1979,9.0513,1471,2875.63
22659,1.9561,3.6966,10.3154,1447,2875.63
22664,0.0347,1.4832,11.6286,1453,2875.63
22669,-2.8551,-1.488,12.4163,1439,2875.63
22674,-3.5889,1.8794,9.2847,1447,2875.63
22679,1.7119,3.5231,10.0748,1453,2875.63
22684,1.5203,2.1847,11.3138,1452,2875.63
22689,-2.0602,-1.3132,12.5073,1439,2875.63
22694,-4.3814,1.342,9.8581,1453,2875.63
22699,1.2366,3.2621,9.7971,1459,2875.49
22704,2.3894,2.8802,11.0337,1447,2875.49
22709,-1.6364,-0.7602,12.5205,1445,2875.49
22714,-4.7357,0.7219,10.4339,1447,2875.49
22719,0.6584,3.0083,9.3829,1465,2875.22
22724,2.5438,3.48,10.738,1446,2875.22
22729,-1.6173,-0.1053,12.4355,1439,2875.22
22734,-4.5945,-0.1006,11.1306,1451,2875.22
22739,-0.3208,2.7605,9.1638,1467,2875.35
22744,2.2948,3.8164,10.5225,1447,2875.35
22749,-1.6257,0.5183,12.1901,1447,2875.35
22754,-4.1851,-0.7111,11.625,1449,2875.35
22759,-1.4222,2.5007,8.9986,1477,2875.77
22764,2.15,3.9002,10.4447,1450,2875.77
22769,-1.0415,1.0463,11.9004,1447,2875.77
22774,-3.3782,-1.2426,12.0728,1448,2875.77
22779,-2.6492,2.1428,9.0585,1471,2875.77
22784,1.8974,3.7098,10.2173,1443,2875.77
22789,0.3867,1.5909,11.5401,1451,2875.77
22794,-2.63,-1.5526,12.3158,1445,2875.77
22799,-3.7026,1.7286,9.408,1445,2875.77
22804,1.6412,3.4117,10.0485,1455,2875.77
22809,1.7262,2.2829,11.3282,1451,2875.77
22814,-2.0087,-1.3563,12.4558,1445,2875.77
22819,-4.5143,1.2605,9.9539,1453,2875.77
22824,1.1911,3.1627,9.6833,1459,2876.32
22829,2.4684,3.0538,10.9678,1443,2876.32
22834,-1.6795,-0.6823,12.4941,1443,2876.32
22839,-4.7333,0.6393,10.6159,1446,2876.32
22844,0.4992,3.0287,9.3841,1465,2876.18
22849,2.5678,3.5937,10.6841,1447,2876.18
22854,-1.5778,0.0467,12.3613,1443,2876.18
22859,-4.5777,-0.1664,11.2264,1455,2876.18
22864,-0.413,2.7509,9.0058,1469,2876.59
22869,2.3415,3.8463,10.4986,1447,2876.59
22874,-1.5658,0.6177,12.1039,1451,2876.59
22879,-3.9552,-0.8535,11.7735,1453,2876.59
22884,-1.5909,2.4517,8.9543,1477,2876.46
22889,2.0494,3.8451,10.3729,1447,2876.46
22894,-0.8475,1.0942,11.8621,1445,2876.46
22899,-3.3627,-1.3862,12.1757,1455,2876.46
22904,-2.8599,2.1284,9.0369,1478,2876.46
22909,1.8878,3.7122,10.252,1445,2876.46
22914,0.5375,1.7801,11.5556,1455,2876.46
22919,-2.5594,-1.4269,12.4247,1447,2876.46
22924,-3.9014,1.6915,9.481,1446,2876.46
22929,1.6053,3.4836,9.9599,1451,2876.59
22934,1.9106,2.4277,11.248,1447,2876.59
22939,-1.889,-1.2055,12.5109,1447,2876.59
22944,-4.5538,1.0714,10.0353,1445,2876.59
22949,1.0906,3.1783,9.657,1454,2877.01
22954,2.5391,3.0825,10.9379,1449,2877.01
22959,-1.5945,-0.6093,12.5193,1447,2877.01
22964,-4.798,0.4381,10.6398,1445,2877.01
22969,0.4082,2.9401,9.3398,1461,2877.15
22974,2.4337,3.6404,10.7021,1449,2877.15
22979,-1.749,0.0922,12.3421,1445,2877.15
22984,-4.5322,-0.2586,11.2982,1448,2877.15
22989,-0.6093,2.733,9.0585,1470,2877.28
22994,2.2565,3.9002,10.5237,1451,2877.28
22999,-1.5874,0.6728,12.0835,1447,2877.28
23004,-3.9612,-0.905,11.819,1439,2877.28
23009,-1.7897,2.4181,9.0214,1469,2877.42
23014,2.0602,3.8271,10.3525,1451,2877.42
23019,-0.5686,1.1744,11.7867,1445,2877.42
23024,-3.2394,-1.4126,12.1685,1453,2877.42
23029,-2.958,2.0985,9.1231,1479,2877.42
23034,1.8842,3.6176,10.2125,1443,2877.42
23039,0.7075,1.8184,11.4491,1454,2877.42
23044,-2.4325,-1.5538,12.3505,1446,2877.42
23049,-4.0282,1.6209,9.5517,1453,2877.42
23054,1.482,3.3854,9.9491,1448,2876.73
23059,1.9776,2.5115,11.2527,1446,2876.73
23064,-1.8902,-1.1779,12.4786,1447,2876.73
23069,-4.6268,1.0774,10.1047,1445,2876.73
23074,1.0092,3.1951,9.5636,1451,2876.46
23079,2.5714,3.1891,10.9176,1451,2876.46
23084,-1.6077,-0.5052,12.4762,1447,2876.46
23089,-4.713,0.401,10.7452,1445,2876.46
23094,0.3496,2.9377,9.2656,1461,2876.46
23099,2.4983,3.6631,10.6195,1449,2876.46
23104,-1.6975,0.152,12.287,1445,2876.46
23109,-4.391,-0.3783,11.3737,1439,2876.46
23114,-0.7769,2.6791,9.0237,1468,2876.59
23119,2.2242,3.8355,10.4256,1455,2876.59
23124,-1.4006,0.7494,12.0476,1447,2876.59
23129,-3.9169,-1.0415,11.8405,1445,2876.59
23134,-1.9166,2.3739,8.9423,1454,2876.18
23139,2.0207,3.8595,10.3657,1452,2876.18
23144,-0.5088,1.2402,11.7448,1443,2876.18
23149,-3.1256,-1.4162,12.232,1451,2876.18
23154,-3.1041,2.0231,9.1279,1468,2877.28
23159,1.8567,3.6488,10.2352,1447,2877.28
23164,0.9792,1.8603,11.4251,1449,2877.28
23169,-2.3571,-1.4605,12.4738,1437,2877.28
23174,-4.1144,1.5682,9.6103,1453,2877.28
23179,1.4748,3.3555,9.991,1451,2876.73
23184,2.1416,2.5845,11.1306,1447,2876.73
23189,-1.8172,-1.0918,12.469,1445,2876.73
23194,-4.6567,0.9697,10.1514,1447,2876.73
23199,0.9673,3.1328,9.5864,1453,2876.73
23204,2.5187,3.2884,10.8362,1450,2876.73
23209,-1.6831,-0.4094,12.475,1463,2876.73
23214,-4.7381,0.2957,10.8517,1448,2876.73
23219,0.1496,2.879,9.238,1447,2876.87
23224,2.4373,3.7146,10.586,1449,2876.87
23229,-1.6915,0.2957,12.2966,1447,2876.87
23234,-4.4377,-0.4022,11.461,1451,2876.87
23239,-0.8332,2.6324,9.0764,1467,2877.15
23244,2.2446,3.8906,10.4591,1453,2877.15
23249,-1.3946,0.8164,11.9902,1445,2877.15
23254,-3.7445,-1.057,11.9291,1447,2877.15
23259,-2.0865,2.3008,9.0249,1479,2876.87
23264,2.0195,3.8008,10.2771,1451,2876.87
23269,-0.34,1.324,11.7196,1449,2876.87
23274,-2.9676,-1.4964,12.3158,1447,2876.87
23279,-3.2465,1.9178,9.232,1455,2876.73
23284,1.7538,3.5745,10.1287,1449,2876.73
23289,1.142,1.9884,11.4563,1478,2876.73
23294,-2.2793,-1.4461,12.4163,1445,2876.73
23299,-4.227,1.4976,9.6199,1456,2876.73
23304,1.3874,3.3208,9.8653,1455,2876.46
23309,2.217,2.715,11.1558,1446,2876.46
23314,-1.7801,-1.002,12.5061,1449,2876.46
23319,-4.6663,0.8691,10.2747,1449,2876.46
23324,0.8571,3.1484,9.5205,1463,2876.18
23329,2.5163,3.3698,10.835,1447,2876.18
23334,-1.6089,-0.3005,12.4403,1445,2876.18
23339,-4.6819,0.1149,10.92,1449,2876.18
23344,0.0395,2.8706,9.1698,1466,2876.32
23349,2.3439,3.723,10.5728,1447,2876.32
23354,-1.7059,0.3184,12.2631,1452,2876.32
23359,-4.2808,-0.5842,11.5412,1449,2876.32
23364,-1.0953,2.6384,8.9543,1470,2876.32
23369,2.132,3.893,10.4423,1452,2876.32
23374,-1.2474,0.8823,11.977,1448,2876.32
23379,-3.6691,-1.1672,12.0081,1449,2876.32
23384,-2.2482,2.2841,9.0417,1467,2876.73
23389,2.0207,3.7816,10.3561,1447,2876.73
23394,-0.0718,1.4222,11.6298,1455,2876.73
23399,-2.891,-1.482,12.3301,1444,2876.73
23404,-3.3962,1.9333,9.2608,1447,2876.73
23409,1.7933,3.5817,10.082,1459,2877.01
23414,1.3671,2.0518,11.3461,1453,2877.01
23419,-2.1943,-1.4186,12.4953,1443,2877.01
23424,-4.288,1.4281,9.6989,1459,2877.01
23429,1.3922,3.2681,9.8342,1459,2877.28
23434,2.3188,2.739,11.06,1443,2877.28
23439,-1.8028,-0.9361,12.5001,1443,2877.28
23444,-4.7597,0.8152,10.3274,1447,2877.28
23449,0.753,3.1077,9.5062,1463,2877.15
23454,2.5115,3.401,10.8014,1447,2877.15
23459,-1.6783,-0.2191,12.475,1443,2877.15
23464,-4.695,0.1113,11.0121,1451,2877.15
23469,-0.0742,2.8204,9.1758,1469,2876.87
23474,2.4026,3.7828,10.5489,1445,2876.87
23479,-1.7142,0.3974,12.1853,1451,2876.87
23484,-4.1934,-0.5614,11.558,1447,2876.87
23489,-1.1432,2.5738,9.0154,1468,2877.01
23494,2.1715,3.875,10.3848,1449,2877.01
23499,-1.1971,0.9756,11.9926,1447,2877.01
23504,-3.5674,-1.2534,11.9854,1454,2877.01
23509,-2.4385,2.211,8.9579,1469,2877.28
23514,1.9585,3.711,10.2819,1443,2877.28
23519,0.0263,1.5167,11.6526,1459,2877.28
23524,-2.8024,-1.4844,12.3014,1443,2877.28
23529,-3.5554,1.8675,9.3182,1445,2877.28
23534,1.6939,3.4824,10.0736,1453,2877.28
23539,1.5119,2.2063,11.3353,1449,2877.28
23544,-2.1452,-1.415,12.4343,1445,2877.28
23549,-4.4053,1.3719,9.8497,1451,2877.28
23554,1.3288,3.2669,9.8306,1461,2877.28
23559,2.3547,2.891,11.0588,1446,2877.28
23564,-1.7095,-0.8236,12.5181,1440,2877.28
23569,-4.713,0.7207,10.483,1447,2877.28
23574,0.662,3.067,9.3793,1463,2877.01
23579,2.5187,3.4584,10.6889,1445,2877.01
23584,-1.6017,-0.1389,12.4127,1443,2877.01
23589,-4.5933,-0.0275,11.0756,1455,2877.01
23594,-0.255,2.7689,9.1351,1471,2877.15
23599,2.3152,3.808,10.5381,1447,2877.15
23604,-1.64,0.4741,12.1721,1453,2877.15
23609,-4.2138,-0.7865,11.6801,1453,2877.15
23614,-1.3312,2.5151,8.9663,1490,2877.56
23619,2.1464,3.8906,10.4256,1452,2877.56
23624,-1.1145,0.9996,11.9459,1447,2877.56
23629,-3.4824,-1.2773,12.0979,1460,2877.56
23634,-2.5714,2.1955,9.0285,1467,2877.28
23639,1.9788,3.7673,10.2855,1451,2877.28
23644,0.2849,1.6005,11.6119,1463,2877.28
23649,-2.7031,-1.506,12.3242,1453,2877.28
23654,-3.6284,1.8256,9.3218,1454,2877.28
23659,1.7107,3.474,10.0137,1459,2877.15
23664,1.6352,2.2709,11.3485,1453,2877.15
23669,-2.0363,-1.3659,12.4977,1447,2877.15
23674,-4.4317,1.2809,9.8078,1447,2877.15
23679,1.2198,3.2202,9.7348,1459,2877.28
23684,2.4217,2.9485,11.0253,1451,2877.28
23689,-1.658,-0.7913,12.4774,1449,2877.28
23694,-4.7692,0.6381,10.507,1448,2877.28
23699,0.5746,2.9748,9.3494,1461,2876.87
23704,2.5738,3.5338,10.7524,1455,2876.87
23709,-1.6448,-0.0347,12.4714,1444,2876.87
23714,-4.5693,-0.0622,11.0528,1453,2876.87
23719,-0.3412,2.7485,9.0429,1477,2876.87
23724,2.3882,3.8391,10.5548,1451,2876.87
23729,-1.6556,0.5902,12.1733,1450,2876.87
23734,-4.0725,-0.7566,11.7256,1453,2876.87
23739,-1.4796,2.4672,8.9184,1481,2876.87
23744,2.071,3.8176,10.3406,1453,2876.87
23749,-0.9337,1.1097,11.9124,1449,2876.87
23754,-3.3962,-1.3443,12.0321,1461,2876.87
23759,-2.7126,2.1368,9.0154,1482,2877.15
23764,1.9046,3.6655,10.2149,1449,2877.15
23769,0.4381,1.6819,11.6741,1461,2877.15
23774,-1.9597,-1.16,12.5708,1451,2877.15
23779,-3.7792,1.7597,9.4403,1455,2877.15
23784,1.585,3.4297,9.9671,1455,2877.28
23789,1.7945,2.3918,11.3222,1453,2877.28
23794,-1.6233,-0.4896,12.4475,1448,2877.28
23799,-4.5262,1.2378,9.9347,1451,2877.28
23804,0.3077,2.9401,9.1854,1455,2877.7
23809,2.4672,3.6105,10.6973,1455,2877.7
23814,-1.7119,0.1437,12.3816,1447,2877.7
23819,-4.4173,-0.3172,11.388,1451,2877.7
23824,-0.6381,2.642,8.9304,1467,2877.84
23829,2.2829,3.875,10.4555,1453,2877.84
23834,-1.5191,0.6907,12.1398,1449,2877.84
23839,-3.9516,-0.9469,11.8621,1454,2877.84
23844,-1.8459,2.393,8.8801,1481,2877.56
23849,2.0925,3.8642,10.3717,1453,2877.56
23854,-0.6728,1.2438,11.8872,1451,2877.56
23859,-3.1867,-1.3874,12.2032,1449,2877.56
23864,-3.0275,2.0494,9.0202,1463,2877.28
23869,1.8747,3.6607,10.1347,1455,2877.28
23874,0.8296,1.8447,11.6059,1449,2877.28
23879,-2.4553,-1.5335,12.4271,1459,2877.28
23884,-3.9899,1.5778,9.4583,1480,2877.15
23889,1.555,3.395,9.8881,1449,2877.15
23894,2.0303,2.5367,11.2994,1454,2877.15
23899,-1.8675,-1.1899,12.4989,1449,2877.15
23904,-4.6459,1.0534,10.0485,1461,2877.15
23909,1.0116,3.0765,9.5301,1455,2877.01
23914,2.5295,3.1903,10.9834,1449,2877.01
23919,-1.6149,-0.5004,12.4666,1451,2877.01
23924,-4.7681,0.3974,10.7967,1449,2877.01
23929,0.2682,2.8886,9.2548,1459,2876.73
23934,2.4672,3.6907,10.7117,1459,2876.73
23939,-1.6735,0.2442,12.3756,1447,2876.73
23944,-4.4161,-0.3448,11.3473,1447,2876.73
23949,-0.7697,2.6432,8.9914,1463,2876.59
23954,2.2661,3.8523,10.4495,1453,2876.59
23959,-1.4617,0.753,12.0967,1451,2876.59
23964,-3.7745,-0.9948,11.8621,1449,2876.59
23969,-1.9896,2.3679,8.9316,1479,2876.18
23974,1.9944,3.7661,10.2891,1455,2876.18
23979,-0.4537,1.312,11.8573,1449,2876.18
23984,-3.1053,-1.4844,12.1853,1450,2876.18
23989,-3.2106,1.9465,9.1063,1465,2876.04
23994,1.7992,3.5482,10.1622,1453,2876.04
23999,1.0127,1.9597,11.5843,1453,2876.04
24004,-2.3774,-1.4521,12.4522,1449,2876.04
24009,-4.1288,1.5562,9.6211,1465,2875.77
24014,1.4664,3.3543,9.8581,1448,2875.77
24019,2.1272,2.6791,11.2073,1449,2875.77
24024,-1.7909,-1.0104,12.5061,1445,2875.77
24029,-4.6364,0.9697,10.2029,1461,2875.77
24034,0.911,3.1005,9.5026,1465,2876.87
24039,2.5762,3.2956,10.8637,1451,2876.87
24044,-1.5921,-0.3388,12.3924,1449,2876.87
24049,-4.6639,0.2107,10.8122,1450,2876.87
24054,0.085,2.8252,9.1506,1464,2876.32
24059,2.4277,3.705,10.641,1453,2876.32
24064,-1.7119,0.2885,12.2799,1445,2876.32
24069,-4.3395,-0.4573,11.4263,1451,2876.32
24074,-1.0163,2.5833,8.9471,1471,2876.73
24079,2.2027,3.887,10.4459,1449,2876.73
24084,-1.3755,0.8966,12.0488,1445,2876.73
24089,-3.7673,-1.0846,11.9399,1448,2876.73
24094,-2.1943,2.3044,8.9543,1469,2877.15
24099,2.0818,3.8427,10.3166,1455,2877.15
24104,-0.322,1.4329,11.7567,1447,2877.15
24109,-2.988,-1.4832,12.2332,1447,2877.15
24114,-3.3411,1.9094,9.1746,1464,2877.42
24119,1.8016,3.559,10.1299,1449,2877.42
24124,1.2354,2.0435,11.4814,1453,2877.42
24129,-2.2661,-1.5,12.4451,1439,2877.42
24134,-4.2485,1.4305,9.6857,1449,2877.42
24139,1.3994,3.2621,9.8485,1451,2877.7
24144,2.2194,2.7426,11.2061,1453,2877.7
24149,-1.7382,-1.0391,12.5396,1439,2877.7
24154,-4.7309,0.8667,10.325,1455,2877.7
24159,0.8368,3.055,9.4739,1453,2877.97
24164,2.5522,3.3435,10.8445,1449,2877.97
24169,-1.6723,-0.2693,12.469,1445,2877.97
24174,-4.6747,0.2191,10.9642,1445,2877.97
24179,0.0084,2.903,9.1219,1463,2877.97
24184,2.4098,3.7996,10.6171,1447,2877.97
24189,-1.7298,0.395,12.2332,1445,2877.97
24194,-4.306,-0.5327,11.473,1451,2877.97
24199,-1.0606,2.5857,8.9747,1464,2877.97
24204,2.2266,3.8822,10.3992,1439,2877.97
24209,-1.3024,0.9613,12.0357,1451,2877.97
24214,-3.6847,-1.136,11.9423,1433,2877.97
24219,-2.2745,2.2386,8.9352,1451,2877.97
24224,1.9884,3.6871,10.2472,1436,2877.97
24229,-0.0958,1.4461,11.7495,1429,2877.97
24234,-2.9497,-1.5323,12.2775,1433,2877.97
24239,-3.468,1.8806,9.2344,1449,2877.97
24244,1.7765,3.5171,10.1167,1433,2877.97
24249,1.3216,2.1249,11.5077,1439,2877.97
24254,-2.2434,-1.4174,12.4498,1435,2877.97
24259,-4.3108,1.4593,9.6965,1435,2877.97
24264,1.3934,3.3279,9.7767,1443,2877.97
24269,2.326,2.8216,11.1845,1443,2877.97
24274,-1.7083,-0.9206,12.5001,1433,2877.97
24279,-4.6938,0.7841,10.2759,1448,2877.97
24284,0.7817,3.0311,9.432,1445,2878.25
24289,2.6312,3.3591,10.8553,1435,2878.25
24294,-1.5874,-0.249,12.4235,1431,2878.25
24299,-4.6364,0.0766,10.9235,1439,2878.25
24304,-0.0694,2.7988,9.1207,1453,2878.25
24309,2.4074,3.7697,10.5752,1436,2878.25
24314,-1.6903,0.3807,12.2523,1429,2878.25
24319,-4.288,-0.6512,11.5784,1443,2878.25
24324,-1.1672,2.5402,8.9208,1459,2878.25
24329,2.2003,3.9205,10.4459,1439,2878.25
24334,-1.257,0.9864,11.9961,1445,2878.25
24339,-3.6559,-1.1372,11.9734,1443,2878.25
24344,-2.3224,2.2649,8.9388,1459,2878.11
24349,2.0494,3.7517,10.3346,1443,2878.11
24354,-0.0132,1.5263,11.7053,1443,2878.11
24359,-2.8934,-1.5443,12.2571,1447,2878.11
24364,-3.4596,1.8399,9.2129,1447,2878.11
24369,1.7921,3.4572,10.0281,1435,2878.11
24374,1.4281,2.0949,11.4431,1449,2878.11
24379,-2.2051,-1.4593,12.4678,1437,2878.11
24384,-4.3515,1.3408,9.7887,1435,2878.11
24389,1.3599,3.2322,9.7779,1449,2878.25
24394,2.3116,2.8204,11.0648,1440,2878.25
24399,-1.7657,-0.8954,12.5277,1435,2878.25
24404,-4.7118,0.826,10.3262,1447,2878.25
24409,0.7614,3.0442,9.4344,1450,2878.39
24414,2.5881,3.4441,10.7955,1439,2878.39
24419,-1.7011,-0.152,12.4834,1435,2878.39
24424,-4.6448,0.1173,11.0253,1439,2878.39
24429,-0.085,2.8228,9.0728,1449,2878.8
24434,2.4409,3.7673,10.5596,1443,2878.8
24439,-1.6688,0.4501,12.2727,1437,2878.8
24444,-4.2222,-0.6931,11.5281,1448,2878.8
24449,-1.1959,2.5594,8.8813,1453,2878.94
24454,2.217,3.8307,10.4663,1435,2878.94
24459,-1.2091,0.9697,12.056,1445,2878.94
24464,-3.6129,-1.2246,12.0165,1447,2878.94
24469,-2.4397,2.2158,8.9878,1455,2879.22
24474,1.9381,3.7373,10.2951,1443,2879.22
24479,0.0311,1.5167,11.746,1437,2879.22
24484,-2.8431,-1.5048,12.3457,1450,2879.22
24489,-3.5195,1.8543,9.262,1451,2878.8
24494,1.7789,3.5482,10.0772,1437,2878.8
24499,1.4964,2.211,11.5197,1453,2878.8
24504,-2.1739,-1.342,12.5121,1443,2878.8
24509,-4.3431,1.4066,9.7707,1445,2878.8
24514,1.336,3.2848,9.73,1451,2878.94
24519,2.4122,2.8683,11.139,1447,2878.94
24524,-1.6867,-0.9158,12.4822,1439,2878.94
24529,-4.7106,0.7051,10.3202,1451,2878.94
24534,0.7039,2.9808,9.4164,1445,2879.08
24539,2.5702,3.4345,10.8421,1445,2879.08
24544,-1.6029,-0.1975,12.4115,1435,2879.08
24549,-4.7178,0.0455,10.9858,1449,2879.08
24554,-0.1305,2.7665,9.1051,1455,2879.22
24559,2.4062,3.8092,10.574,1443,2879.22
24564,-1.7059,0.419,12.2703,1437,2879.22
24569,-4.2341,-0.6081,11.5987,1459,2879.22
24574,-1.2103,2.5534,8.8957,1461,2879.35
24579,2.2158,3.9648,10.3872,1447,2879.35
24584,-1.1492,1.0487,11.9902,1451,2879.35
24589,-3.6105,-1.1827,11.9914,1446,2879.35
24594,-2.3894,2.2134,8.934,1463,2879.91
24599,2.0411,3.6895,10.2232,1445,2879.91
24604,0.0599,1.5263,11.7017,1447,2879.91
24609,-2.8814,-1.6221,12.2499,1451,2879.91
24614,-3.5171,1.7968,9.2045,1455,2879.91
24619,1.7131,3.456,10.07,1435,2879.91
24624,1.4521,2.1775,11.4694,1454,2879.91
24629,-2.1955,-1.4389,12.487,1443,2879.91
24634,-4.379,1.3599,9.7552,1443,2879.91
24639,1.3695,3.2489,9.7767,1453,2880.88
24644,2.3284,2.897,11.1773,1447,2880.88
24649,-1.7442,-0.8631,12.5516,1439,2880.88
24654,-4.7501,0.8643,10.325,1449,2880.88
24659,0.7841,3.0969,9.4643,1449,2880.74
24664,2.6588,3.462,10.8481,1443,2880.74
24669,-1.6077,-0.1975,12.5169,1437,2880.74
24674,-4.6495,0.0826,10.9607,1443,2880.74
24679,-0.1532,2.7857,9.1016,1453,2880.74
24684,2.4529,3.7816,10.58,1451,2880.74
24689,-1.64,0.4334,12.2882,1439,2880.74
24694,-4.2629,-0.662,11.5808,1451,2880.74
24699,-1.1887,2.5283,8.8765,1460,2881.01
24704,2.1272,3.8499,10.4447,1443,2881.01
24709,-1.221,0.9685,12.0811,1446,2881.01
24714,-3.7038,-1.1959,12.0285,1445,2881.01
24719,-2.3727,2.2685,8.9687,1460,2880.6
24724,1.9992,3.7709,10.3418,1446,2880.6
24729,-0.0204,1.5227,11.7627,1445,2880.6
24734,-2.9341,-1.4688,12.3301,1449,2880.6
24739,-3.4656,1.8747,9.1985,1465,2880.46
24744,1.8172,3.6045,10.0377,1438,2880.46
24749,1.409,2.1656,11.4706,1453,2880.46
24754,-2.1991,-1.3946,12.4846,1443,2880.46
24759,-4.2976,1.3982,9.681,1439,2880.46
24764,1.415,3.2789,9.7444,1452,2880.32
24769,2.3308,2.8,11.1318,1447,2880.32
24774,-1.7597,-0.9792,12.4343,1438,2880.32
24779,-4.7285,0.8152,10.2903,1453,2880.32
24784,0.7697,3.0083,9.4487,1453,2880.6
24789,2.5343,3.4273,10.8984,1446,2880.6
24794,-1.7131,-0.267,12.4953,1435,2880.6
24799,-4.6878,0.1532,10.9439,1439,2880.6
24804,-0.0407,2.824,9.0417,1459,2880.6
24809,2.4169,3.7996,10.6422,1449,2880.6
24814,-1.7538,0.4166,12.3349,1439,2880.6
24819,-4.276,-0.498,11.5664,1451,2880.6
24824,-1.0582,2.6109,8.8981,1461,2880.32
24829,2.2098,3.8702,10.4351,1443,2880.32
24834,-1.2977,0.9242,11.965,1449,2880.32
24839,-3.6476,-1.1887,11.9279,1447,2880.32
24844,-2.2901,2.2051,8.9016,1467,2880.32
24849,1.9692,3.7098,10.3441,1447,2880.32
24854,-0.1556,1.4533,11.7483,1445,2880.32
24859,-2.9365,-1.5646,12.2763,1449,2880.32
24864,-3.4524,1.8591,9.1578,1467,2880.05
24869,1.737,3.5003,10.137,1445,2880.05
24874,1.2785,2.0925,11.5377,1455,2880.05
24879,-2.2697,-1.4353,12.4774,1439,2880.05
24884,-4.3227,1.4329,9.6606,1439,2880.05
24889,1.4377,3.316,9.8198,1453,2879.63
24894,2.2841,2.7988,11.2504,1446,2879.63
24899,-1.7777,-0.9026,12.5013,1436,2879.63
24904,-4.725,0.9182,10.2448,1449,2879.63
24909,0.8248,3.0945,9.4727,1454,2880.05
24914,2.6384,3.3088,10.8098,1446,2880.05
24919,-1.5886,-0.2801,12.4642,1437,2880.05
24924,-4.6651,0.103,10.9307,1444,2880.05
24929,0.0192,2.8084,9.1279,1453,2879.91
24934,2.4541,3.7314,10.6506,1443,2879.91
24939,-1.6963,0.3579,12.287,1436,2879.91
24944,-4.3443,-0.6141,11.5305,1451,2879.91
24949,-1.0594,2.5714,8.9028,1453,2879.77
24954,2.1919,3.8822,10.4172,1440,2879.77
24959,-1.409,0.9349,12.0428,1447,2879.77
24964,-3.7314,-1.142,11.9746,1445,2879.77
24969,-2.2422,2.3116,8.9435,1465,2879.91
24974,2.0554,3.7864,10.2819,1447,2879.91
24979,-0.1736,1.4688,11.7998,1445,2879.91
24984,-2.9664,-1.4916,12.2655,1451,2879.91
24989,-3.3447,1.8902,9.1207,1463,2879.91
24994,1.8771,3.559,10.094,1439,2879.91
24999,1.2641,2.0219,11.5221,1454,2879.91
25004,-2.2206,-1.4856,12.4175,1445,2879.91
25009,-4.2413,1.4126,9.6079,1443,2879.91
25014,1.4246,3.2298,9.7779,1453,2879.77
25019,2.2589,2.739,11.1977,1447,2879.77
25024,-1.7753,-1.0151,12.5013,1432,2879.77
25029,-4.7166,0.8643,10.2723,1448,2879.77
25034,0.7985,3.0394,9.4703,1451,2879.77
25039,2.557,3.3758,10.9068,1446,2879.77
25044,-1.6628,-0.3041,12.4929,1439,2879.77
25049,-4.7393,0.2646,10.9379,1445,2879.77
25054,0.0431,2.9125,9.1159,1447,2879.77
25059,2.49,3.8044,10.6662,1447,2879.77
25064,-1.6843,0.3926,12.317,1437,2879.77
25069,-4.3167,-0.4525,11.4994,1453,2879.77
25074,-0.9804,2.5845,8.9316,1463,2880.05
25079,2.2517,3.8259,10.4363,1443,2880.05
25084,-1.4222,0.8691,12.0261,1449,2880.05
25089,-3.6751,-1.1827,11.9363,1449,2880.05
25094,-2.2386,2.2793,8.922,1465,2880.05
25099,1.9692,3.7529,10.3214,1450,2880.05
25104,-0.2227,1.4269,11.8226,1443,2880.05
25109,-3.0035,-1.506,12.2966,1451,2880.05
25114,-3.4046,1.9441,9.2009,1465,2880.32
25119,1.7921,3.5422,10.0928,1443,2880.32
25124,1.2234,2.0638,11.4898,1455,2880.32
25129,-2.3379,-1.4365,12.5181,1443,2880.32
25134,-4.227,1.4724,9.5708,1443,2880.32
25139,1.5359,3.3722,9.8306,1452,2880.74
25144,2.2996,2.7617,11.1701,1449,2880.74
25149,-1.816,-0.9517,12.5157,1439,2880.74
25154,-4.695,0.9301,10.222,1445,2880.74
25159,0.9062,3.0442,9.4822,1453,2881.01
25164,2.6624,3.2908,10.8421,1447,2881.01
25169,-1.6712,-0.3831,12.5253,1436,2881.01
25174,-4.6771,0.1377,10.8649,1439,2881.01
25179,0.0156,2.8383,9.1482,1459,2881.15
25184,2.4433,3.7278,10.6542,1447,2881.15
25189,-1.7226,0.3029,12.3182,1436,2881.15
25194,-4.367,-0.4908,11.4108,1451,2881.15
25199,-0.9445,2.5714,8.8897,1465,2880.46
25204,2.2637,3.8834,10.483,1439,2880.46
25209,-1.4078,0.8583,12.0979,1449,2880.46
25214,-3.8176,-1.0427,11.9554,1447,2880.46
25219,-2.083,2.3331,8.9124,1466,2881.01
25224,2.1129,3.8247,10.2915,1448,2881.01
25229,-0.3089,1.4341,11.7388,1445,2881.01
25234,-3.0335,-1.4844,12.2368,1449,2881.01
25239,-3.2274,1.9429,9.1423,1449,2880.18
25244,1.8495,3.5674,10.1011,1445,2880.18
25249,1.1325,1.9716,11.5281,1455,2880.18
25254,-2.3032,-1.5562,12.4211,1439,2880.18
25259,-4.1719,1.4724,9.5816,1440,2880.18
25264,1.4353,3.298,9.8162,1453,2880.18
25269,2.1739,2.7007,11.2683,1449,2880.18
25274,-1.8328,-1.0786,12.536,1439,2880.18
25279,-4.7118,0.9553,10.1837,1451,2880.18
25284,0.9194,3.0885,9.5325,1453,2880.18
25289,2.5929,3.3016,10.9475,1443,2880.18
25294,-1.6903,-0.3543,12.4702,1443,2880.18
25299,-4.7309,0.2957,10.7978,1449,2880.18
25304,0.1532,2.9221,9.1291,1459,2880.18
25309,2.496,3.7338,10.6554,1435,2880.18
25314,-1.719,0.3041,12.2679,1439,2880.18
25319,-4.3646,-0.4729,11.4108,1449,2880.18
25324,-0.9505,2.6109,8.9112,1467,2879.91
25329,2.2146,3.8128,10.4375,1440,2879.91
25334,-1.4078,0.8511,12.0273,1451,2879.91
25339,-3.8199,-1.0774,11.9159,1449,2879.91
25344,-2.0818,2.302,8.9016,1467,2880.32
25349,2.0279,3.8104,10.2867,1449,2880.32
25354,-0.4178,1.3467,11.8381,1445,2880.32
25359,-3.0945,-1.4629,12.317,1450,2880.32
25364,-3.2214,1.9704,9.1339,1451,2879.63
25369,1.81,3.5985,10.1227,1444,2879.63
25374,1.069,1.962,11.5185,1451,2879.63
25379,-2.3631,-1.4557,12.4331,1437,2879.63
25384,-4.1623,1.5395,9.4978,1443,2879.63
25389,1.5119,3.3339,9.8509,1455,2879.49
25394,2.1883,2.6492,11.2372,1451,2879.49
25399,-1.8292,-1.0187,12.4858,1439,2879.49
25404,-4.6687,0.9278,10.1921,1450,2879.49
25409,0.8978,3.0825,9.5337,1455,2879.49
25414,2.5738,3.292,10.9235,1445,2879.49
25419,-1.5826,-0.4178,12.4331,1439,2879.49
25424,-4.7633,0.2274,10.8002,1445,2879.49
25429,0.0874,2.8228,9.2237,1459,2879.35
25434,2.4445,3.6871,10.6925,1446,2879.35
25439,-1.7681,0.2933,12.3349,1439,2879.35
25444,-4.4137,-0.4142,11.3856,1453,2879.35
25449,-0.9254,2.6037,8.9818,1459,2878.94
25454,2.2613,3.8762,10.5093,1444,2878.94
25459,-1.4964,0.8894,12.044,1449,2878.94
25464,-3.7792,-1.069,11.892,1448,2878.94
25469,-2.0913,2.3415,8.904,1467,2879.91
25474,2.0686,3.8199,10.2807,1450,2879.91
25479,-0.3615,1.3659,11.789,1446,2879.91
25484,-3.0311,-1.5071,12.1913,1451,2879.91
25489,-3.2573,1.9225,9.1925,1466,2879.35
25494,1.7968,3.5566,10.1143,1439,2879.35
25499,1.0606,1.968,11.5424,1453,2879.35
25504,-2.375,-1.4844,12.4044,1443,2879.35
25509,-4.1755,1.5071,9.566,1443,2879.35
25514,1.4676,3.3076,9.8976,1455,2879.22
25519,2.2015,2.6959,11.3114,1449,2879.22
25524,-1.8136,-1.0618,12.4882,1445,2879.22
25529,-4.6807,0.9577,10.2005,1451,2879.22
25534,0.9122,3.1364,9.5134,1451,2879.22
25539,2.6444,3.3124,10.8721,1445,2879.22
25544,-1.5993,-0.3879,12.5013,1439,2879.22
25549,-4.6855,0.2921,10.8661,1439,2879.22
25554,0.1293,2.8886,9.1315,1459,2879.35
25559,2.5079,3.723,10.647,1447,2879.35
25564,-1.6759,0.261,12.3134,1438,2879.35
25569,-4.4149,-0.4968,11.3832,1453,2879.35
25574,-0.8679,2.5917,8.9136,1465,2879.35
25579,2.2494,3.8283,10.5297,1445,2879.35
25584,-1.4102,0.8248,12.1003,1449,2879.35
25589,-3.8343,-1.1049,11.9267,1447,2879.35
25594,-2.0423,2.3403,8.8394,1470,2879.35
25599,2.0243,3.8343,10.3669,1449,2879.35
25604,-0.4453,1.3228,11.8345,1447,2879.35
25609,-3.0706,-1.4736,12.2679,1453,2879.35
25614,-3.2178,1.9549,9.1351,1468,2879.35
25619,1.8184,3.6021,10.1909,1445,2879.35
25624,1.0846,1.9776,11.5257,1455,2879.35
25629,-2.3331,-1.4341,12.4439,1448,2879.35
25634,-4.1731,1.5311,9.56,1443,2879.35
25639,1.5024,3.3639,9.8988,1453,2879.63
25644,2.1883,2.6576,11.2276,1449,2879.63
25649,-1.7873,-1.1109,12.5013,1439,2879.63
25654,-4.6711,0.9134,10.1514,1452,2879.63
25659,0.8954,3.0634,9.4631,1450,2880.18
25664,2.5726,3.2765,10.8637,1449,2880.18
25669,-1.6065,-0.4202,12.4582,1438,2880.18
25674,-4.8064,0.316,10.8302,1445,2880.18
25679,0.1987,2.9078,9.2847,1462,2880.32
25684,2.4995,3.7182,10.6231,1448,2880.32
25689,-1.749,0.2693,12.3613,1437,2880.32
25694,-4.3993,-0.3938,11.4491,1451,2880.32
25699,-0.8464,2.6312,8.9579,1467,2880.6
25704,2.2769,3.887,10.4447,1444,2880.6
25709,-1.4533,0.8775,12.0835,1449,2880.6
25714,-3.8595,-1.057,11.8681,1448,2880.6
25719,-1.9752,2.3463,8.9148,1465,2880.46
25724,2.0806,3.7912,10.2807,1447,2880.46
25729,-0.4597,1.3479,11.8274,1445,2880.46
25734,-3.1472,-1.4844,12.1841,1453,2880.46
25739,-3.2142,1.9764,9.1614,1467,2880.88
25744,1.7957,3.5231,10.1442,1443,2880.88
25749,1.0068,1.9465,11.5448,1454,2880.88
25754,-2.4421,-1.5,12.4211,1443,2880.88
25759,-4.118,1.5419,9.5505,1447,2880.88
25764,1.5036,3.3291,9.8402,1455,2880.74
25769,2.1332,2.6564,11.2085,1449,2880.74
25774,-1.9046,-1.0702,12.5755,1444,2880.74
25779,-4.6543,1.0008,10.1526,1453,2880.74
25784,1.0259,3.1304,9.5577,1459,2880.74
25789,2.6252,3.3459,10.9152,1445,2880.74
25794,-1.6771,-0.3903,12.4834,1437,2880.74
25799,-4.7202,0.3352,10.8218,1448,2880.74
25804,0.2658,2.9353,9.1518,1463,2881.01
25809,2.5163,3.6739,10.6757,1447,2881.01
25814,-1.7621,0.231,12.3014,1437,2881.01
25819,-4.4173,-0.4405,11.3437,1453,2881.01
25824,-0.7997,2.6348,8.9064,1455,2881.29
25829,2.2386,3.8595,10.5309,1444,2881.29
25834,-1.4868,0.7793,12.0979,1448,2881.29
25839,-3.8954,-1.0044,11.874,1447,2881.29
25844,-1.9201,2.3535,8.8909,1465,2881.71
25849,2.065,3.8523,10.3801,1447,2881.71
25854,-0.5686,1.2582,11.8573,1445,2881.71
25859,-3.1807,-1.4329,12.2523,1447,2881.71
25864,-3.0981,2.0662,9.1518,1455,2881.71
25869,1.889,3.6775,10.1957,1445,2881.71
25874,0.9062,1.8699,11.5604,1453,2881.71
25879,-2.4912,-1.5263,12.4331,1438,2881.71
25884,-4.0402,1.6209,9.4643,1443,2881.71
25889,1.6029,3.3363,9.8605,1454,2881.98
25894,2.065,2.5259,11.2647,1451,2881.98
25899,-1.913,-1.221,12.5061,1439,2881.98
25904,-4.5993,1.0367,10.0509,1452,2881.98
25909,1.0271,3.1161,9.5888,1453,2881.84
25914,2.5522,3.1867,10.9726,1444,2881.84
25919,-1.6532,-0.5267,12.4786,1443,2881.84
25924,-4.7752,0.4393,10.7296,1446,2881.84
25929,0.3603,2.9042,9.2308,1461,2881.98
25934,2.5402,3.6619,10.6566,1447,2881.98
25939,-1.7909,0.1963,12.4127,1439,2881.98
25944,-4.5035,-0.2478,11.2803,1451,2881.98
25949,-0.6009,2.7258,8.9579,1459,2881.84
25954,2.3679,3.8738,10.4615,1443,2881.84
25959,-1.5706,0.7649,12.1937,1450,2881.84
25964,-3.9588,-0.929,11.7735,1447,2881.84
25969,-1.7466,2.3703,8.8729,1465,2881.71
25974,2.0913,3.7757,10.3872,1448,2881.71
25979,-0.7374,1.2127,11.8812,1445,2881.71
25984,-3.2334,-1.4006,12.1218,1447,2881.71
25989,-2.9293,1.9956,9.0285,1467,2881.43
25994,1.8483,3.5889,10.2244,1444,2881.43
25999,0.6548,1.8292,11.649,1451,2881.43
26004,-2.5989,-1.5562,12.4103,1439,2881.43
26009,-3.9947,1.6688,9.426,1447,2881.43
26014,1.5778,3.3902,9.9515,1455,2881.01
26019,1.9082,2.4983,11.3749,1453,2881.01
26024,-1.9812,-1.1851,12.4678,1443,2881.01
26029,-4.5574,1.154,9.9335,1455,2881.01
26034,1.1456,3.1891,9.5876,1450,2881.01
26039,2.5391,3.1556,11.0145,1445,2881.01
26044,-1.664,-0.5626,12.4941,1447,2881.01
26049,-4.7238,0.4776,10.6051,1447,2881.01
26054,0.3795,2.9018,9.1842,1459,2880.6
26059,2.569,3.5961,10.7033,1445,2880.6
26064,-1.6807,0.0658,12.3242,1439,2880.6
26069,-4.5598,-0.2562,11.2539,1449,2880.6
26074,-0.5698,2.6707,8.9783,1459,2880.32
26079,2.3116,3.8738,10.5117,1437,2880.32
26084,-1.6113,0.6895,12.135,1447,2880.32
26089,-4.045,-0.8739,11.7675,1448,2880.32
26094,-1.6747,2.4134,8.8789,1465,2880.88
26099,2.1452,3.8523,10.4208,1453,2880.88
26104,-0.82,1.227,11.9363,1445,2880.88
26109,-3.3674,-1.3503,12.202,1444,2880.88
26114,-2.8024,2.1117,9.0166,1459,2880.74
26119,1.9776,3.6739,10.2376,1445,2880.74
26124,0.5734,1.7466,11.6502,1451,2880.74
26129,-2.5953,-1.5634,12.3912,1435,2880.74
26134,-3.8786,1.6712,9.3697,1447,2880.74
26139,1.6436,3.3351,9.9335,1453,2880.74
26144,1.9537,2.3822,11.3796,1449,2880.74
26149,-2.0195,-1.3396,12.5085,1439,2880.74
26154,-4.549,1.1564,9.9551,1453,2880.74
26159,1.1672,3.152,9.5744,1453,2880.74
26164,2.4972,3.1424,11.0337,1446,2880.74
26169,-1.7382,-0.6189,12.5073,1445,2880.74
26174,-4.7645,0.5782,10.5764,1439,2880.74
26179,0.4729,3.0047,9.2871,1460,2880.32
26184,2.5486,3.6512,10.7296,1445,2880.32
26189,-1.7107,0.0994,12.4475,1443,2880.32
26194,-4.5226,-0.1353,11.2085,1447,2880.32
26199,-0.4046,2.7497,9.0094,1463,2880.18
26204,2.3774,3.8343,10.5201,1443,2880.18
26209,-1.6448,0.6261,12.1949,1449,2880.18
26214,-3.9899,-0.8847,11.7017,1448,2880.18
26219,-1.5826,2.411,8.8633,1467,2880.05
26224,2.1296,3.8068,10.4591,1451,2880.05
26229,-0.8248,1.1492,11.8992,1443,2880.05
26234,-3.4046,-1.4341,12.1733,1445,2880.05
26239,-2.812,2.1332,9.0321,1477,2880.18
26244,1.9225,3.6392,10.2041,1445,2880.18
26249,0.486,1.7573,11.6011,1455,2880.18
26254,-2.6839,-1.5251,12.3996,1443,2880.18
26259,-3.8104,1.7394,9.4092,1449,2880.18
26264,1.6472,3.4584,10.0185,1456,2880.05
26269,1.8387,2.4325,11.3318,1451,2880.05
26274,-2.047,-1.2091,12.5001,1435,2880.05
26279,-4.5226,1.2522,9.9084,1455,2880.05
26284,1.2486,3.1879,9.7229,1456,2880.46
26289,2.5175,3.0023,11.048,1443,2880.46
26294,-1.6735,-0.7099,12.4834,1444,2880.46
26299,-4.7393,0.5171,10.5764,1442,2880.46
26304,0.486,2.9317,9.2739,1459,2880.6
26309,2.5391,3.5338,10.732,1445,2880.6
26314,-1.6747,-0.0227,12.3457,1438,2880.6
26319,-4.6172,-0.1664,11.1725,1449,2880.6
26324,-0.3986,2.7473,8.989,1465,2880.74
26329,2.3487,3.8475,10.55,1446,2880.74
26334,-1.646,0.6476,12.2009,1449,2880.74
26339,-4.1779,-0.7745,11.7687,1445,2880.74
26344,-1.5024,2.4636,8.8969,1465,2881.15
26349,2.1715,3.8882,10.3465,1451,2881.15
26354,-0.9828,1.1456,11.9195,1445,2881.15
26359,-3.4477,-1.2857,12.0776,1461,2881.15
26364,-2.66,2.1404,9.007,1477,2881.71
26369,1.9225,3.699,10.2244,1447,2881.71
26374,0.3938,1.6759,11.6705,1453,2881.71
26379,-2.5989,-1.5874,12.3816,1439,2881.71
26384,-3.784,1.6532,9.3111,1449,2881.29
26389,1.6376,3.3806,10.0521,1455,2881.29
26394,1.7322,2.3296,11.3545,1449,2881.29
26399,-2.1165,-1.3324,12.5097,1440,2881.29
26404,-4.5669,1.2833,9.8701,1455,2881.29
26409,1.2474,3.2022,9.7528,1451,2881.15
26414,2.4529,3.0287,11.1151,1445,2881.15
26419,-1.7071,-0.7027,12.5241,1447,2881.15
26424,-4.7274,0.65,10.4543,1449,2881.15
26429,0.6081,3.0155,9.3254,1453,2880.6
26434,2.6217,3.5231,10.7368,1448,2880.6
26439,-1.6328,0.0108,12.4319,1443,2880.6
26444,-4.549,-0.0706,11.1187,1445,2880.6
26449,-0.2885,2.7737,9.0333,1460,2880.32
26454,2.3906,3.79,10.5453,1446,2880.32
26459,-1.7059,0.516,12.1985,1445,2880.32
26464,-4.1144,-0.8368,11.643,1447,2880.32
26469,-1.4784,2.4229,8.91,1465,2880.32
26474,2.1548,3.8475,10.4267,1452,2880.32
26479,-1.1001,1.0762,11.983,1439,2880.32
26484,-3.4524,-1.2917,12.0931,1447,2880.32
26489,-2.6695,2.1847,8.9759,1450,2880.05
26494,1.9513,3.7302,10.2699,1447,2880.05
26499,0.267,1.6125,11.8022,1448,2880.05
26504,-2.721,-1.5,12.3756,1444,2880.05
26509,-3.7206,1.7837,9.3254,1455,2879.63
26514,1.7142,3.4955,9.9778,1447,2879.63
26519,1.7035,2.2924,11.4491,1447,2879.63
26524,-2.0877,-1.3479,12.4726,1437,2879.63
26529,-4.4221,1.2725,9.7767,1454,2879.63
26534,1.3024,3.1771,9.6462,1453,2880.05
26539,2.4983,2.903,11.0804,1443,2880.05
26544,-1.6759,-0.8176,12.4965,1446,2880.05
26549,-4.7178,0.583,10.4926,1445,2880.05
26554,0.5698,2.9245,9.3338,1459,2879.77
26559,2.5438,3.5195,10.7811,1443,2879.77
26564,-1.7286,-0.0551,12.4391,1443,2879.77
26569,-4.6675,-0.0646,11.1187,1447,2879.77
26574,-0.2729,2.7402,9.0836,1449,2879.35
26579,2.3691,3.8571,10.6087,1447,2879.35
26591,0.0,-1.0618,16.9318,1447,2879.35
26594,-1.3527,2.5007,8.8765,1462,2880.05
26599,2.1823,3.9085,10.422,1451,2880.05
26604,-1.0475,1.0965,11.9159,1447,2880.05
26609,-3.4812,-1.3132,12.0524,1447,2880.05
26614,-2.5809,2.1524,8.9818,1479,2879.49
26619,1.9549,3.6667,10.2711,1447,2879.49
26624,0.2646,1.6041,11.7064,1453,2879.49
26629,-2.7509,-1.6113,12.3577,1439,2879.49
26634,-3.7062,1.7358,9.3206,1451,2879.49
26639,1.6831,3.4441,10.0173,1459,2879.49
26644,1.652,2.2374,11.4299,1451,2879.49
26649,-2.15,-1.3192,12.5253,1439,2879.49
26654,-4.5047,1.3084,9.8952,1453,2879.49
26659,1.2605,3.2429,9.8294,1455,2879.35
26664,2.4397,2.9796,11.0325,1445,2879.35
26669,-1.6735,-0.729,12.4702,1447,2879.35
26674,-4.713,0.7015,10.4136,1448,2879.35
26679,0.6476,3.0095,9.3577,1463,2879.22
26684,2.6097,3.5015,10.75,1447,2879.22
26689,-1.6484,-0.0515,12.408,1439,2879.22
26694,-4.537,-0.0611,11.0732,1448,2879.22
26699,-0.3316,2.7282,9.0381,1468,2878.8
26704,2.3499,3.7553,10.4962,1445,2878.8
26709,-1.6041,0.5327,12.2116,1451,2878.8
26714,-4.1982,-0.7769,11.6538,1450,2878.8
26719,-1.4066,2.4804,8.9519,1468,2879.08
26724,2.1488,3.869,10.4244,1453,2879.08
26729,-1.1384,1.0977,11.9961,1447,2879.08
26734,-3.4812,-1.2306,12.0883,1447,2879.08
26739,-2.6252,2.1644,8.989,1463,2879.22
26744,1.9549,3.7745,10.2448,1448,2879.22
26749,0.2777,1.6472,11.716,1453,2879.22
26754,-2.7461,-1.5203,12.3325,1442,2879.22
26759,-3.6859,1.7813,9.3194,1446,2879.22
26764,1.7226,3.4764,10.0281,1459,2879.08
26769,1.6664,2.2889,11.3976,1453,2879.08
26774,-2.0506,-1.3491,12.4439,1439,2879.08
26779,-4.4317,1.2294,9.8114,1455,2879.08
26784,1.2474,3.1927,9.6869,1455,2879.22
26789,2.4804,2.9461,11.1103,1461,2879.22
26794,-1.7107,-0.8368,12.5121,1447,2879.22
26799,-4.7908,0.6752,10.4447,1447,2879.22
26804,0.5866,3.0131,9.3541,1463,2879.35
26809,2.551,3.5745,10.7763,1447,2879.35
26814,-1.7382,-0.012,12.396,1443,2879.35
26819,-4.628,-0.0072,11.06,1449,2879.35
26824,-0.2705,2.7797,9.0788,1453,2879.22
26829,2.4086,3.8439,10.5129,1446,2879.22
26834,-1.7549,0.571,12.2511,1425,2879.22
26839,-4.1025,-0.6979,11.6729,1449,2879.22
26844,-1.4281,2.5175,8.8729,1469,2879.22
26849,2.1775,3.8714,10.4112,1451,2879.22
26854,-1.0044,1.093,11.9926,1444,2879.22
26859,-3.5027,-1.3264,12.0488,1449,2879.22
26864,-2.6228,2.1225,8.9328,1471,2879.08
26869,1.9656,3.6368,10.2388,1443,2879.08
26874,0.1975,1.6017,11.6897,1451,2879.08
26879,-2.733,-1.5467,12.3696,1439,2879.08
26884,-3.7098,1.7681,9.3122,1446,2879.08
26889,1.658,3.4716,10.0592,1456,2878.94
26894,1.6532,2.3224,11.3629,1451,2878.94
26899,-2.1045,-1.2677,12.5408,1434,2878.94
26904,-4.4592,1.2953,9.8725,1459,2878.94
26909,1.2689,3.219,9.6929,1455,2879.22
26914,2.5151,2.9832,11.1139,1446,2879.22
26919,-1.6939,-0.7266,12.5013,1443,2879.22
26924,-4.7393,0.595,10.4818,1447,2879.22
26929,0.6393,2.9628,9.3266,1461,2879.08
26934,2.5965,3.5003,10.8266,1448,2879.08
26939,-1.64,-0.0431,12.3852,1439,2879.08
26944,-4.5777,-0.1173,11.0947,1450,2879.08
26949,-0.2825,2.6959,9.0752,1470,2878.94
26954,2.3463,3.8247,10.5931,1449,2878.94
26959,-1.6963,0.5686,12.1973,1451,2878.94
26964,-4.1599,-0.7661,11.6346,1448,2878.94
26969,-1.391,2.5019,8.9519,1467,2878.66
26974,2.1727,3.8942,10.4196,1451,2878.66
26979,-1.0846,1.1492,11.9542,1447,2878.66
26984,-3.4967,-1.2725,12.0776,1450,2878.66
26989,-2.6097,2.2051,9.0393,1464,2878.25
26994,1.9968,3.6883,10.2568,1443,2878.25
26999,0.31,1.6568,11.6789,1454,2878.25
27004,-2.6504,-1.4988,12.3493,1439,2878.25
27009,-3.7338,1.7514,9.3362,1446,2878.25
27014,1.6484,3.4345,9.9563,1453,2878.8
27019,1.7154,2.3188,11.3641,1449,2878.8
27024,-2.0518,-1.3719,12.469,1443,2878.8
27029,-4.4807,1.2522,9.8617,1453,2878.8
27034,1.2282,3.1783,9.6881,1454,2878.39
27039,2.4912,2.9928,11.0732,1447,2878.39
27044,-1.6999,-0.7135,12.4822,1445,2878.39
27049,-4.7501,0.6704,10.5034,1449,2878.39
27054,0.6045,3.0358,9.329,1461,2878.39
27059,2.5774,3.5578,10.7967,1459,2878.39
27064,-1.7023,-0.0215,12.4175,1440,2878.39
27069,-4.5334,-0.0563,11.1211,1452,2878.39
27074,-0.3567,2.7569,9.0297,1455,2877.97
27079,2.3942,3.8199,10.507,1448,2877.97
27084,-1.5586,0.6093,12.2308,1449,2877.97
27089,-4.0965,-0.7961,11.6993,1448,2877.97
27094,-1.4557,2.4529,8.8885,1462,2878.25
27099,2.1237,3.7852,10.3884,1451,2878.25
27104,-1.0223,1.0942,11.9076,1447,2878.25
27109,-3.3782,-1.336,12.0967,1454,2878.25
27114,-2.7222,2.0877,9.0166,1468,2877.97
27119,1.8842,3.6907,10.2699,1445,2877.97
27124,0.3412,1.6771,11.6945,1453,2877.97
27129,-2.7007,-1.4772,12.3876,1445,2877.97
27134,-3.784,1.7885,9.4367,1447,2877.97
27139,1.6903,3.4548,10.0114,1455,2877.7
27144,1.7466,2.3535,11.3222,1451,2877.7
27149,-1.9812,-1.2677,12.4451,1439,2877.7
27154,-4.4472,1.1875,9.8749,1448,2877.7
27159,1.1576,3.1699,9.6199,1459,2878.53
27164,2.4995,3.049,10.9966,1447,2878.53
27169,-1.6281,-0.6931,12.5301,1443,2878.53
27174,-4.7369,0.5028,10.5393,1449,2878.53
27179,0.4956,2.9018,9.3218,1463,2879.08
27184,2.5391,3.5542,10.7332,1445,2879.08
27189,-1.7035,-0.0287,12.311,1445,2879.08
27194,-4.5813,-0.1724,11.1797,1453,2879.08
27199,-0.4788,2.739,9.0441,1470,2879.49
27204,2.32,3.875,10.5477,1448,2879.49
27209,-1.6257,0.6835,12.2009,1449,2879.49
27214,-4.1695,-0.7913,11.7292,1447,2879.49
27219,-1.5419,2.5043,8.8789,1466,2879.63
27224,2.2122,3.8906,10.4052,1448,2879.63
27229,-0.9972,1.1552,11.9471,1445,2879.63
27234,-3.3758,-1.3228,12.1482,1453,2879.63
27239,-2.721,2.1081,9.0525,1450,2880.32
27244,1.9082,3.6751,10.2448,1439,2880.32
27249,0.4381,1.6867,11.6155,1456,2880.32
27254,-2.6552,-1.5933,12.3361,1447,2880.32
27259,-3.8056,1.719,9.3577,1447,2880.32
27264,1.6999,3.3818,9.9635,1455,2880.6
27269,1.7645,2.3691,11.4203,1449,2880.6
27274,-2.0267,-1.3108,12.5348,1444,2880.6
27279,-4.5023,1.2198,9.8928,1449,2880.6
27284,1.2186,3.1795,9.6594,1455,2880.32
27289,2.4948,3.0466,11.0923,1447,2880.32
27294,-1.6568,-0.668,12.4882,1439,2880.32
27299,-4.798,0.6189,10.5536,1449,2880.32
27304,0.583,2.9772,9.3158,1463,2880.18
27309,2.6061,3.565,10.7763,1447,2880.18
27314,-1.6712,0.0323,12.3936,1443,2880.18
27319,-4.5346,-0.1257,11.1211,1453,2880.18
27324,-0.3496,2.7222,9.0321,1467,2879.91
27329,2.3715,3.8235,10.5572,1445,2879.91
27334,-1.6053,0.5914,12.1649,1450,2879.91
27339,-4.0606,-0.8428,11.7029,1451,2879.91
27344,-1.5239,2.4529,8.843,1469,2879.91
27349,2.1213,3.8415,10.3741,1448,2879.91
27354,-0.9577,1.0894,11.9626,1449,2879.91
27359,-3.4536,-1.3384,12.1218,1456,2879.91
27364,-2.7078,2.1189,9.0369,1463,2879.49
27369,1.9381,3.7302,10.2819,1447,2879.49
27374,0.3771,1.6795,11.6681,1456,2879.49
27379,-2.7857,-1.4844,12.3265,1445,2879.49
27384,-3.7637,1.7693,9.3398,1447,2879.49
27389,1.6807,3.4848,9.9778,1459,2880.88
27394,1.743,2.296,11.3401,1449,2880.88
27399,-2.0698,-1.306,12.4738,1445,2880.88
27404,-4.4592,1.2246,9.8833,1455,2880.88
27409,1.2498,3.1843,9.7396,1461,2880.74
27414,2.5019,3.0071,11.0756,1445,2880.74
27419,-1.6831,-0.747,12.5205,1444,2880.74
27424,-4.786,0.6057,10.5201,1448,2880.74
27429,0.5746,2.9413,9.2775,1461,2880.88
27434,2.5522,3.5422,10.7404,1447,2880.88
27439,-1.7502,-0.0503,12.3565,1444,2880.88
27444,-4.6603,-0.0802,11.1342,1455,2880.88
27449,-0.3172,2.7354,9.0752,1463,2881.15
27454,2.3858,3.8858,10.5812,1443,2881.15
27459,-1.7298,0.6009,12.2583,1449,2881.15
27464,-4.142,-0.6871,11.6298,1449,2881.15
27469,-1.409,2.4876,8.843,1469,2881.29
27474,2.2063,3.881,10.3621,1451,2881.29
27479,-1.0439,1.1001,12.044,1446,2881.29
27484,-3.4943,-1.2953,12.1015,1451,2881.29
27489,-2.5869,2.1488,8.9627,1467,2881.15
27494,1.9237,3.6643,10.1981,1447,2881.15
27499,0.231,1.6209,11.6957,1453,2881.15
27504,-2.8,-1.5778,12.2918,1445,2881.15
27509,-3.735,1.7657,9.3087,1438,2881.15
27514,1.7178,3.4393,10.0772,1458,2881.29
27519,1.6149,2.2841,11.4515,1448,2881.29
27524,-2.1464,-1.3515,12.481,1447,2881.29
27529,-4.4245,1.2857,9.8186,1459,2881.29
27534,1.2809,3.2513,9.6953,1458,2881.57
27539,2.4289,3.0035,11.1187,1449,2881.57
27544,-1.7011,-0.7709,12.5384,1443,2881.57
27549,-4.7489,0.6357,10.4627,1449,2881.57
27554,0.6249,3.0059,9.3434,1462,2881.84
27559,2.6013,3.4848,10.8122,1445,2881.84
27564,-1.6843,-0.0934,12.4475,1447,2881.84
27569,-4.6029,-0.0132,11.0277,1451,2881.84
27574,-0.2047,2.7653,9.0285,1467,2881.71
27579,2.411,3.8032,10.5584,1437,2881.71
27584,-1.6999,0.4525,12.2428,1454,2881.71
27589,-4.2066,-0.7793,11.6071,1450,2881.71
27594,-1.2989,2.5151,8.8585,1469,2881.71
27599,2.1691,3.8678,10.3944,1452,2881.71
27604,-1.1349,1.0199,11.9483,1447,2881.71
27609,-3.6248,-1.257,12.0345,1451,2881.71
27614,-2.472,2.2434,8.9555,1469,2881.84
27619,2.0123,3.784,10.3011,1447,2881.84
27624,0.1041,1.5718,11.7555,1452,2881.84
27629,-2.8527,-1.5107,12.3481,1447,2881.84
27634,-3.5638,1.8771,9.2189,1448,2881.84
27639,1.7633,3.5326,10.0772,1459,2882.4
27644,1.5275,2.1931,11.4694,1445,2882.4
27649,-2.2194,-1.4317,12.4534,1447,2882.4
27654,-4.3718,1.385,9.7049,1455,2882.4
27659,1.3934,3.2429,9.7576,1456,2882.4
27664,2.4205,2.8048,11.151,1447,2882.4
27669,-1.7669,-0.9158,12.457,1447,2882.4
27674,-4.701,0.8068,10.2783,1447,2882.4
27679,0.7745,3.0131,9.3589,1464,2882.26
27684,2.6169,3.4273,10.8278,1445,2882.26
27689,-1.634,-0.1951,12.4989,1447,2882.26
27694,-4.7609,0.1448,10.9427,1449,2882.26
27699,-0.0419,2.8335,9.1423,1455,2882.4
27704,2.4744,3.7697,10.5908,1445,2882.4
27709,-1.7705,0.4441,12.3002,1453,2882.4
27714,-4.2976,-0.5543,11.5209,1451,2882.4
27719,-1.0965,2.5307,8.9364,1467,2882.26
27724,2.2386,3.8678,10.4232,1453,2882.26
27729,-1.2689,0.9469,12.0536,1448,2882.26
27734,-3.6823,-1.1624,12.0093,1448,2882.26
27739,-2.2733,2.2398,8.9459,1465,2881.43
27744,2.0231,3.7541,10.2939,1447,2881.43
27749,-0.1006,1.476,11.7567,1453,2881.43
27754,-3.0131,-1.567,12.2451,1444,2881.43
27759,-3.4165,1.8926,9.1195,1449,2881.43
27764,1.7801,3.5027,10.1323,1459,2882.81
27769,1.2773,2.1033,11.5029,1452,2882.81
27774,-2.3128,-1.4521,12.5169,1443,2882.81
27779,-4.2796,1.4796,9.6498,1455,2882.81
27784,1.4389,3.2968,9.7935,1455,2882.4
27789,2.2697,2.739,11.1498,1445,2882.4
27794,-1.8112,-0.9613,12.5636,1447,2882.4
27799,-4.6735,0.8464,10.2352,1451,2882.4
27804,0.8583,3.0933,9.4655,1464,2882.54
27809,2.5809,3.3255,10.9331,1449,2882.54
27814,-1.6436,-0.2538,12.5097,1445,2882.54
27819,-4.7094,0.2047,10.9212,1447,2882.54
27824,0.1113,2.8395,9.1207,1463,2883.23
27829,2.4972,3.7326,10.5788,1449,2883.23
27834,-1.7238,0.2813,12.3457,1445,2883.23
27839,-4.3574,-0.5363,11.4718,1449,2883.23
27844,-0.9361,2.5678,8.9304,1469,2883.65
27849,2.2613,3.881,10.477,1453,2883.65
27854,-1.4198,0.8535,12.0871,1447,2883.65
27859,-3.8415,-1.0882,11.9147,1444,2883.65
27864,-2.0566,2.3595,8.934,1471,2883.92
27869,2.0638,3.8343,10.3908,1450,2883.92
27874,-0.3831,1.3815,11.8489,1447,2883.92
27879,-3.1256,-1.4964,12.2176,1449,2883.92
27884,-3.1675,2.0506,9.1327,1461,2883.78
27889,1.8723,3.6296,10.1107,1445,2883.78
27894,1.0355,2.0063,11.5748,1445,2883.78
27899,-2.4253,-1.5048,12.4415,1444,2883.78
27904,-4.1168,1.5251,9.4906,1453,2883.78
27909,1.5526,3.3243,9.8438,1455,2883.65
27914,2.1572,2.5953,11.3258,1453,2883.65
27919,-1.8998,-1.1384,12.4929,1450,2883.65
27924,-4.7058,1.0307,10.0652,1447,2883.65
27929,1.0439,3.1232,9.5876,1447,2883.23
27934,2.6085,3.2477,10.9942,1452,2883.23
27939,-1.646,-0.4693,12.4762,1447,2883.23
27944,-4.8076,0.3819,10.7476,1447,2883.23
27949,0.2957,2.9365,9.1925,1455,2882.81
27954,2.5774,3.6703,10.6985,1451,2882.81
27959,-1.737,0.2215,12.4175,1445,2882.81
27964,-4.4927,-0.3148,11.3042,1445,2882.81
27969,-0.6728,2.7043,8.9399,1467,2882.68
27974,2.3224,3.8654,10.4962,1444,2882.68
27979,-1.4856,0.7721,12.1063,1449,2882.68
27984,-3.9181,-0.9888,11.8345,1447,2882.68
27989,-1.8064,2.3858,8.8717,1463,2882.68
27994,2.0566,3.7912,10.313,1455,2882.68
27999,-0.6321,1.2055,11.8154,1449,2882.68
28004,-3.2753,-1.4413,12.1805,1453,2882.68
28009,-3.0155,2.0183,9.0896,1479,2882.54
28014,1.8627,3.5877,10.1897,1445,2882.54
28019,0.7649,1.8088,11.6179,1453,2882.54
28024,-2.6228,-1.4653,12.457,1445,2882.54
28029,-3.9229,1.6628,9.4535,1459,2882.54
28034,1.6149,3.4069,9.9228,1453,2882.81
28039,1.9992,2.5067,11.297,1447,2882.81
28044,-1.9824,-1.2294,12.5145,1447,2882.81
28049,-4.5622,1.1349,9.9778,1439,2882.81
28054,1.1205,3.1699,9.5301,1451,2882.68
28059,2.5726,3.1292,11.0588,1451,2882.68
28064,-1.6676,-0.5866,12.5324,1447,2882.68
28069,-4.7597,0.4573,10.5836,1446,2882.68
28074,0.4776,2.9054,9.2344,1462,2882.81
28079,2.5474,3.6081,10.6698,1445,2882.81
28084,-1.7119,0.0886,12.402,1439,2882.81
28089,-4.5442,-0.2634,11.2384,1453,2882.81
28094,-0.5459,2.6959,9.0202,1470,2882.54
28099,2.3116,3.8415,10.5213,1449,2882.54
28104,-1.6137,0.6812,12.2032,1445,2882.54
28109,-4.0534,-0.8416,11.7376,1447,2882.54
28114,-1.6257,2.4469,8.8765,1477,2882.4
28119,2.1632,3.9073,10.398,1453,2882.4
28124,-0.8452,1.2234,11.9662,1445,2882.4
28129,-3.4141,-1.3551,12.1649,1455,2882.4
28134,-2.7461,2.1464,9.0513,1472,2882.81
28139,1.9704,3.6727,10.1586,1443,2882.81
28144,0.5052,1.7334,11.6502,1453,2882.81
28149,-2.6432,-1.5455,12.3756,1447,2882.81
28154,-3.8463,1.6939,9.3733,1455,2882.81
28159,1.6364,3.371,9.9707,1451,2882.4
28164,1.8256,2.3571,11.3545,1447,2882.4
28169,-2.0973,-1.3539,12.4858,1447,2882.4
28174,-4.5705,1.2019,9.906,1444,2882.4
28179,1.2163,3.1855,9.6319,1452,2882.4
28184,2.4948,3.0394,11.0648,1444,2882.4
28189,-1.7298,-0.7135,12.5157,1447,2882.4
28194,-4.7692,0.6081,10.586,1447,2882.4
28199,0.5818,2.9724,9.2847,1461,2882.12
28204,2.6073,3.5805,10.7117,1449,2882.12
28209,-1.6963,0.0455,12.4427,1445,2882.12
28214,-4.549,-0.085,11.139,1451,2882.12
28219,-0.2873,2.7761,9.0202,1469,2881.98
28224,2.4313,3.8511,10.5321,1447,2881.98
28229,-1.6233,0.5842,12.1817,1449,2881.98
28234,-4.1707,-0.8116,11.655,1447,2881.98
28239,-1.4126,2.4576,8.8609,1467,2882.54
28244,2.1739,3.8535,10.3848,1449,2882.54
28249,0.5638,1.7801,11.7208,1445,2882.54
28254,-3.5051,-1.3036,12.0931,1453,2882.54
28259,-3.9217,1.7178,9.4008,1467,2882.68
28264,1.962,3.6691,10.2508,1444,2882.68
28269,1.8783,2.472,11.4275,1455,2882.68
28274,-2.0494,-1.2079,12.5217,1448,2882.68
28279,-4.5705,1.1791,9.9479,1445,2882.68
28284,1.2067,3.201,9.6187,1453,2882.81
28289,2.5295,3.0586,11.0373,1449,2882.81
28294,-1.6712,-0.6656,12.4642,1439,2882.81
28299,-4.7525,0.5638,10.5369,1449,2882.81
28304,0.4824,2.9245,9.2512,1453,2883.23
28309,2.5953,3.5207,10.8026,1446,2883.23
28314,-1.7011,-0.0156,12.402,1445,2883.23
28319,-4.5993,-0.1832,11.1498,1443,2883.23
28324,-0.4238,2.7186,8.9663,1463,2882.81
28329,2.3415,3.8056,10.5357,1449,2882.81
28334,-1.6939,0.6093,12.1949,1436,2882.81
28339,-4.1456,-0.7685,11.7148,1454,2882.81
28344,-1.5479,2.4756,8.9507,1471,2882.68
28349,2.1308,3.8726,10.4148,1447,2882.68
28354,-0.9828,1.1229,11.9782,1450,2882.68
28359,-3.4333,-1.2641,12.0536,1449,2882.68
28364,-2.6695,2.1296,8.9998,1459,2882.12
28369,1.9728,3.7002,10.2532,1444,2882.12
28374,0.413,1.6867,11.649,1444,2882.12
28379,-2.6911,-1.5826,12.3541,1452,2882.12
28384,-3.7637,1.7382,9.3338,1461,2881.43
28389,1.6688,3.4117,9.9874,1446,2881.43
28394,1.7322,2.2913,11.327,1458,2881.43
28399,-2.1189,-1.3874,12.4295,1447,2881.43
28404,-4.5047,1.2641,9.8138,1447,2881.43
28409,1.2486,3.2082,9.7073,1460,2881.57
28414,2.4672,2.9628,11.1163,1448,2881.57
28419,-1.7597,-0.7147,12.5384,1444,2881.57
28424,-4.7238,0.7087,10.4878,1453,2881.57
28429,0.6081,3.0358,9.3434,1455,2880.88
28434,2.6348,3.5111,10.7775,1447,2880.88
28439,-1.6688,-0.0706,12.4032,1440,2880.88
28444,-4.5645,-0.0646,11.0672,1444,2880.88
28449,-0.2203,2.7318,9.0321,1463,2880.6
28454,2.4385,3.7996,10.5728,1447,2880.6
28459,-1.6568,0.5291,12.2344,1445,2880.6
28464,-4.0929,-0.8116,11.6837,1459,2880.6
28469,-1.4078,2.4732,8.8705,1468,2880.6
28474,2.1644,3.8295,10.4112,1445,2880.6
28479,-1.1133,1.0247,12.0309,1449,2880.6
28484,-3.5314,-1.3396,12.0129,1450,2880.6
28489,-2.5774,2.1751,8.9316,1467,2880.46
28494,1.9417,3.7194,10.2556,1451,2880.46
28499,0.2143,1.6676,11.7328,1445,2880.46
28504,-2.7785,-1.5143,12.3433,1451,2880.46
28509,-3.6559,1.8579,9.2608,1472,2880.88
28514,1.7298,3.4979,10.0377,1445,2880.88
28519,1.6041,2.2494,11.4096,1459,2880.88
28524,-2.1368,-1.3791,12.4642,1443,2880.88
28529,-4.4448,1.2893,9.8222,1446,2880.88
28534,1.312,3.2358,9.7264,1455,2880.6
28539,2.496,2.9233,11.1079,1449,2880.6
28544,-1.7035,-0.8272,12.4822,1439,2880.6
28549,-4.7728,0.6955,10.4256,1455,2880.6
28554,0.6943,2.988,9.3398,1451,2881.57
28559,2.5821,3.5027,10.8374,1447,2881.57
28564,-1.664,-0.1508,12.4534,1439,2881.57
28569,-4.7022,0.0084,11.0313,1448,2881.57
28574,-0.176,2.8192,9.1075,1460,2881.01
28579,2.3786,3.8547,10.5249,1447,2881.01
28584,-1.7777,0.5303,12.2583,1439,2881.01
28589,-4.2162,-0.5734,11.6526,1453,2881.01
28594,-1.2689,2.5379,8.8861,1453,2880.74
28599,2.2697,3.8978,10.4052,1445,2880.74
28604,-1.1097,1.0307,12.0548,1450,2880.74
28609,-3.5721,-1.2785,12.0213,1448,2880.74
28614,-2.4337,2.1691,8.9004,1471,2880.6
28619,2.0458,3.7158,10.246,1449,2880.6
28624,0.1377,1.5909,11.7352,1447,2880.6
28629,-2.8359,-1.5275,12.3433,1453,2880.6
28634,-3.5554,1.8004,9.2416,1467,2880.6
28639,1.6999,3.4429,10.0281,1443,2880.6
28644,1.4868,2.2051,11.4718,1453,2880.6
28649,-2.1847,-1.4365,12.4917,1435,2880.6
28654,-4.3958,1.342,9.7133,1443,2880.6
28659,1.3348,3.2645,9.7683,1459,2879.77
28664,2.3954,2.8802,11.0995,1451,2879.77
28669,-1.7669,-0.7853,12.4858,1443,2879.77
28674,-4.6651,0.7961,10.3932,1451,2879.77
28679,0.7087,3.0442,9.3805,1455,2878.94
28684,2.6432,3.4321,10.8242,1447,2878.94
28689,-1.6293,-0.146,12.4151,1439,2878.94
28694,-4.555,-0.0012,10.981,1447,2878.94
28699,-0.1879,2.7174,9.0321,1463,2878.11
28704,2.4134,3.7625,10.5381,1447,2878.11
28709,-1.6328,0.4872,12.1877,1440,2878.11
28714,-4.2186,-0.6835,11.5843,1453,2878.11
28719,-1.2629,2.5007,8.8442,1465,2878.25
28724,2.1332,3.8607,10.4303,1445,2878.25
28729,-1.1887,1.0307,11.959,1453,2878.25
28734,-3.6057,-1.2594,11.9973,1451,2878.25
28739,-2.5079,2.2194,9.0106,1469,2878.25
28744,1.962,3.79,10.2879,1451,2878.25
28749,0.1341,1.5993,11.746,1445,2878.25
28754,-2.8204,-1.5227,12.3265,1453,2878.25
28759,-3.5949,1.8507,9.3075,1455,2878.39
28764,1.7561,3.4812,10.009,1440,2878.39
28769,1.6017,2.2494,11.3916,1455,2878.39
28774,-2.1596,-1.3755,12.4295,1447,2878.39
28779,-4.3694,1.3156,9.7648,1445,2878.39
28784,1.2893,3.1879,9.6905,1447,2878.25
28789,2.399,2.9018,11.1139,1449,2878.25
28794,-1.6999,-0.8475,12.4714,1443,2878.25
28799,-4.7908,0.6943,10.3729,1453,2878.25
28804,0.674,2.9916,9.3745,1451,2878.11
28809,2.5486,3.5255,10.7691,1445,2878.11
28814,-1.7549,-0.0754,12.4917,1439,2878.11
28819,-4.6148,-0.0275,11.0612,1445,2878.11
28824,-0.2011,2.8024,9.0249,1463,2878.39
28829,2.4086,3.8846,10.5489,1449,2878.39
28834,-1.7394,0.5219,12.2392,1439,2878.39
28839,-4.1827,-0.7123,11.6394,1454,2878.39
28844,-1.2773,2.484,8.8753,1471,2878.53
28849,2.2302,3.8355,10.386,1445,2878.53
28854,-1.1037,1.0451,11.9626,1450,2878.53
28859,-3.4776,-1.306,12.0835,1449,2878.53
28864,-2.5211,2.1668,8.9842,1480,2878.66
28869,1.9417,3.6931,10.2915,1447,2878.66
28874,0.1784,1.573,11.7088,1445,2878.66
28879,-2.7689,-1.6077,12.3277,1459,2878.66
28884,-3.6607,1.7669,9.317,1453,2878.8
28889,1.6053,3.4692,10.1179,1443,2878.8
28894,1.585,2.2924,11.4575,1454,2878.8
28899,-2.1356,-1.2869,12.4882,1447,2878.8
28904,-4.4017,1.3096,9.815,1445,2878.8
28909,1.2306,3.2765,9.7576,1453,2878.66
28914,2.5115,2.9401,11.066,1449,2878.66
28919,-1.6735,-0.7195,12.5109,1440,2878.66
28924,-4.7226,0.6632,10.5022,1449,2878.66
28929,0.6728,2.9796,9.3601,1451,2879.22
28934,2.6228,3.4524,10.7512,1448,2879.22
28939,-1.652,-0.097,12.3553,1445,2879.22
28944,-4.5813,-0.0814,11.0696,1447,2879.22
28949,-0.2346,2.7605,9.0644,1467,2879.22
28954,2.3403,3.7888,10.5752,1448,2879.22
28959,-1.6556,0.5327,12.1913,1440,2879.22
28964,-4.1791,-0.7494,11.655,1451,2879.22
28969,-1.3551,2.4684,8.9232,1466,2879.22
28974,2.1584,3.9121,10.3645,1447,2879.22
28979,-1.1109,1.0786,12.0368,1445,2879.22
28984,-3.5219,-1.2653,12.0476,1445,2879.22
28989,-2.5474,2.2182,9.0549,1467,2879.63
28994,1.962,3.711,10.2304,1449,2879.63
28999,0.2394,1.6484,11.74,1446,2879.63
29004,-2.7689,-1.5251,12.2942,1458,2879.63
29009,-3.644,1.8028,9.3182,1470,2879.49
29014,1.7765,3.4129,9.9587,1439,2879.49
29019,1.6723,2.2589,11.4335,1459,2879.49
29024,-2.1009,-1.3946,12.5073,1453,2879.49
29029,-4.4388,1.2558,9.8665,1447,2879.49
29034,1.2246,3.219,9.7217,1451,2879.35
29039,2.3942,2.9066,11.0995,1448,2879.35
29044,-1.7346,-0.808,12.4834,1445,2879.35
29049,-4.774,0.6512,10.4339,1447,2879.35
29054,0.6668,2.97,9.3673,1453,2879.49
29059,2.569,3.5015,10.7907,1448,2879.49
29064,-1.6807,-0.0455,12.463,1447,2879.49
29069,-4.6088,0.0419,11.1223,1447,2879.49
29074,-0.261,2.7677,9.0273,1463,2879.49
29079,2.387,3.8331,10.5931,1449,2879.49
29084,-1.7059,0.5483,12.1829,1439,2879.49
29089,-4.1228,-0.759,11.5879,1453,2879.49
29094,-1.3515,2.4385,8.8454,1469,2879.49
29099,2.1632,3.8367,10.4172,1449,2879.49
29104,-1.0606,1.0511,11.9985,1451,2879.49
29109,-3.5075,-1.318,12.0488,1449,2879.49
29114,-2.5678,2.1668,8.989,1472,2879.35
29119,1.9345,3.6404,10.234,1447,2879.35
29124,0.1951,1.573,11.6705,1446,2879.35
29129,-2.7641,-1.5143,12.2858,1459,2879.35
29134,-3.6655,1.816,9.3206,1479,2879.08
29139,1.6843,3.4465,10.0461,1439,2879.08
29144,1.6185,2.314,11.4251,1455,2879.08
29149,-2.1524,-1.2881,12.4271,1447,2879.08
29154,-4.4017,1.3312,9.8438,1448,2879.08
29159,1.3563,3.2441,9.7097,1453,2878.8
29164,2.4828,3.0083,11.0864,1448,2878.8
29169,-1.7047,-0.7805,12.4666,1439,2878.8
29174,-4.719,0.6596,10.4962,1449,2878.8
29179,0.6452,2.9497,9.347,1455,2879.63
29184,2.6264,3.4704,10.8254,1450,2879.63
29189,-1.6951,-0.0634,12.3696,1447,2879.63
29194,-4.6459,-0.0515,11.1079,1447,2879.63
29199,-0.2251,2.7378,9.0034,1465,2879.91
29204,2.375,3.8056,10.5644,1447,2879.91
29209,-1.6891,0.5471,12.2212,1445,2879.91
29214,-4.2174,-0.735,11.6825,1453,2879.91
29219,-1.3216,2.5247,8.8813,1469,2880.32
29224,2.2063,3.8822,10.4052,1447,2880.32
29229,-1.1337,1.1097,11.9746,1448,2880.32
29234,-3.5051,-1.2641,12.0787,1451,2880.32
29239,-2.4983,2.2098,8.9687,1477,2880.18
29244,2.0147,3.6871,10.2795,1448,2880.18
29249,0.237,1.5646,11.6981,1447,2880.18
29254,-2.7964,-1.5838,12.3182,1455,2880.18
29259,-3.6404,1.7514,9.244,1471,2880.05
29264,1.7274,3.4548,10.0473,1445,2880.05
29269,1.6065,2.2206,11.4335,1455,2880.05
29274,-2.1763,-1.4329,12.4894,1446,2880.05
29279,-4.4424,1.2809,9.7875,1452,2880.05
29284,1.2749,3.2334,9.7659,1451,2879.49
29289,2.4157,2.9221,11.0995,1446,2879.49
29294,-1.7214,-0.8224,12.5301,1447,2879.49
29299,-4.7202,0.7039,10.4483,1447,2879.49
29304,0.6776,3.037,9.4128,1453,2879.35
29309,2.5845,3.4704,10.7679,1449,2879.35
29314,-1.6664,-0.0754,12.4522,1448,2879.35
29319,-4.6376,0.0395,11.072,1448,2879.35
29324,-0.1556,2.7617,9.0609,1461,2879.22
29329,2.3966,3.7816,10.5752,1449,2879.22
29334,-1.7131,0.486,12.1877,1447,2879.22
29339,-4.1659,-0.7494,11.6143,1449,2879.22
29344,-1.3072,2.5319,8.9064,1471,2879.22
29349,2.1249,3.8152,10.41,1448,2879.22
29354,-1.0594,1.0223,12.0213,1447,2879.22
29359,-3.62,-1.2737,12.0333,1449,2879.22
29364,-2.5666,2.1883,8.9974,1471,2879.49
29369,1.9549,3.6966,10.2484,1450,2879.49
29374,0.2023,1.5993,11.7184,1447,2879.49
29379,-2.8695,-1.5095,12.3182,1455,2879.49
29384,-3.6212,1.8459,9.3134,1471,2880.6
29389,1.7573,3.4608,10.0485,1444,2880.6
29394,1.573,2.2913,11.4467,1453,2880.6
29399,-2.1967,-1.3384,12.5061,1445,2880.6
29404,-4.3898,1.3312,9.7815,1449,2880.6
29409,1.2965,3.2094,9.6702,1449,2880.6
29414,2.4529,2.9054,11.1522,1449,2880.6
29419,-1.7346,-0.8284,12.4858,1445,2880.6
29424,-4.7309,0.6452,10.3992,1445,2880.6
29429,0.6776,2.9856,9.3398,1454,2880.46
29434,2.5546,3.4129,10.817,1447,2880.46
29439,-1.6664,-0.1065,12.384,1445,2880.46
29444,-4.6471,0.018,11.0684,1447,2880.46
29449,-0.2394,2.7569,9.0956,1463,2880.05
29454,2.3607,3.7984,10.6446,1449,2880.05
29459,-1.7609,0.5016,12.2619,1443,2880.05
29464,-4.1635,-0.6213,11.6203,1450,2880.05
29469,-1.3455,2.5115,8.9615,1469,2879.77
29474,2.2015,3.9002,10.4519,1449,2879.77
29479,-1.1576,1.0594,12.0225,1445,2879.77
29484,-3.5075,-1.2222,12.038,1449,2879.77
29489,-2.5139,2.1751,8.9711,1471,2879.49
29494,1.9716,3.6966,10.2807,1451,2879.49
29499,0.1269,1.5359,11.6598,1445,2879.49
29504,-2.7713,-1.5909,12.3254,1454,2879.49
29509,-3.6188,1.7837,9.2476,1465,2879.08
29514,1.6568,3.4285,10.0987,1439,2879.08
29519,1.567,2.2027,11.4239,1455,2879.08
29524,-2.1344,-1.3587,12.4726,1449,2879.08
29529,-4.4017,1.3096,9.7492,1453,2879.08
29534,1.2797,3.2561,9.7097,1451,2879.63
29539,2.4325,2.9161,11.0995,1445,2879.63
29544,-1.7154,-0.832,12.5241,1445,2879.63
29549,-4.6938,0.7386,10.3908,1447,2879.63
29554,0.65,3.0215,9.3422,1453,2879.49
29559,2.6085,3.5279,10.7787,1448,2879.49
29564,-1.7226,-0.1101,12.4415,1447,2879.49
29569,-4.5729,0.0239,11.0684,1446,2879.49
29574,-0.1832,2.7402,9.0249,1464,2879.77
29579,2.4002,3.7661,10.5297,1447,2879.77
29584,-1.6915,0.5231,12.2487,1445,2879.77
29589,-4.1982,-0.735,11.546,1451,2879.77
29594,-1.2953,2.4696,8.8717,1470,2880.05
29599,2.1859,3.8283,10.4208,1460,2880.05
29604,-1.1349,1.002,12.0141,1447,2880.05
29609,-3.5853,-1.2773,12.0261,1448,2880.05
29614,-2.4936,2.2146,8.9783,1471,2880.18
29619,1.9585,3.7134,10.258,1449,2880.18
29624,0.1197,1.561,11.8166,1447,2880.18
29629,-2.8335,-1.5095,12.3026,1455,2880.18
29634,-3.5733,1.8998,9.2416,1465,2879.77
29639,1.7466,3.5374,10.0114,1439,2879.77
29644,1.5514,2.2122,11.5221,1455,2879.77
29649,-2.1249,-1.3934,12.475,1449,2879.77
29654,-4.3814,1.3563,9.7145,1451,2879.77
29659,1.3336,3.1927,9.7241,1451,2881.15
29664,2.4696,2.8371,11.1163,1447,2881.15
29669,-1.6855,-0.8787,12.4343,1446,2881.15
29674,-4.7405,0.7159,10.386,1445,2881.15
29679,0.6764,3.0071,9.4092,1453,2880.88
29684,2.5462,3.4429,10.7775,1449,2880.88
29689,-1.6688,-0.1413,12.408,1447,2880.88
29694,-4.6783,0.0706,10.9666,1447,2880.88
29699,-0.1472,2.8252,9.1028,1460,2881.15
29704,2.4146,3.8032,10.5884,1449,2881.15
29709,-1.7334,0.498,12.2954,1444,2881.15
29714,-4.2796,-0.589,11.5999,1451,2881.15
29719,-1.2079,2.5558,8.916,1467,2881.29
29724,2.235,3.8666,10.4698,1447,2881.29
29729,-1.1971,1.008,11.9866,1447,2881.29
29734,-3.5973,-1.166,11.9782,1448,2881.29
29739,-2.3954,2.2051,8.9244,1469,2881.71
29744,2.0207,3.6966,10.2412,1447,2881.71
29749,0.0455,1.4904,11.7938,1447,2881.71
29754,-2.9006,-1.5467,12.3242,1453,2881.71
29759,-3.5231,1.8567,9.2428,1469,2881.57
29764,1.7226,3.4836,10.0712,1445,2881.57
29769,1.4222,2.0997,11.4658,1454,2881.57
29774,-2.2697,-1.4317,12.4522,1448,2881.57
29779,-4.3527,1.3683,9.6953,1450,2881.57
29784,1.3527,3.2657,9.7947,1453,2881.29
29789,2.3499,2.8706,11.212,1449,2881.29
29794,-1.8328,-0.8188,12.5684,1445,2881.29
29799,-4.7178,0.8487,10.3298,1451,2881.29
29804,0.8212,3.0394,9.3972,1454,2881.15
29809,2.6205,3.4429,10.8266,1451,2881.15
29814,-1.6676,-0.1832,12.4606,1447,2881.15
29819,-4.628,0.0874,10.9283,1446,2881.15
29824,-0.0359,2.8395,9.0537,1461,2881.01
29829,2.4445,3.7996,10.6075,1448,2881.01
29834,-1.7346,0.4357,12.2547,1443,2881.01
29839,-4.3072,-0.6033,11.5137,1453,2881.01
29844,-1.0989,2.5259,8.9208,1476,2881.29
29849,2.1895,3.8487,10.4686,1449,2881.29
29854,-1.2713,0.8954,12.1314,1451,2881.29
29859,-3.705,-1.1863,11.9902,1447,2881.29
29864,-2.3044,2.2936,8.9543,1469,2881.15
29869,1.986,3.7924,10.3142,1447,2881.15
29874,-0.1269,1.4593,11.8405,1447,2881.15
29879,-2.964,-1.5131,12.2463,1455,2881.15
29884,-3.4069,1.9417,9.2476,1453,2880.18
29889,1.7885,3.5578,10.0712,1444,2880.18
29894,1.3659,2.1009,11.4994,1461,2880.18
29899,-2.2996,-1.4629,12.4594,1447,2880.18
29904,-4.3,1.4162,9.6343,1445,2880.18
29909,1.4569,3.2657,9.7815,1453,2881.71
29914,2.3463,2.7461,11.2132,1448,2881.71
29919,-1.7502,-1.0199,12.5121,1445,2881.71
29924,-4.7405,0.8368,10.2604,1451,2881.71
29929,0.8559,3.0358,9.4439,1449,2881.01
29934,2.5989,3.3579,10.8409,1449,2881.01
29939,-1.6879,-0.3256,12.4846,1439,2881.01
29944,-4.707,0.2286,10.9044,1447,2881.01
29949,0.0036,2.8359,9.0776,1463,2881.01
29954,2.5007,3.7816,10.6326,1449,2881.01
29959,-1.6939,0.3747,12.3074,1436,2881.01
29964,-4.3467,-0.4597,11.4886,1449,2881.01
29969,-0.9373,2.5762,8.9232,1471,2881.43
29974,2.2661,3.8678,10.4914,1447,2881.43
29979,-1.4066,0.8871,12.0811,1453,2881.43
29984,-3.7074,-1.1277,11.9183,1449,2881.43
29989,-2.1308,2.2458,8.8729,1460,2881.57
29994,2.0674,3.7613,10.3262,1447,2881.57
29999,-0.2047,1.3719,11.8429,1445,2881.57
30004,-3.1041,-1.5383,12.2571,1455,2881.57
30009,-3.322,1.9118,9.1698,1454,2880.88
30014,1.7394,3.5482,10.1179,1444,2880.88
30019,1.1636,1.9968,11.5305,1455,2880.88
30024,-2.3906,-1.4473,12.4702,1449,2880.88
30029,-4.2234,1.5155,9.6534,1447,2880.88
30034,1.4377,3.2956,9.8474,1459,2881.15
30039,2.2494,2.727,11.2312,1451,2881.15
30044,-1.8543,-0.9876,12.4917,1449,2881.15
30049,-4.6651,1.0211,10.2268,1451,2881.15
30054,0.9421,3.0622,9.4751,1451,2880.74
30059,2.642,3.2453,10.9032,1447,2880.74
30064,-1.6101,-0.3735,12.487,1440,2880.74
30069,-4.7022,0.2011,10.7943,1452,2880.74
30074,0.1006,2.8024,9.2249,1461,2880.46
30079,2.4936,3.6787,10.6638,1448,2880.46
30084,-1.7214,0.2837,12.3589,1445,2880.46
30089,-4.4317,-0.5339,11.4527,1455,2880.46
30094,-0.9313,2.6025,8.9423,1471,2880.05
30099,2.2134,3.8523,10.4746,1447,2880.05
30104,-1.4617,0.8823,12.0931,1452,2880.05
30109,-3.8235,-1.0475,11.9219,1448,2880.05
30114,-2.1189,2.3439,8.9854,1471,2880.32
30119,2.0387,3.8331,10.325,1447,2880.32
30124,-0.3615,1.4138,11.8154,1447,2880.32
30129,-3.0742,-1.4724,12.2152,1451,2880.32
30134,-3.2489,1.9668,9.0992,1477,2880.05
30139,1.8459,3.5434,10.0796,1448,2880.05
30144,1.1528,1.9345,11.6059,1455,2880.05
30149,-2.3571,-1.4832,12.457,1445,2880.05
30154,-4.1635,1.4688,9.578,1449,2880.05
30159,1.4617,3.3028,9.8126,1455,2879.91
30164,2.235,2.6288,11.212,1452,2879.91
30169,-1.8507,-1.0894,12.5085,1423,2879.91
30174,-4.6819,0.9816,10.1885,1451,2879.91
30179,0.9673,3.0694,9.5086,1454,2880.46
30184,2.636,3.3339,10.9595,1449,2880.46
30189,-1.7035,-0.3364,12.4774,1444,2880.46
30194,-4.695,0.346,10.8457,1448,2880.46
30199,0.1604,2.9042,9.1566,1461,2880.46
30204,2.5426,3.7529,10.6267,1448,2880.46
30209,-1.6987,0.3124,12.3098,1439,2880.46
30214,-4.3993,-0.3986,11.4658,1453,2880.46
30219,-0.7853,2.6228,8.9088,1470,2880.6
30224,2.3152,3.8654,10.4483,1445,2880.6
30229,-1.4305,0.8188,12.0823,1448,2880.6
30234,-3.8032,-1.0534,11.8932,1449,2880.6
30239,-1.986,2.2924,8.8825,1467,2880.74
30244,2.0027,3.7757,10.3178,1451,2880.74
30249,-0.4238,1.3072,11.8716,1449,2880.74
30254,-3.1771,-1.4808,12.2428,1451,2880.74
30259,-3.2034,1.986,9.1542,1463,2880.88
30264,1.8136,3.6033,10.1263,1445,2880.88
30269,1.0044,1.9166,11.6215,1455,2880.88
30274,-2.4217,-1.4593,12.4546,1439,2880.88
30279,-4.0845,1.585,9.6103,1447,2880.88
30284,1.5455,3.3686,9.845,1459,2880.74
30289,2.1727,2.63,11.2408,1448,2880.74
30294,-1.883,-1.0618,12.5109,1443,2880.74
30299,-4.6531,1.0391,10.1598,1453,2880.74
30304,0.9972,3.0897,9.5361,1464,2881.01
30309,2.648,3.1568,10.8888,1449,2881.01
30314,-1.5969,-0.4932,12.481,1439,2881.01
30319,-4.7728,0.2729,10.7284,1449,2881.01
30324,0.2035,2.8419,9.2177,1467,2881.15
30329,2.4816,3.6631,10.6805,1449,2881.15
30334,-1.6963,0.2454,12.3469,1448,2881.15
30339,-4.4951,-0.34,11.3904,1451,2881.15
30344,-0.7494,2.6552,8.9807,1461,2881.15
30349,2.2936,3.8559,10.4866,1447,2881.15
30354,-1.5502,0.8404,12.1925,1451,2881.15
30359,-3.9588,-0.9553,11.8621,1449,2881.15
30364,-1.8771,2.411,8.916,1466,2881.15
30369,2.1428,3.8295,10.2975,1449,2881.15
30374,-0.5255,1.3192,11.8597,1445,2881.15
30379,-3.1951,-1.4521,12.1637,1453,2881.15
30384,-3.067,1.9656,9.0477,1455,2881.29
30389,1.9261,3.5638,10.1227,1445,2881.29
30394,0.905,1.8459,11.552,1455,2881.29
30399,-2.4948,-1.561,12.4259,1444,2881.29
30404,-4.0642,1.5622,9.4571,1447,2881.29
30409,1.5419,3.3148,9.8833,1455,2882.26
30414,2.0195,2.5379,11.2539,1451,2882.26
30419,-1.9716,-1.2007,12.5013,1443,2882.26
30424,-4.6388,1.0965,10.0604,1458,2882.26
30429,1.0942,3.1532,9.5672,1454,2882.26
30434,2.5905,3.237,11.0456,1444,2882.26
30439,-1.7382,-0.4752,12.4558,1443,2882.26
30444,-4.7501,0.4705,10.6877,1451,2882.26
30449,0.3675,2.9736,9.1674,1463,2882.12
30454,2.5929,3.6631,10.6422,1448,2882.12
30459,-1.67,0.176,12.311,1444,2882.12
30464,-4.4975,-0.31,11.303,1449,2882.12
30469,-0.5854,2.636,8.9292,1465,2882.12
30474,2.3655,3.8092,10.5405,1445,2882.12
30479,-1.5215,0.6764,12.1398,1450,2882.12
30484,-3.9983,-0.9828,11.7879,1449,2882.12
30489,-1.7693,2.4014,8.9136,1471,2881.98
30494,2.0578,3.8247,10.3801,1453,2881.98
30499,-0.7506,1.2103,11.9566,1447,2881.98
30504,-3.3674,-1.4102,12.1973,1448,2881.98
30509,-2.9521,2.1308,9.0285,1471,2882.26
30514,1.9273,3.6871,10.161,1449,2882.26
30519,0.6931,1.816,11.661,1449,2882.26
30524,-2.6037,-1.4664,12.3984,1443,2882.26
30529,-3.9301,1.6951,9.3901,1447,2882.26
30534,1.6652,3.4177,9.9228,1459,2882.54
30539,2.0195,2.4397,11.321,1455,2882.54
30544,-1.9561,-1.2773,12.4894,1443,2882.54
30549,-4.555,1.1516,9.9683,1455,2882.54
30554,1.1504,3.1316,9.5433,1453,2882.95
30559,2.5833,3.061,11.0361,1447,2882.95
30564,-1.6472,-0.6644,12.4953,1445,2882.95
30569,-4.8483,0.4812,10.5668,1449,2882.95
30574,0.4693,2.964,9.2656,1461,2882.81
30579,2.557,3.5829,10.7272,1455,2882.81
30584,-1.7214,0.0084,12.4139,1443,2882.81
30589,-4.6495,-0.1185,11.169,1448,2882.81
30594,-0.4429,2.7725,9.0309,1451,2882.68
30599,2.332,3.8642,10.5153,1449,2882.68
30604,-1.6747,0.6596,12.208,1449,2882.68
30609,-4.0594,-0.7769,11.7412,1449,2882.68
30614,-1.5694,2.49,8.8753,1463,2882.54
30619,2.1668,3.8595,10.4136,1455,2882.54
30624,-0.8703,1.0918,11.9375,1445,2882.54
30629,-3.3806,-1.391,12.1362,1445,2882.54
30634,-2.7402,2.0638,8.9459,1465,2882.54
30639,1.8962,3.6272,10.1969,1452,2882.54
30644,0.4908,1.6496,11.6897,1451,2882.54
30649,-2.7833,-1.573,12.3601,1447,2882.54
30654,-3.8116,1.7418,9.3877,1460,2882.54
30659,1.6783,3.4261,9.9922,1448,2882.54
30664,1.743,2.3308,11.4156,1449,2882.54
30669,-2.138,-1.2761,12.4822,1439,2882.54
30674,-4.5514,1.3024,9.8952,1455,2882.54
30679,1.2282,3.2561,9.6522,1455,2882.68
30684,2.5319,3.0179,11.0456,1445,2882.68
30689,-1.6843,-0.668,12.4534,1449,2882.68
30694,-4.7118,0.6907,10.5548,1448,2882.68
30699,0.6105,2.9975,9.2967,1453,2882.68
30704,2.6887,3.5051,10.7117,1451,2882.68
30709,-1.5969,-0.073,12.3936,1447,2882.68
30714,-4.6376,-0.0778,11.1163,1448,2882.68
30719,-0.3148,2.7138,9.001,1452,2883.23
30724,2.4086,3.7565,10.5524,1449,2883.23
30729,-1.6747,0.5088,12.2547,1446,2883.23
30734,-4.2162,-0.7458,11.661,1447,2883.23
30739,-1.4066,2.5115,8.8825,1468,2883.23
30744,2.1775,3.8654,10.4088,1451,2883.23
30749,-1.1456,1.0558,12.0237,1447,2883.23
30754,-3.5973,-1.239,12.1183,1443,2883.23
30759,-2.5127,2.2302,8.9783,1455,2882.54
30764,1.9812,3.7685,10.2663,1451,2882.54
30769,0.2322,1.6221,11.7112,1446,2882.54
30774,-2.8778,-1.5227,12.384,1451,2882.54
30779,-3.6176,1.8447,9.2225,1465,2881.98
30784,1.8136,3.4931,9.9539,1447,2881.98
30789,1.6269,2.1308,11.388,1447,2881.98
30794,-2.1141,-1.4389,12.4403,1443,2881.98
30799,-4.4257,1.3096,9.748,1459,2881.98
30804,1.2929,3.225,9.7061,1453,2881.57
30809,2.4445,2.8479,11.1151,1447,2881.57
30814,-1.7609,-0.8727,12.5169,1450,2881.57
30819,-4.8219,0.7925,10.3645,1445,2881.57
30824,0.7566,3.0466,9.4415,1446,2881.57
30829,2.6205,3.4297,10.8517,1453,2881.57
30834,-1.7262,-0.158,12.4965,1447,2881.57
30839,-4.7214,0.1245,11.054,1449,2881.57
30844,-0.0611,2.8599,9.0764,1459,2881.71
30849,2.4684,3.8056,10.5824,1448,2881.71
30854,-1.6592,0.4872,12.1901,1445,2881.71
30859,-4.2665,-0.5938,11.6155,1449,2881.71
30864,-1.1624,2.5474,8.8765,1459,2882.26
30869,2.2206,3.8511,10.4279,1447,2882.26
30874,-1.1959,0.9373,12.0345,1445,2882.26
30879,-3.6727,-1.2318,11.9387,1446,2882.26
30884,-2.3559,2.2087,8.9028,1471,2882.12
30889,1.9489,3.6703,10.2699,1454,2882.12
30894,-0.0419,1.4964,11.8022,1445,2882.12
30899,-2.9676,-1.5155,12.3277,1451,2882.12
30904,-3.4955,1.9106,9.2464,1472,2881.98
30909,1.7226,3.4776,10.0556,1444,2881.98
30914,1.3791,2.1272,11.5209,1455,2881.98
30919,-2.3296,-1.403,12.4774,1445,2881.98
30924,-4.3347,1.5036,9.6929,1465,2881.98
30929,1.4509,3.2884,9.809,1453,2881.98
30934,2.3643,2.8228,11.1594,1446,2881.98
30939,-1.7813,-0.893,12.4846,1448,2881.98
30944,-4.7142,0.8487,10.2831,1445,2881.98
30949,0.7925,3.0382,9.3853,1450,2881.71
30954,2.6348,3.3076,10.8469,1450,2881.71
30959,-1.6532,-0.2873,12.4487,1447,2881.71
30964,-4.6962,0.0754,10.9547,1445,2881.71
30969,0.0096,2.8012,9.0944,1461,2881.84
30974,2.4253,3.7481,10.6183,1449,2881.84
30979,-1.6999,0.401,12.2811,1444,2881.84
30984,-4.3958,-0.5519,11.5065,1452,2881.84
30989,-1.0415,2.6181,8.9747,1468,2881.98
30994,2.2505,3.8834,10.4196,1445,2881.98
30999,-1.3815,0.923,12.0632,1445,2881.98
31004,-3.7314,-1.075,11.9626,1445,2881.98
31009,-2.1823,2.3128,8.9459,1470,2881.71
31014,2.0542,3.8152,10.3274,1453,2881.71
31019,-0.1784,1.3982,11.7543,1446,2881.71
31024,-2.9844,-1.5167,12.2451,1455,2881.71
31029,-3.3112,1.9381,9.1267,1479,2882.95
31034,1.8304,3.4943,10.1311,1445,2882.95
31039,1.2486,1.9477,11.4814,1452,2882.95
31044,-2.3607,-1.5191,12.4618,1447,2882.95
31049,-4.294,1.4964,9.584,1453,2882.95
31054,1.4353,3.3124,9.8785,1449,2882.81
31059,2.2278,2.6923,11.163,1445,2882.81
31064,-1.8316,-1.0989,12.5803,1448,2882.81
31069,-4.7477,0.9864,10.2149,1447,2882.81
31074,0.9182,3.0825,9.487,1453,2882.81
31079,2.6396,3.3339,10.8673,1451,2882.81
31084,-1.658,-0.2981,12.5073,1447,2882.81
31089,-4.7465,0.3723,10.811,1445,2882.81
31094,0.2119,2.9161,9.1494,1459,2883.23
31099,2.5929,3.7338,10.5788,1451,2883.23
31104,-1.6819,0.2861,12.293,1444,2883.23
31109,-4.4089,-0.395,11.4383,1449,2883.23
31114,-0.8296,2.6001,8.8669,1469,2883.23
31119,2.3188,3.8391,10.4663,1448,2883.23
31124,-1.3767,0.8404,12.1697,1443,2883.23
31129,-3.9349,-1.0487,11.8716,1447,2883.23
31134,-2.0099,2.3272,8.8657,1471,2883.09
31139,2.0458,3.7769,10.331,1451,2883.09
31144,-0.5171,1.3491,11.9183,1448,2883.09
31149,-3.2082,-1.4377,12.1973,1455,2883.09
31154,-3.1591,2.0375,9.1291,1472,2882.68
31159,1.8196,3.5937,10.1287,1448,2882.68
31164,0.9673,1.9201,11.649,1460,2882.68
31169,-2.5151,-1.4653,12.4391,1447,2882.68
31174,-4.063,1.6556,9.4894,1448,2882.68
31179,1.5981,3.3363,9.8533,1453,2882.12
31184,2.1715,2.5977,11.3078,1445,2882.12
31189,-1.8926,-1.1516,12.4582,1445,2882.12
31194,-4.6687,0.9984,10.1239,1450,2882.12
31199,1.0666,3.0574,9.5648,1455,2882.26
31204,2.5929,3.1699,10.9475,1447,2882.26
31209,-1.664,-0.4992,12.4487,1443,2882.26
31214,-4.8554,0.3663,10.7212,1445,2882.26
31219,0.2801,2.8778,9.25,1463,2881.98
31224,2.5055,3.6524,10.75,1449,2881.98
31229,-1.6532,0.1975,12.3732,1439,2881.98
31234,-4.5286,-0.2849,11.382,1452,2881.98
31239,-0.6536,2.6983,9.007,1472,2882.12
31244,2.3391,3.8834,10.483,1445,2882.12
31249,-1.5502,0.7649,12.0931,1450,2882.12
31254,-3.9648,-0.8894,11.8896,1450,2882.12
31259,-1.7885,2.387,8.8729,1470,2881.98
31264,2.1165,3.8367,10.3465,1447,2881.98
31269,-0.656,1.2019,11.8417,1447,2881.98
31274,-3.2513,-1.4198,12.1673,1455,2881.98
31279,-2.9784,2.0207,9.0082,1460,2881.71
31284,1.9249,3.5901,10.2185,1443,2881.71
31289,0.7673,1.7597,11.5796,1459,2881.71
31294,-2.6252,-1.5407,12.4331,1446,2881.71
31299,-4.0199,1.6604,9.4379,1447,2881.71
31304,1.585,3.3651,9.9551,1451,2882.4
31309,1.9525,2.4936,11.3401,1453,2882.4
31314,-2.0387,-1.1899,12.5576,1445,2882.4
31319,-4.5885,1.1744,10.0209,1451,2882.4
31324,1.1396,3.2046,9.6019,1459,2882.26
31329,2.6228,3.1436,10.9463,1448,2882.26
31334,-1.6412,-0.5507,12.5169,1437,2882.26
31339,-4.725,0.5243,10.6542,1447,2882.26
31344,0.4106,2.9509,9.2069,1463,2881.84
31349,2.5857,3.5985,10.6626,1447,2881.84
31354,-1.6999,0.0826,12.3649,1443,2881.84
31359,-4.5526,-0.243,11.1809,1455,2881.84
31364,-0.5507,2.709,8.9783,1461,2881.84
31369,2.326,3.8307,10.4854,1447,2881.84
31374,-1.5921,0.6668,12.1697,1452,2881.84
31379,-4.0666,-0.8679,11.7472,1449,2881.84
31384,-1.6508,2.4301,8.8969,1471,2881.98
31389,2.0578,3.8331,10.3358,1451,2881.98
31394,-0.8188,1.1696,11.9734,1449,2881.98
31399,-3.4213,-1.3324,12.147,1452,2881.98
31404,-2.8216,2.162,9.0824,1455,2882.26
31409,1.9537,3.7074,10.1933,1445,2882.26
31414,0.6057,1.7142,11.6669,1459,2882.26
31419,-2.6695,-1.5455,12.3804,1444,2882.26
31424,-3.8523,1.731,9.3769,1449,2882.26
31429,1.6676,3.4141,9.9551,1455,2882.26
31434,1.8759,2.326,11.3497,1453,2882.26
31439,-2.0315,-1.3479,12.4666,1439,2882.26
31444,-4.5502,1.2139,9.8976,1447,2882.26
31449,1.1684,3.1735,9.6187,1453,2882.4
31454,2.5319,3.0107,11.0085,1448,2882.4
31459,-1.6723,-0.6895,12.5241,1443,2882.4
31464,-4.8159,0.6225,10.5919,1447,2882.4
31469,0.5016,2.9784,9.341,1464,2882.26
31474,2.5714,3.5314,10.7751,1447,2882.26
31479,-1.7274,-0.0132,12.4379,1443,2882.26
31484,-4.6304,-0.0347,11.1725,1453,2882.26
31489,-0.3771,2.727,8.9795,1470,2882.4
31494,2.4098,3.863,10.58,1447,2882.4
31499,-1.6017,0.6177,12.1961,1449,2882.4
31504,-4.1839,-0.7147,11.6801,1449,2882.4
31509,-1.4246,2.4804,8.8681,1469,2882.4
31514,2.1787,3.8475,10.3777,1455,2882.4
31519,-1.0223,1.0594,11.9351,1446,2882.4
31524,-3.4728,-1.3252,12.05,1449,2882.4
31529,-2.6228,2.1392,8.9807,1471,2882.26
31534,1.8974,3.6452,10.2604,1449,2882.26
31539,0.2981,1.6257,11.7316,1453,2882.26
31544,-2.8383,-1.5323,12.3146,1446,2882.26
31549,-3.7206,1.8112,9.3182,1447,2882.26
31554,1.6664,3.4393,10.0281,1460,2881.98
31559,1.6388,2.2745,11.3988,1453,2881.98
31564,-2.1847,-1.3324,12.4762,1443,2881.98
31569,-4.452,1.3707,9.827,1455,2881.98
31574,1.3096,3.2202,9.7324,1459,2881.71
31579,2.4924,2.9628,11.0995,1445,2881.71
31584,-1.6676,-0.7757,12.4762,1445,2881.71
31589,-4.7297,0.6859,10.4555,1449,2881.71
31594,0.6369,2.9951,9.3757,1461,2881.43
31599,2.5893,3.4596,10.7488,1450,2881.43
31604,-1.5909,-0.0898,12.402,1444,2881.43
31609,-4.6615,-0.103,11.0049,1449,2881.43
31614,-0.2167,2.7461,9.074,1466,2881.29
31619,2.3667,3.7314,10.5273,1448,2881.29
31624,-1.6412,0.498,12.2631,1449,2881.29
31629,-4.2473,-0.6823,11.6191,1449,2881.29
31634,-1.3108,2.5558,8.9543,1469,2881.57
31639,2.1237,3.9097,10.3681,1455,2881.57
31644,-1.1097,0.984,12.0189,1466,2881.57
31649,-3.6212,-1.239,12.05,1445,2881.57
31654,-2.5079,2.2649,9.0046,1471,2881.84
31659,2.0279,3.7685,10.2232,1450,2881.84
31664,0.1736,1.5634,11.7184,1453,2881.84
31669,-2.879,-1.5407,12.317,1444,2881.84
31674,-3.5733,1.8495,9.2644,2095,2881.15
31679,1.7801,3.4884,9.9455,1451,2881.15
31684,1.579,2.1572,11.4407,1455,2881.15
31689,-2.2051,-1.4186,12.5444,1443,2881.15
31694,-4.391,1.336,9.7516,1461,2881.15
31699,1.3575,3.2453,9.7085,1453,2882.95
31704,2.4373,2.8192,11.1378,1447,2882.95
31709,-1.7825,-0.8894,12.5253,1448,2882.95
31714,-4.7525,0.753,10.3633,1449,2882.95
31719,0.7386,2.9772,9.3625,1459,2882.12
31724,2.6995,3.4668,10.8409,1453,2882.12
31729,-1.6496,-0.1891,12.5324,1445,2882.12
31734,-4.7333,0.1245,11.0061,1448,2882.12
31739,-0.0275,2.8419,9.0525,1463,2882.26
31744,2.4768,3.8128,10.5393,1448,2882.26
31749,-1.6999,0.4417,12.2428,1448,2882.26
31754,-4.276,-0.5698,11.5101,1447,2882.26
31759,-1.1025,2.5295,8.8741,1469,2882.12
31764,2.1895,3.8511,10.4483,1455,2882.12
31769,-1.2306,0.923,12.0512,1447,2882.12
31774,-3.7062,-1.2019,11.9255,1449,2882.12
31779,-2.2924,2.241,8.8945,1469,2882.12
31784,1.9656,3.7062,10.3501,1452,2882.12
31789,-0.0838,1.4162,11.7567,1449,2882.12
31794,-3.0646,-0.0036,-0.6165,1449,2882.12
31799,-3.4381,1.9369,9.2512,1462,2882.12
31804,1.8052,3.5422,10.173,1448,2882.12
31809,1.3336,2.1045,11.497,1444,2882.12
31814,-2.2661,-1.4293,12.4522,1445,2882.12
31819,-4.288,1.4365,9.6774,1459,2882.12
31824,1.4198,3.2717,9.8102,1463,2882.12
31829,2.4062,2.7581,11.1606,1447,2882.12
31834,-1.7813,-0.9313,12.5025,1449,2882.12
31839,-4.7692,0.8751,10.2735,1447,2882.12
31844,0.8859,3.0777,9.4344,1455,2882.4
31849,2.6348,3.2992,10.8362,1452,2882.4
31854,-1.6388,-0.2741,12.4666,1445,2882.4
31859,-4.7573,0.1867,10.8661,1445,2882.4
31864,0.0718,2.8144,9.1315,1453,2882.54
31869,2.4888,3.729,10.5812,1443,2882.54
31874,-1.6305,0.3843,12.3218,1446,2882.54
31879,-4.4652,-0.4956,11.5089,1445,2882.54
31884,-0.9816,2.6073,8.9316,1469,2882.95
31889,2.2529,3.9492,10.4926,1451,2882.95
31894,-1.3874,0.9062,12.1542,1447,2882.95
31899,-3.8642,-1.0391,11.9423,1447,2882.95
31904,-2.1368,2.2889,8.9447,1455,2882.95
31909,2.0399,3.8355,10.2927,1453,2882.95
31914,-0.3675,1.3767,11.8309,1447,2882.95
31919,-3.0179,-1.4485,12.2571,1453,2882.95
31924,-3.2968,1.9537,9.1087,1471,2883.23
31929,1.7957,3.5985,10.1179,1447,2883.23
31934,1.1588,1.9537,11.5544,1454,2883.23
31939,-2.4648,-1.5024,12.4762,1445,2883.23
31944,-4.227,1.5431,9.5505,1455,2883.23
31949,1.5299,3.2968,9.8174,1453,2883.37
31954,2.1943,2.6911,11.2575,1443,2883.37
31959,-1.9417,-1.1337,12.4882,1449,2883.37
31964,-4.707,1.0092,10.1239,1449,2883.37
31969,0.9649,3.0969,9.5158,1451,2883.92
31974,2.6037,3.2573,10.908,1455,2883.92
31979,-1.6891,-0.401,12.5217,1448,2883.92
31984,-4.7549,0.3926,10.8481,1447,2883.92
31989,0.2514,2.9317,9.1866,1461,2883.51
31994,2.5367,3.7122,10.6626,1449,2883.51
31999,-1.6233,0.2251,12.3122,1445,2883.51
32004,-4.5334,-0.3615,11.3102,1449,2883.51
32009,-0.7075,2.6432,8.9352,1467,2883.23
32014,2.3439,3.8355,10.5141,1449,2883.23
32019,-1.4676,0.7638,12.1841,1445,2883.23
32024,-3.9624,-1.0199,11.8298,1447,2883.23
32029,-1.8639,2.3858,8.8753,1466,2883.09
32034,2.0207,3.796,10.3418,1453,2883.09
32039,-0.5854,1.2031,11.9159,1443,2883.09
32044,-3.2741,-1.4353,12.2428,1454,2883.09
32049,-3.0706,2.0638,9.1267,1471,2882.81
32054,1.8375,3.6655,10.2029,1445,2882.81
32059,0.826,1.8771,11.6394,1454,2882.81
32064,-2.49,-1.4629,12.4235,1439,2882.81
32069,-4.0127,1.6939,9.4858,1455,2882.81
32074,1.5646,3.4153,9.8713,1451,2882.54
32079,2.0806,2.4553,11.2851,1448,2882.54
32084,-1.8735,-1.1756,12.5205,1449,2882.54
32089,-4.6052,1.0834,9.9898,1443,2882.54
32094,1.0499,3.1508,9.5708,1455,2882.4
32099,2.6396,3.1184,10.9954,1447,2882.4
32104,-1.6209,-0.5495,12.4415,1445,2882.4
32109,-4.8399,0.4621,10.6374,1446,2882.4
32114,0.3783,2.9006,9.2093,1463,2882.26
32119,2.5869,3.5925,10.7164,1449,2882.26
32124,-1.7334,0.1006,12.4271,1439,2882.26
32129,-4.5693,-0.1867,11.2384,1451,2882.26
32134,-0.5399,2.6731,8.9974,1465,2882.26
32139,2.2889,3.8535,10.5572,1448,2882.26
32144,-1.6245,0.6931,12.1566,1447,2882.26
32149,-4.0151,-0.7901,11.8094,1449,2882.26
32154,-1.6975,2.4553,8.9184,1456,2882.12
32159,2.138,3.887,10.3597,1450,2882.12
32164,-0.7123,1.1875,11.9447,1445,2882.12
32169,-3.4022,-1.3779,12.1242,1454,2882.12
32174,-2.8718,2.047,9.0142,1478,2881.98
32179,1.8938,3.6117,10.2149,1447,2881.98
32184,0.6153,1.7538,11.6155,1453,2881.98
32189,-2.6695,-1.5634,12.3924,1448,2881.98
32194,-3.8774,1.6903,9.3745,1447,2881.98
32199,1.5814,3.3459,9.9683,1453,2881.84
32204,1.8842,2.393,11.3461,1450,2881.84
32209,-2.0231,-1.2761,12.5289,1439,2881.84
32214,-4.5849,1.16,9.9814,1440,2881.84
32219,1.1815,3.1556,9.6666,1455,2881.98
32224,2.5558,3.1017,11.0289,1449,2881.98
32229,-1.6783,-0.6009,12.4953,1449,2881.98
32234,-4.7836,0.6189,10.5512,1448,2881.98
32239,0.5351,3.0119,9.3146,1464,2882.12
32244,2.5941,3.5518,10.7272,1449,2882.12
32249,-1.6843,0.0371,12.3613,1443,2882.12
32254,-4.549,-0.1688,11.1905,1453,2882.12
32259,-0.419,2.733,8.9974,1471,2882.26
32264,2.3367,3.8008,10.5117,1447,2882.26
32269,-1.5909,0.595,12.2404,1453,2882.26
32274,-4.124,-0.8092,11.6933,1448,2882.26
32279,-1.5778,2.4421,8.8765,1477,2882.68
32284,2.0806,3.8475,10.3202,1447,2882.68
32289,-0.9804,1.0642,12.0081,1446,2882.68
32294,-3.474,-1.3132,12.0895,1453,2882.68
32299,-2.7198,2.1919,8.9842,1460,2882.95
32304,1.9178,3.7086,10.2244,1444,2882.95
32309,0.4118,1.6735,11.6861,1459,2882.95
32314,-2.7198,-1.5155,12.4259,1449,2882.95
32319,-3.7481,1.7478,9.3063,1446,2882.95
32324,1.7178,3.4524,9.9934,1455,2882.95
32329,1.7765,2.2673,11.4072,1449,2882.95
32334,-2.0925,-1.342,12.4989,1442,2882.95
32339,-4.4843,1.2653,9.8078,1453,2882.95
32344,1.2749,3.1891,9.6642,1455,2883.23
32349,2.5283,2.9317,11.0612,1449,2883.23
32354,-1.7334,-0.8212,12.4403,1432,2883.23
32359,-4.8183,0.6704,10.3908,1447,2883.23
32364,0.6871,2.9377,9.3709,1464,2882.95
32369,2.5989,3.5147,10.7332,1445,2882.95
32374,-1.7418,-0.1041,12.4319,1437,2882.95
32379,-4.6627,0.0455,11.0361,1453,2882.95
32384,-0.2023,2.8323,9.0585,1455,2882.68
32389,2.4181,3.8738,10.5417,1445,2882.68
32394,-1.6652,0.5327,12.2439,1451,2882.68
32399,-4.2701,-0.6261,11.5963,1449,2882.68
32404,-1.2785,2.5486,8.8681,1466,2881.84
32409,2.2075,3.9025,10.3932,1449,2881.84
32414,-1.1097,0.9888,12.0069,1447,2881.84
32419,-3.553,-1.2534,12.0069,1455,2881.84
32424,-2.4553,2.2182,8.9507,1459,2881.71
32429,1.9537,3.6536,10.258,1446,2881.71
32434,0.1676,1.5107,11.7184,1453,2881.71
32439,-2.8515,-1.5598,12.3349,1445,2881.71
32444,-3.638,1.8304,9.3039,1445,2881.71
32449,1.6795,3.4524,10.0497,1455,2881.43
32454,1.5395,2.162,11.5209,1451,2881.43
32459,-2.2206,-1.3803,12.4762,1443,2881.43
32464,-4.4173,1.4006,9.7719,1455,2881.43
32469,1.2977,3.2872,9.7181,1453,2881.29
32474,2.4421,2.8683,11.1103,1445,2881.29
32479,-1.7358,-0.838,12.5408,1451,2881.29
32484,-4.7046,0.8068,10.3765,1445,2881.29
32489,0.7554,3.0299,9.3613,1463,2881.29
32494,2.6252,3.3818,10.8002,1449,2881.29
32499,-1.6197,-0.1652,12.4522,1443,2881.29
32504,-4.6735,0.0359,10.9559,1449,2881.29
32509,-0.1269,2.7545,9.0644,1467,2881.15
32514,2.4157,3.7433,10.5345,1447,2881.15
32519,-1.7071,0.4082,12.3182,1451,2881.15
32524,-4.2713,-0.656,11.5353,1451,2881.15
32529,-1.2498,2.5594,8.9052,1468,2881.15
32534,2.1213,3.9085,10.4303,1455,2881.15
32539,-1.2079,0.9972,12.0165,1445,2881.15
32544,-3.6727,-1.1624,11.9722,1449,2881.15
32549,-2.381,2.3032,8.9699,1469,2881.29
32554,2.0363,3.8152,10.3441,1447,2881.29
32559,0.0192,1.4832,11.8058,1455,2881.29
32564,-2.9078,-1.506,12.3062,1445,2881.29
32569,-3.4848,1.8699,9.2739,1447,2881.29
32574,1.7645,3.5147,10.0449,1459,2881.15
32579,1.4593,2.0889,11.4455,1452,2881.15
32584,-2.1967,-1.4916,12.4654,1448,2881.15
32589,-4.3539,1.3838,9.6941,1455,2881.15
32594,1.3479,3.2501,9.7719,1455,2881.15
32599,2.3643,2.7725,11.1905,1440,2881.15
32604,-1.7957,-0.9708,12.5336,1445,2881.15
32609,-4.7609,0.844,10.3022,1447,2881.15
32614,0.808,3.0825,9.4391,1463,2880.74
32619,2.6252,3.4321,10.8098,1448,2880.74
32624,-1.7059,-0.2179,12.4798,1444,2880.74
32629,-4.6986,0.2598,10.9583,1439,2880.74
32634,-0.0239,2.9125,9.177,1455,2880.32
32639,2.5163,3.7541,10.5548,1447,2880.32
32644,-1.6352,0.3915,12.2858,1451,2880.32
32649,-4.3503,-0.5052,11.5029,1447,2880.32
32654,-1.0439,2.5774,8.8693,1467,2881.15
32659,2.2649,3.8271,10.4136,1453,2881.15
32664,-1.257,0.8823,12.0428,1447,2881.15
32669,-3.735,-1.1624,11.9926,1449,2881.15
32674,-2.2625,2.2565,8.9471,1467,2880.6
32679,1.9716,3.7433,10.2855,1448,2880.6
32684,-0.1365,1.4281,11.7962,1453,2880.6
32689,-3.0299,-1.573,12.2835,1443,2880.6
32694,-3.4309,1.8962,9.2332,1447,2880.6
32699,1.6951,3.5398,10.0772,1455,2880.32
32704,1.3072,2.0889,11.5209,1455,2880.32
32709,-2.3212,-1.3803,12.4846,1443,2880.32
32714,-4.2904,1.4976,9.6774,1459,2880.32
32719,1.4006,3.3172,9.7863,1459,2880.18
32724,2.3164,2.7629,11.157,1445,2880.18
32729,-1.7442,-0.9936,12.5205,1447,2880.18
32734,-4.6938,0.8344,10.2292,1451,2880.18
32739,0.7949,3.0155,9.4487,1461,2880.05
32744,2.6456,3.3184,10.8421,1449,2880.05
32749,-1.6053,-0.3268,12.4247,1445,2880.05
32754,-4.7154,0.1281,10.8505,1451,2880.05
32759,0.0275,2.8515,9.0968,1456,2879.63
32764,2.4529,3.7649,10.6003,1447,2879.63
32769,-1.6759,0.3567,12.2799,1449,2879.63
32774,-4.3551,-0.4944,11.5436,1449,2879.63
32779,-1.0523,2.6121,8.9759,1471,2880.88
32784,2.1979,3.9025,10.4722,1453,2880.88
32789,-1.2905,0.9481,12.0752,1437,2880.88
32794,-3.7816,-1.0511,11.9782,1449,2880.88
32799,-2.1751,2.3152,8.9447,1463,2880.32
32804,2.065,3.8188,10.3561,1447,2880.32
32809,-0.17,1.403,11.795,1454,2880.32
32814,-2.9916,-1.5227,12.2775,1447,2880.32
32819,-3.3411,1.8747,9.1566,1448,2880.32
32824,1.7885,3.5303,10.0892,1459,2880.32
32829,1.2929,2.0147,11.4694,1453,2880.32
32834,-2.32,-1.4964,12.3732,1445,2880.32
32839,-4.2461,1.4485,9.657,1461,2880.32
32844,1.4114,3.2382,9.7947,1455,2880.46
32849,2.2889,2.7162,11.23,1439,2880.46
32854,-1.8591,-1.0163,12.5205,1447,2880.46
32859,-4.7609,0.9708,10.2795,1447,2880.46
32864,0.8978,3.0837,9.4774,1461,2880.74
32869,2.6492,3.3686,10.8673,1450,2880.74
32874,-1.6783,-0.2801,12.4894,1443,2880.74
32879,-4.221,-0.595,11.5867,1447,2880.74
32884,0.1041,2.8838,9.1111,1472,2880.6
32889,2.1979,3.8199,10.3992,1448,2880.6
32894,-1.664,0.316,12.3014,1451,2880.6
32899,-3.6488,-1.2354,11.9866,1451,2880.6
32904,-0.9385,2.6001,8.9352,1469,2880.6
32909,1.9692,3.7002,10.3477,1453,2880.6
32914,-1.3515,0.8392,12.0919,1447,2880.6
32919,-2.9054,-1.494,12.3924,1451,2880.6
32924,-2.162,2.3032,8.9627,1478,2880.18
32929,1.7166,3.5003,10.0568,1449,2880.18
32934,1.4365,2.15,11.4826,1449,2880.18
32939,-2.2398,-1.3874,12.4475,1443,2880.18
32944,-4.379,1.3898,9.6977,1447,2880.18
32949,1.3443,3.2944,9.8019,1455,2881.43
32954,2.4373,2.8156,11.1175,1453,2881.43
32959,-1.7334,-0.9146,12.5324,1439,2881.43
32964,-4.7309,0.832,10.2939,1456,2881.43
32969,0.7841,3.0263,9.396,1455,2881.01
32974,2.6205,3.3698,10.8541,1434,2881.01
32979,-1.6723,-0.2861,12.4032,1448,2881.01
32984,-4.719,0.0994,10.9942,1449,2881.01
32989,-0.1113,2.812,9.1243,1462,2880.6
32994,2.3966,3.784,10.5764,1449,2880.6
32999,-1.6927,0.4142,12.2763,1443,2880.6
33004,-4.3431,-0.5183,11.5017,1447,2880.6
33009,-1.1121,2.5726,8.9268,1464,2880.46
33014,2.2003,3.9014,10.4303,1451,2880.46
33019,-1.2534,0.923,12.0572,1451,2880.46
33024,-3.717,-1.1193,11.9794,1449,2880.46
33029,-2.2877,2.3248,8.9388,1471,2880.46
33034,2.0363,3.7757,10.2903,1455,2880.46
33039,-0.0994,1.4593,11.7328,1447,2880.46
33044,-2.8994,-1.5778,12.2763,1448,2880.46
33049,-3.4297,1.8459,9.147,1479,2880.46
33054,1.7131,3.4764,10.0616,1449,2880.46
33059,1.3731,2.0698,11.4838,1452,2880.46
33064,-2.2913,-1.5119,12.4726,1449,2880.46
33069,-4.2796,1.4198,9.7169,1449,2880.46
33074,1.3719,3.2537,9.8043,1463,2880.46
33079,2.3571,2.7509,11.1881,1451,2880.46
33084,-1.816,-0.9553,12.5073,1444,2880.46
33089,-4.774,0.9002,10.2783,1463,2880.46
33094,0.8523,3.0813,9.4822,1461,2880.6
33099,2.6444,3.3722,10.8481,1447,2880.6
33104,-1.6305,-0.2418,12.5001,1449,2880.6
33109,-4.6639,0.1939,10.9343,1449,2880.6
33114,0.0407,2.8311,9.0836,1461,2880.18
33119,2.5043,3.7146,10.58,1451,2880.18
33124,-1.5826,0.3747,12.299,1443,2880.18
33129,-4.385,-0.5543,11.485,1448,2880.18
33134,-1.0475,2.5953,8.9388,1452,2880.32
33139,2.2039,3.8307,10.4375,1450,2880.32
33144,-1.312,0.8859,12.0776,1451,2880.32
33149,-3.7302,-1.1193,11.9076,1447,2880.32
33154,-2.2829,2.2841,8.8969,1469,2880.32
33159,1.9429,3.7457,10.2496,1453,2880.32
33164,-0.1281,1.4449,11.8357,1443,2880.32
33169,-2.9963,-1.4736,12.2942,1447,2880.32
33174,-3.3878,1.9166,9.2273,1479,2880.32
33179,1.8136,3.5662,10.1191,1449,2880.32
33184,1.3372,2.0734,11.4383,1451,2880.32
33189,-2.2733,-1.4473,12.4726,1448,2880.32
33194,-4.2976,1.4413,9.6833,2043,2879.22
33199,1.4114,3.2729,9.7887,1445,2879.22
33204,2.3427,2.721,11.1654,1455,2879.22
33209,-1.7274,-0.9673,12.5241,1440,2879.22
33214,-4.7321,0.9062,10.2412,1459,2879.22
33219,0.8164,3.0143,9.4427,1455,2882.26
33224,2.6456,3.3315,10.8338,1447,2882.26
33229,-1.6281,-0.334,12.4822,1445,2882.26
33234,-4.7681,0.2059,10.9056,1447,2882.26
33239,0.0371,2.8395,9.1459,1461,2881.57
33244,2.4624,3.7529,10.6015,1450,2881.57
33249,-1.7346,0.3436,12.3194,1443,2881.57
33254,-4.3993,-0.4286,11.4922,1447,2881.57
33259,-0.9553,2.5881,8.9292,1463,2880.88
33264,2.2601,3.8798,10.4447,1451,2880.88
33269,-1.3779,0.8739,12.0728,1451,2880.88
33274,-3.7409,-1.0283,11.9638,1447,2880.88
33279,-2.1213,2.2936,8.9519,1463,2881.71
33284,2.0087,3.7685,10.3022,1455,2881.71
33289,-0.2693,1.3827,11.7867,1450,2881.71
33294,-3.0275,-1.5167,12.2451,1444,2881.71
33299,-3.3232,1.9142,9.1207,1465,2881.01
33304,1.7765,3.4596,10.0916,1451,2881.01
33309,1.16,1.9668,11.5281,1447,2881.01
33314,-2.3643,-1.4916,12.4534,1447,2881.01
33319,-4.2413,1.5347,9.6367,1461,2881.01
33324,1.4257,3.2741,9.8557,1448,2881.01
33329,2.296,2.6671,11.1737,1451,2881.01
33334,-1.8399,-1.0475,12.4882,1443,2881.01
33339,-4.6914,0.9122,10.1897,1459,2881.01
33344,0.911,3.0777,9.4703,1456,2880.6
33349,2.6324,3.2753,10.8529,1447,2880.6
33354,-1.5886,-0.3531,12.4331,1446,2880.6
33359,-4.7238,0.2574,10.8517,1447,2880.6
33364,0.1401,2.9102,9.1746,1455,2880.6
33369,2.4397,3.7002,10.5656,1451,2880.6
33374,-1.6747,0.2729,12.2942,1445,2880.6
33379,-4.3898,-0.4741,11.394,1448,2880.6
33384,-0.9242,2.6264,8.9447,1465,2880.46
33389,2.1943,3.808,10.4196,1447,2880.46
33394,-1.3659,0.7889,12.1051,1449,2880.46
33399,-3.863,-1.0463,11.9016,1451,2880.46
33404,-2.0937,2.3547,8.9735,1471,2880.6
33409,2.059,3.8427,10.3573,1453,2880.6
33414,-0.3783,1.3491,11.8166,1449,2880.6
33419,-3.1472,-1.4545,12.2368,1447,2880.6
33424,-3.2346,1.9632,9.1662,1478,2880.74
33429,1.8447,3.5997,10.1275,1449,2880.74
33434,1.1217,1.913,11.5149,1451,2880.74
33439,-2.4134,-1.4772,12.4331,1448,2880.74
33444,-4.1575,1.5443,9.5397,1461,2880.74
33449,1.4748,3.31,9.8485,1447,2880.74
33454,2.2122,2.6133,11.242,1447,2880.74
33459,-1.8591,-1.1289,12.5157,1444,2880.74
33464,-4.6866,0.978,10.137,1456,2880.74
33469,0.9625,3.0538,9.5289,1454,2880.74
33474,2.6157,3.2549,10.9391,1448,2880.74
33479,-1.6628,-0.3998,12.4917,1447,2880.74
33484,-4.804,0.3699,10.7595,1445,2880.74
33489,0.1748,2.8922,9.1997,1451,2880.74
33494,2.5223,3.7421,10.7643,1451,2880.74
33499,-1.6915,0.2753,12.3529,1443,2880.74
33504,-4.4329,-0.3436,11.3713,1449,2880.74
33509,-0.7805,2.6671,8.9651,1459,2880.74
33514,2.2972,3.8571,10.4615,1451,2880.74
33519,-1.4305,0.8248,12.05,1448,2880.74
33524,-3.8559,-0.9804,11.8238,1447,2880.74
33529,-1.9549,2.3487,8.9471,1465,2880.74
