timestamp_ms,ax,ay,az,acs_adc,rpm
11274,3.3076,2.964,11.2551,1461,2930.55
11279,-1.5119,-0.9373,12.9514,1463,2930.55
11284,-5.5809,0.8595,10.2304,1461,2930.55
11289,0.5243,3.1568,8.983,1485,2930.55
11294,3.3088,3.2944,11.084,1463,2930.55
11299,-1.2258,-0.5124,12.8988,1456,2930.55
11304,-5.5019,0.4106,10.653,1463,2930.55
11309,-0.0287,3.0047,8.7688,1489,2930.69
11314,3.1651,3.626,10.8541,1465,2930.69
11319,-0.8847,-0.0694,12.8198,1461,2930.69
11324,-5.3103,-0.0443,11.0133,1463,2930.69
11329,-0.6608,2.8467,8.5018,1492,2930.98
11334,2.9401,3.7481,10.7081,1465,2930.98
11339,-0.583,0.261,12.6701,1454,2930.98
11344,-5.0386,-0.5567,11.3677,1469,2930.98
11349,-1.3791,2.648,8.4803,1511,2931.12
11354,2.6731,3.8762,10.5441,1461,2931.12
11359,-0.2634,0.5578,12.5324,1465,2931.12
11364,-4.7489,-0.9637,11.716,1455,2931.12
11369,-2.1093,2.5079,8.412,1515,2931.26
11374,2.3379,3.9253,10.3837,1463,2931.26
11379,0.1784,0.8859,12.3409,1461,2931.26
11384,-4.373,-1.3084,12.1051,1461,2931.26
11389,-2.8778,2.375,8.4731,1514,2931.41
11394,2.1416,3.9121,10.258,1465,2931.41
11399,0.7913,1.2222,12.22,1459,2931.41
11404,-3.8666,-1.5131,12.4235,1462,2931.41
11409,-3.6464,2.2577,8.655,1482,2931.69
11414,1.9525,3.8391,10.0772,1465,2931.69
11419,1.5143,1.549,12.0464,1462,2931.69
11424,-3.3483,-1.6065,12.6198,1469,2931.69
11429,-4.3311,2.0602,8.9208,1493,2931.83
11434,1.7202,3.7421,9.8438,1463,2931.83
11439,2.2098,1.9489,11.8657,1471,2931.83
11444,-2.8299,-1.6005,12.8186,1454,2931.83
11449,-4.8495,1.8076,9.1411,1485,2932.12
11454,1.494,3.565,9.5888,1459,2932.12
11459,2.8276,2.3703,11.6466,1467,2932.12
11464,-2.3331,-1.4449,12.9502,1455,2932.12
11469,-5.3032,1.4952,9.4966,1465,2932.12
11474,1.1935,3.4069,9.3937,1479,2932.41
11479,3.1603,2.7102,11.4239,1464,2932.41
11484,-1.883,-1.1923,12.9598,1455,2932.41
11489,-5.4923,1.142,9.8521,1492,2932.41
11494,0.899,3.2417,9.0908,1485,2932.69
11499,3.3124,3.0765,11.2647,1461,2932.69
11504,-1.5598,-0.8296,12.9981,1464,2932.69
11509,-5.5964,0.8021,10.2879,1461,2932.69
11514,0.4381,3.158,8.9232,1481,2932.69
11519,3.3088,3.3806,11.0277,1464,2932.69
11524,-1.2007,-0.4489,12.8796,1455,2932.69
11529,-5.5462,0.3472,10.6542,1461,2932.69
11534,-0.0886,3.0059,8.6694,1493,2932.84
11539,3.1615,3.6152,10.8481,1465,2932.84
11544,-0.905,-0.079,12.8233,1459,2932.84
11549,-5.357,-0.1437,11.0528,1464,2932.84
11554,-0.6716,2.8718,8.4898,1491,2932.84
11559,2.9173,3.7625,10.6171,1465,2932.84
11564,-0.5986,0.2753,12.6653,1459,2932.84
11569,-5.0458,-0.6225,11.4431,1469,2932.84
11574,-1.3827,2.6743,8.4348,1491,2932.84
11579,2.6456,3.8319,10.4579,1463,2932.84
11584,-0.2155,0.6189,12.5085,1463,2932.84
11589,-4.7058,-1.0223,11.7543,1461,2932.84
11594,-2.132,2.5355,8.3941,1511,2932.98
11599,2.3343,3.9014,10.3334,1463,2932.98
11604,0.1999,0.9098,12.3565,1459,2932.98
11609,-4.3419,-1.3455,12.1326,1463,2932.98
11614,-2.9197,2.3798,8.4515,1519,2932.98
11619,2.0877,3.8547,10.2113,1465,2932.98
11624,0.8068,1.2761,12.2679,1462,2932.98
11629,-3.9121,-1.5323,12.3936,1463,2932.98
11634,-3.6033,2.2697,8.6251,1515,2933.12
11639,1.9261,3.8654,10.0365,1465,2933.12
11644,1.5383,1.5957,12.0656,1461,2933.12
11649,-3.4237,-1.6161,12.6354,1467,2933.12
11654,-4.2605,2.1548,8.8346,1501,2933.12
11659,1.7657,3.7242,9.8916,1459,2933.12
11664,2.223,1.9537,11.8788,1468,2933.12
11669,-2.8838,-1.6305,12.7575,1455,2933.12
11674,-4.8135,1.828,9.1339,2475,2931.83
11679,1.5586,3.5853,9.6139,1462,2931.83
11684,2.8144,2.3296,11.6873,1463,2931.83
11689,-2.3822,-1.4664,12.8652,1461,2931.83
11694,-5.2684,1.5371,9.432,1465,2931.83
11699,1.2845,3.4022,9.3506,1483,2933.99
11704,3.1843,2.6983,11.4718,1465,2933.99
11709,-1.9968,-1.2318,12.9227,1455,2933.99
11714,-5.5019,1.1863,9.815,1471,2933.99
11719,0.9242,3.2657,9.1447,1483,2933.12
11724,3.3315,3.061,11.2492,1459,2933.12
11729,-1.6316,-0.7985,12.9227,1465,2933.12
11734,-5.6012,0.8176,10.2687,1461,2933.12
11739,0.4752,3.1184,8.9196,1483,2932.69
11744,3.322,3.3854,11.0337,1463,2932.69
11749,-1.2893,-0.4752,12.8964,1455,2932.69
11754,-5.5318,0.3555,10.6458,1464,2932.69
11759,-0.0036,2.9987,8.7329,1493,2932.55
11764,3.225,3.6152,10.8625,1463,2932.55
11769,-0.9673,-0.0192,12.7695,1455,2932.55
11774,-5.3163,-0.0718,11.0636,1464,2932.55
11779,-0.6189,2.8419,8.5293,1491,2932.69
11784,3.0131,3.7673,10.6422,1463,2932.69
11789,-0.6321,0.2634,12.6222,1459,2932.69
11794,-5.0925,-0.644,11.3533,1469,2932.69
11799,-1.3348,2.6372,8.4108,1509,2932.84
11804,2.6444,3.8391,10.5105,1455,2932.84
11809,-0.2873,0.5818,12.4929,1464,2932.84
11814,-4.7621,-1.0355,11.7507,1459,2932.84
11819,-2.0482,2.4708,8.3737,1507,2932.98
11824,2.3619,3.8858,10.3813,1463,2932.98
11829,0.1329,0.8894,12.384,1456,2932.98
11834,-4.3802,-1.2881,12.1003,1459,2932.98
11839,-2.8347,2.4098,8.4527,1511,2932.84
11844,2.1452,3.9037,10.2244,1461,2932.84
11849,0.7745,1.239,12.2332,1455,2932.84
11854,-3.9361,-1.4964,12.372,1458,2932.84
11859,-3.5602,2.2494,8.6419,1511,2933.12
11864,2.0135,3.8499,10.1311,1464,2933.12
11869,1.5143,1.5838,12.044,1461,2933.12
11874,-3.4776,-1.634,12.5672,1467,2933.12
11879,-4.2198,2.0782,8.8394,1513,2933.12
11884,1.7849,3.7362,9.8857,1453,2933.12
11889,2.2314,1.913,11.7675,1469,2933.12
11894,-2.9233,-1.6209,12.7276,1453,2933.12
11899,-4.7872,1.8076,9.0704,1463,2933.12
11904,1.5467,3.5638,9.7001,1471,2933.27
11909,2.8204,2.2924,11.6969,1463,2933.27
11914,-2.466,-1.5036,12.888,1455,2933.27
11919,-5.2241,1.549,9.4044,1469,2933.27
11924,1.3012,3.4201,9.4643,1472,2933.12
11929,3.152,2.6612,11.5017,1459,2933.12
11934,-2.0399,-1.2294,12.9335,1453,2933.12
11939,-5.5138,1.2222,9.8916,1469,2933.12
11944,0.8835,3.3088,9.2213,1479,2932.98
11949,3.3507,3.0299,11.315,1461,2932.98
11954,-1.6305,-0.8428,12.9287,1460,2932.98
11959,-5.5929,0.8284,10.2376,1461,2932.98
11964,0.5279,3.1532,8.9567,1483,2932.26
11969,3.3866,3.3471,11.0732,1461,2932.26
11974,-1.2677,-0.4238,12.9706,1453,2932.26
11979,-5.5342,0.4178,10.6111,1461,2932.26
11984,-0.0048,2.9844,8.7305,1491,2931.69
11989,3.2406,3.565,10.823,1462,2931.69
11994,-0.9457,-0.0826,12.8257,1459,2931.69
11999,-5.3235,-0.1413,11.0325,1462,2931.69
12004,-0.6644,2.8108,8.5449,1485,2931.26
12009,2.9544,3.7266,10.6769,1464,2931.26
12014,-0.6297,0.2741,12.6976,1455,2931.26
12019,-5.0913,-0.5866,11.3808,1464,2931.26
12024,-1.3599,2.6312,8.4336,1503,2930.98
12029,2.6671,3.808,10.4267,1463,2930.98
12034,-0.328,0.5734,12.5552,1464,2930.98
12039,-4.7513,-1.0044,11.7328,1459,2930.98
12044,-2.1213,2.5211,8.4575,1507,2930.83
12049,2.3116,3.875,10.3932,1465,2930.83
12054,0.2143,0.8739,12.3996,1454,2930.83
12059,-4.3562,-1.3168,12.068,1455,2930.83
12064,-2.8838,2.4325,8.4934,1503,2929.54
12069,2.1021,3.875,10.1861,1461,2929.54
12074,0.8164,1.2534,12.1889,1461,2929.54
12079,-3.8523,-1.4856,12.3469,1463,2929.54
12084,-3.6152,2.2541,8.6957,1498,2928.83
12089,1.919,3.8271,10.07,1463,2928.83
12094,1.6065,1.555,12.0536,1464,2928.83
12099,-3.2968,-1.6077,12.572,1466,2928.83
12104,-4.3299,2.0207,8.8717,1514,2928.4
12109,1.7406,3.7002,9.8186,1455,2928.4
12114,2.2996,1.962,11.8549,1464,2928.4
12119,-2.7869,-1.5862,12.7216,1459,2928.4
12124,-4.8914,1.7334,9.2153,1463,2928.4
12129,1.4712,3.5291,9.6295,1480,2928.11
12134,2.9078,2.393,11.5796,1465,2928.11
12139,-2.2841,-1.4042,12.7982,1455,2928.11
12144,-5.29,1.4174,9.5732,1469,2928.11
12149,1.1372,3.3507,9.3506,1483,2928.26
12154,3.2298,2.7809,11.3617,1459,2928.26
12159,-1.8232,-1.0918,12.9347,1459,2928.26
12164,-5.5282,1.0726,9.985,1461,2928.26
12169,0.7362,3.2394,9.0728,1479,2928.69
12174,3.3818,3.1591,11.1725,1461,2928.69
12179,-1.3958,-0.6704,12.8988,1455,2928.69
12184,-5.551,0.6309,10.3932,1463,2928.69
12189,0.243,3.0945,8.8298,1490,2928.97
12194,3.2896,3.45,10.9654,1463,2928.97
12199,-1.0977,-0.267,12.8676,1459,2928.97
12204,-5.4013,0.1353,10.8876,1465,2928.97
12209,-0.3424,2.9054,8.6383,1485,2928.97
12214,3.0646,3.65,10.7356,1465,2928.97
12219,-0.7949,0.1077,12.6725,1453,2928.97
12224,-5.1511,-0.4154,11.2516,1468,2928.97
12229,-1.075,2.7749,8.5234,1504,2928.83
12234,2.7461,3.8487,10.5656,1460,2928.83
12239,-0.4513,0.4417,12.5779,1464,2928.83
12244,-4.8818,-0.8823,11.5401,1459,2928.83
12249,-1.7897,2.5726,8.43,1503,2928.54
12254,2.4445,3.875,10.4495,1461,2928.54
12259,-0.0491,0.7853,12.3661,1460,2928.54
12264,-4.4628,-1.2246,11.9614,1460,2928.54
12269,-2.5989,2.4313,8.5258,1511,2928.69
12274,2.1871,3.9193,10.2891,1465,2928.69
12279,0.5878,1.093,12.2188,1459,2928.69
12284,-4.0007,-1.4605,12.2188,1459,2928.69
12289,-3.3363,2.2793,8.5497,1501,2928.83
12294,1.9597,3.8607,10.1478,1463,2928.83
12299,1.3084,1.4449,12.0895,1462,2928.83
12304,-3.4979,-1.6197,12.5468,1467,2928.83
12309,-4.0893,2.0865,8.7364,1487,2930.12
12314,1.8196,3.7565,9.9695,1459,2930.12
12319,2.0949,1.8387,11.8357,1469,2930.12
12324,-3.0071,-1.6233,12.7072,1461,2930.12
12329,-4.6866,1.8507,9.0872,1464,2930.12
12334,1.5993,3.6404,9.7336,1477,2930.55
12339,2.6911,2.2194,11.6741,1459,2930.55
12344,-2.5223,-1.5574,12.876,1456,2930.55
12349,-5.1595,1.5957,9.3781,1479,2930.55
12354,1.306,3.4824,9.4344,1477,2931.83
12359,3.1005,2.6408,11.4634,1461,2931.83
12364,-2.071,-1.2306,12.9371,1459,2931.83
12369,-5.4887,1.2785,9.7995,1467,2931.83
12374,0.9349,3.3291,9.2332,1484,2931.12
12379,3.2729,3.0059,11.3186,1459,2931.12
12384,-1.6628,-0.8978,12.9191,1460,2931.12
12389,-5.5462,0.8655,10.1586,1460,2931.12
12394,0.5818,3.1783,8.9783,1483,2930.55
12399,3.322,3.3243,11.0085,1463,2930.55
12404,-1.2857,-0.4729,12.9407,1453,2930.55
12409,-5.5258,0.3938,10.6362,1461,2930.55
12414,0.0036,3.0035,8.7795,1495,2929.97
12419,3.146,3.559,10.8122,1461,2929.97
12424,-0.9816,-0.073,12.821,1453,2929.97
12429,-5.3439,-0.079,10.987,1465,2929.97
12434,-0.6213,2.8599,8.6,1508,2929.4
12439,2.9066,3.729,10.6937,1464,2929.4
12444,-0.6656,0.2825,12.6953,1459,2929.4
12449,-5.0446,-0.6009,11.376,1464,2929.4
12454,-1.3611,2.654,8.4587,1511,2929.12
12459,2.5881,3.8463,10.5237,1461,2929.12
12464,-0.2861,0.6201,12.5324,1461,2929.12
12469,-4.6735,-1.0594,11.7412,1461,2929.12
12474,-2.1512,2.5654,8.418,1499,2928.4
12479,2.2853,3.8894,10.3441,1465,2928.4
12484,0.1963,0.9301,12.4091,1455,2928.4
12489,-4.3048,-1.3623,12.0416,1459,2928.4
12494,-2.9125,2.3978,8.5293,1513,2928.11
12499,2.083,3.8583,10.1945,1466,2928.11
12504,0.8703,1.2378,12.1913,1455,2928.11
12509,-3.8056,-1.5371,12.3768,1465,2928.11
12514,-3.6631,2.2386,8.7197,1508,2928.11
12519,1.8962,3.7948,9.9802,1460,2928.11
12524,1.6807,1.6197,11.9961,1463,2928.11
12529,-3.1987,-1.6089,12.566,1456,2928.11
12534,-4.3718,1.9956,8.8813,1493,2928.4
12539,1.6532,3.6823,9.8174,1460,2928.4
12544,2.4026,2.0207,11.807,1463,2928.4
12549,-2.7114,-1.579,12.8018,1461,2928.4
12554,-4.9452,1.7705,9.2201,1461,2928.4
12559,1.4736,3.5566,9.6247,1481,2928.4
12564,2.9173,2.4157,11.6155,1463,2928.4
12569,-2.2015,-1.3491,12.8832,1453,2928.4
12574,-5.2936,1.4389,9.6115,1469,2928.4
12579,1.0858,3.3662,9.2907,1483,2928.54
12584,3.1735,2.8371,11.3425,1451,2928.54
12589,-1.7693,-1.0606,12.8964,1463,2928.54
12594,-5.545,1.0463,10.0054,1458,2928.54
12599,0.7685,3.2154,9.1303,1483,2928.4
12604,3.3291,3.1795,11.139,1461,2928.4
12609,-1.4078,-0.6524,12.9,1455,2928.4
12614,-5.5545,0.6117,10.4615,1461,2928.4
12619,0.2143,3.0574,8.8573,1491,2928.4
12624,3.2094,3.4824,10.9882,1460,2928.4
12629,-1.0666,-0.2215,12.8808,1456,2928.4
12634,-5.3929,0.0575,10.8062,1461,2928.4
12639,-0.4238,2.8671,8.6239,1487,2928.11
12644,2.9999,3.6739,10.7679,1464,2928.11
12649,-0.7374,0.1269,12.6905,1456,2928.11
12654,-5.1727,-0.4345,11.2767,1465,2928.11
12659,-1.0953,2.7485,8.4922,1509,2928.26
12664,2.7198,3.8295,10.586,1453,2928.26
12669,-0.4561,0.4645,12.5732,1465,2928.26
12674,-4.7848,-0.8691,11.6837,1459,2928.26
12679,-1.8806,2.5474,8.4276,1511,2928.11
12684,2.375,3.8762,10.3262,1465,2928.11
12689,0.0359,0.8068,12.3649,1461,2928.11
12694,-4.3993,-1.2234,11.9818,1461,2928.11
12699,-2.6743,2.4529,8.4563,1512,2928.11
12704,2.156,3.9025,10.2424,1467,2928.11
12709,0.7039,1.0953,12.2152,1463,2928.11
12714,-3.9552,-1.4868,12.2799,1468,2928.11
12719,-3.4656,2.2817,8.5688,1513,2928.4
12724,1.9166,3.8271,10.0963,1465,2928.4
12729,1.4018,1.4832,12.0859,1467,2928.4
12734,-3.4441,-1.6233,12.6043,1469,2928.4
12739,-4.1372,2.1213,8.8526,1513,2927.69
12744,1.7442,3.729,9.9204,1461,2927.69
12749,2.1632,1.8866,11.8549,1477,2927.69
12754,-2.8706,-1.6065,12.7108,1463,2927.69
12759,-4.7669,1.8711,9.0812,1465,2927.69
12764,1.5071,3.614,9.7145,1491,2928.83
12769,2.7809,2.2805,11.7041,1471,2928.83
12774,-2.3511,-1.4653,12.8952,1461,2928.83
12779,-5.2146,1.5634,9.4415,1479,2928.83
12784,1.2438,3.4381,9.3829,1487,2928.4
12789,3.1556,2.6827,11.4718,1463,2928.4
12794,-1.8794,-1.1732,12.8796,1467,2928.4
12799,-5.4911,1.1827,9.8881,1464,2928.4
12804,0.8499,3.2753,9.177,1491,2928.26
12809,3.2573,3.067,11.2647,1465,2928.26
12814,-1.5143,-0.747,12.864,1455,2928.26
12819,-5.5306,0.747,10.3226,1469,2928.26
12824,0.3771,3.0885,8.9352,1497,2928.54
12829,3.2573,3.4046,10.9607,1467,2928.54
12834,-1.1432,-0.3639,12.9,1463,2928.54
12839,-5.5019,0.2813,10.7512,1465,2928.54
12844,-0.1975,2.9473,8.6886,1495,2928.54
12849,3.0538,3.5925,10.7943,1469,2928.54
12854,-0.8775,-0.0144,12.7383,1461,2928.54
12859,-5.2457,-0.2143,11.0971,1478,2928.54
12864,-0.832,2.8156,8.5712,1509,2928.4
12869,2.7797,3.7445,10.6003,1465,2928.4
12874,-0.5327,0.4178,12.6139,1467,2928.4
12879,-4.9189,-0.7135,11.5041,1463,2928.4
12884,-1.5933,2.6252,8.4252,1519,2928.54
12889,2.4744,3.8391,10.4279,1467,2928.54
12894,-0.0862,0.7087,12.4283,1463,2928.54
12899,-4.5478,-1.1013,11.8944,1465,2928.54
12904,-2.3786,2.5079,8.3929,1519,2928.69
12909,2.235,3.8714,10.2424,1467,2928.69
12914,0.4549,0.9996,12.323,1467,2928.69
12919,-4.1108,-1.4198,12.1913,1467,2928.69
12924,-3.1891,2.2817,8.5198,1518,2928.97
12929,1.9932,3.8343,10.1251,1469,2928.97
12934,1.1085,1.3683,12.129,1469,2928.97
12939,-3.6045,-1.585,12.4582,1471,2928.97
12944,-3.9385,2.1512,8.7317,1529,2929.26
12949,1.8435,3.7601,9.9527,1460,2929.26
12954,1.901,1.7238,11.9375,1479,2929.26
12959,-3.049,-1.6005,12.6653,1465,2929.26
12964,-4.5861,1.9704,9.007,1466,2929.26
12969,1.6281,3.6799,9.7348,1492,2929.4
12974,2.5486,2.1392,11.7627,1471,2929.4
12979,-2.5941,-1.5036,12.8186,1461,2929.4
12984,-5.0422,1.7095,9.317,1479,2929.4
12989,1.4042,3.4967,9.4918,1493,2929.4
12994,3.0777,2.5546,11.5365,1467,2929.4
12999,-2.0363,-1.2941,12.8557,1467,2929.4
13004,-5.4025,1.336,9.6678,1469,2929.4
13009,1.0666,3.3639,9.244,1496,2929.4
13014,3.2585,2.9521,11.297,1469,2929.4
13019,-1.0139,-0.0994,12.8102,1462,2929.4
13024,-5.3774,-0.0407,11.0576,1467,2929.4
13029,0.5997,3.1771,9.0261,1497,2929.26
13034,2.8551,3.717,10.6853,1469,2929.26
13039,-0.6716,0.261,12.6174,1465,2929.26
13044,-5.0985,-0.5219,11.4156,1467,2929.26
13049,-1.3695,2.7174,8.4348,1501,2929.12
13054,2.6001,3.8571,10.5405,1469,2929.12
13059,-0.3041,0.6213,12.5313,1459,2929.12
13064,-4.6986,-0.9996,11.8226,1469,2929.12
13069,-2.1105,2.5462,8.4467,1523,2928.97
13074,2.3475,3.869,10.3741,1466,2928.97
13079,0.2705,0.8667,12.3265,1463,2928.97
13084,-4.3048,-1.3252,12.0991,1463,2928.97
13089,-2.8838,2.3655,8.5293,1509,2928.83
13094,2.1177,3.8618,10.1861,1468,2928.83
13099,0.8882,1.1995,12.1482,1467,2928.83
13104,-3.7385,-1.5742,12.4115,1465,2928.83
13109,-3.6536,2.1871,8.6598,1511,2928.97
13114,1.8783,3.7685,10.0102,1477,2928.97
13119,1.6568,1.549,11.995,1465,2928.97
13124,-3.3184,-1.6436,12.645,1465,2928.97
13129,-4.3407,2.0423,8.922,1497,2929.26
13134,1.6867,3.6751,9.8078,1471,2929.26
13139,2.32,1.9728,11.8022,1464,2929.26
13144,-2.7857,-1.5024,12.8126,1478,2929.26
13149,-4.9189,1.798,9.1866,1497,2929.54
13154,1.4772,3.5686,9.5924,1464,2929.54
13159,2.9018,2.3822,11.6382,1478,2929.54
13164,-2.2434,-1.3384,12.9502,1463,2929.54
13169,-5.2852,1.4688,9.578,1497,2929.4
13174,1.1612,3.4345,9.341,1467,2929.4
13179,3.2286,2.7761,11.3557,1468,2929.4
13184,-1.7753,-1.0175,12.8832,1465,2929.4
13189,-5.5474,1.0846,9.9359,1469,2929.4
13194,0.7757,3.2274,9.0273,1487,2929.69
13199,3.2944,3.1113,11.151,1466,2929.69
13204,-1.3946,-0.6596,12.9347,1463,2929.69
13209,-5.5821,0.5495,10.3705,1479,2929.69
13214,0.2622,3.0933,8.8035,1495,2929.69
13219,3.2142,3.395,10.9786,1465,2929.69
13224,-1.0953,-0.3029,12.882,1465,2929.69
13229,-5.4911,0.1676,10.756,1466,2929.69
13234,-0.3687,2.903,8.7089,1494,2929.54
13239,3.0047,3.6512,10.7763,1469,2929.54
13244,-0.8811,0.073,12.7012,1467,2929.54
13249,-5.2457,-0.3017,11.1881,1465,2929.54
13254,-1.0511,2.7557,8.5437,1503,2929.26
13259,2.7174,3.8199,10.5584,1467,2929.26
13264,-0.4812,0.4465,12.5313,1463,2929.26
13269,-4.8985,-0.759,11.5975,1465,2929.26
13274,-1.7418,2.6564,8.4611,1485,2928.4
13279,2.4505,3.9121,10.3837,1468,2928.4
13284,0.0084,0.7326,12.4235,1464,2928.4
13289,-4.4855,-1.1839,11.9566,1471,2928.4
13294,-2.4768,2.466,8.4432,1524,2929.4
13299,2.1799,3.8571,10.2639,1469,2929.4
13304,0.5794,1.0582,12.2715,1469,2929.4
13309,-4.0151,-1.4593,12.2655,1467,2929.4
13314,-3.3136,2.3032,8.5796,1523,2928.83
13319,1.9549,3.7912,10.0485,1479,2928.83
13324,1.2965,1.3994,12.0644,1463,2928.83
13329,-3.5398,-1.652,12.5097,1463,2928.83
13334,-4.0654,2.138,8.7927,1529,2928.83
13339,1.731,3.7026,9.8952,1477,2928.83
13344,1.9776,1.8052,11.9459,1467,2928.83
13349,-3.0311,-1.579,12.7563,1477,2928.83
13354,-4.6771,1.9249,9.1423,1501,2928.26
13359,1.5514,3.62,9.7468,1469,2928.26
13364,2.6516,2.2206,11.7603,1471,2928.26
13369,-2.4612,-1.4293,12.8724,1467,2928.26
13374,-5.1248,1.6616,9.4475,1510,2929.54
13379,1.2869,3.5039,9.4595,1465,2929.54
13384,3.1077,2.6396,11.5101,1479,2929.54
13389,-1.9573,-1.1624,12.9299,1467,2929.54
13394,-5.454,1.2605,9.736,1467,2929.54
13399,0.9912,3.322,9.1722,1493,2928.97
13404,3.3184,2.97,11.2635,1471,2928.97
13409,-1.5239,-0.8787,12.9287,1464,2928.97
13414,-5.5629,0.8033,10.2089,1481,2928.97
13419,0.4717,3.1184,8.9304,1493,2929.26
13424,3.2801,3.2789,11.0361,1463,2929.26
13429,-1.172,-0.4788,12.8904,1467,2929.26
13434,-5.545,0.3675,10.5656,1465,2929.26
13439,-0.0682,2.9963,8.7472,1496,2928.97
13444,3.0658,3.5626,10.8445,1469,2928.97
13449,-0.9182,-0.0898,12.7539,1459,2928.97
13454,-5.3786,-0.1221,11.0648,1461,2928.97
13459,-0.7697,2.8347,8.57,1495,2928.83
13464,2.8311,3.7781,10.6877,1461,2928.83
13469,-0.6105,0.2921,12.5959,1463,2928.83
13474,-5.0051,-0.5555,11.4634,1463,2928.83
13479,-1.4186,2.6863,8.4874,1492,2928.4
13484,2.569,3.8547,10.5213,1467,2928.4
13489,-0.2298,0.6201,12.4271,1460,2928.4
13494,-4.6304,-0.9637,11.8238,1467,2928.4
13499,-2.2194,2.5462,8.4408,1508,2928.54
13504,2.3308,3.893,10.3022,1459,2928.54
13509,0.3496,0.8882,12.2523,1464,2928.54
13514,-4.1539,-1.3874,12.1362,1455,2928.54
13519,-3.0227,2.3583,8.4791,1501,2928.4
13524,2.0435,3.8056,10.1502,1463,2928.4
13529,1.0487,1.2318,12.1422,1453,2928.4
13534,-3.6931,-1.5514,12.3996,1455,2928.4
13539,-3.8056,2.1835,8.7329,1510,2927.97
13544,1.8028,3.7673,9.9826,1462,2927.97
13549,1.7849,1.6448,11.9626,1459,2927.97
13554,-3.2094,-1.6412,12.6498,1461,2927.97
13559,-4.4724,1.9956,8.9986,1504,2927.97
13564,1.6137,3.6607,9.7779,1463,2927.97
13569,2.4181,2.0782,11.8142,1461,2927.97
13574,-2.6791,-1.5383,12.8066,1465,2927.97
13579,-5.0326,1.7621,9.2739,1483,2927.69
13584,1.4234,3.5171,9.5876,1455,2927.69
13589,2.9628,2.5175,11.5748,1463,2927.69
13594,-2.1452,-1.2833,12.9167,1455,2927.69
13599,-5.3463,1.4006,9.651,1455,2927.69
13604,1.0906,3.3627,9.2692,1479,2927.26
13609,3.2789,2.8563,11.3365,1465,2927.26
13614,-1.6676,-0.9397,12.894,1453,2927.26
13619,-5.5198,0.9505,10.0592,1470,2927.26
13624,0.6548,3.2046,9.0597,1479,2927.97
13629,3.3088,3.1807,11.1606,1460,2927.97
13634,-1.2462,-0.5866,12.9179,1459,2927.97
13639,-5.539,0.4764,10.4818,1461,2927.97
13644,0.067,3.0107,8.7783,1483,2927.97
13649,3.128,3.4608,10.9295,1461,2927.97
13654,-1.0163,-0.1688,12.8102,1454,2927.97
13659,-5.4037,0.0144,10.9271,1463,2927.97
13664,-0.5578,2.8802,8.6239,1485,2927.69
13669,2.8826,3.7122,10.6925,1463,2927.69
13674,-0.747,0.2107,12.6737,1459,2927.69
13679,-5.0817,-0.4597,11.3353,1461,2927.69
13684,-1.2713,2.7162,8.5389,1491,2927.26
13689,2.66,3.8487,10.5129,1463,2927.26
13694,-0.3424,0.5722,12.4822,1453,2927.26
13699,-4.7082,-0.8499,11.7507,1467,2927.26
13704,-2.0602,2.5786,8.4599,1511,2927.4
13709,2.3798,3.8714,10.3837,1461,2927.4
13714,0.1856,0.8894,12.3325,1465,2927.4
13719,-4.2772,-1.2773,12.0057,1459,2927.4
13724,-2.8287,2.3894,8.4443,1509,2927.83
13729,2.138,3.8188,10.228,1462,2927.83
13734,0.8727,1.1648,12.1254,1455,2927.83
13739,-3.79,-1.5287,12.39,1461,2927.83
13744,-3.6152,2.2218,8.6814,1511,2928.11
13749,1.8256,3.7433,10.0054,1465,2928.11
13754,1.5826,1.5347,11.9997,1459,2928.11
13759,-3.3148,-1.6723,12.6043,1460,2928.11
13764,-4.3718,2.0662,8.8945,1483,2928.69
13769,1.6664,3.6272,9.8509,1463,2928.69
13774,2.2865,1.9489,11.9243,1459,2928.69
13779,-2.8347,-1.5335,12.7982,1465,2928.69
13784,-4.9225,1.8232,9.1913,1509,2929.4
13789,1.4401,3.5757,9.5936,1455,2929.4
13794,2.8671,2.3774,11.5975,1465,2929.4
13799,-2.2889,-1.3228,12.9,1455,2929.4
13804,-5.3127,1.4844,9.5624,1460,2929.4
13809,1.1851,3.4716,9.4152,1483,2929.26
13814,3.2417,2.733,11.4718,1459,2929.26
13819,-1.8004,-1.0534,12.9466,1452,2929.26
13824,-5.4959,1.0858,9.9036,1476,2929.26
13829,0.7757,3.2453,9.0273,1479,2928.11
13834,3.316,3.1125,11.2097,1454,2928.11
13839,-1.3886,-0.7135,12.9478,1455,2928.11
13844,-5.5402,0.6045,10.4028,1465,2928.11
13849,0.2251,3.0765,8.8813,1483,2927.54
13854,3.225,3.4034,10.9942,1459,2927.54
13859,-1.1025,-0.2897,12.8018,1459,2927.54
13864,-5.4528,0.1233,10.7787,1461,2927.54
13869,-0.3436,2.9233,8.6838,1483,2927.97
13874,2.9556,3.6368,10.7679,1467,2927.97
13879,-0.8523,0.0994,12.6797,1460,2927.97
13884,-5.1954,-0.3555,11.2444,1459,2927.97
13889,-1.0199,2.7833,8.5389,1492,2928.11
13894,2.6995,3.8211,10.5979,1461,2928.11
13899,-0.4788,0.4525,12.5528,1452,2928.11
13904,-4.8602,-0.7362,11.6442,1462,2928.11
13909,-1.8244,2.642,8.4479,1503,2928.4
13914,2.5187,3.9253,10.4531,1459,2928.4
13919,-0.0204,0.7841,12.3469,1460,2928.4
13924,-4.4257,-1.16,11.9578,1459,2928.4
13929,-2.5989,2.4493,8.4886,1494,2928.69
13934,2.2565,3.8702,10.3142,1463,2928.69
13939,0.6273,1.0726,12.1877,1463,2928.69
13944,-3.966,-1.488,12.2248,1455,2928.69
13949,-3.395,2.2242,8.6012,1497,2928.97
13954,1.962,3.7673,10.1394,1465,2928.97
13959,1.3324,1.385,12.0632,1461,2928.97
13964,-3.5087,-1.6508,12.5456,1463,2928.97
13969,-4.1061,2.0901,8.7831,1485,2929.12
13974,1.7502,3.7242,9.8821,1463,2929.12
13979,2.0255,1.8184,11.886,1456,2929.12
13984,-3.0406,-1.6029,12.7324,1465,2929.12
13989,-4.7094,1.9178,9.1482,1486,2929.26
13994,1.5143,3.6129,9.7372,1453,2929.26
13999,2.6755,2.2266,11.7627,1468,2929.26
14004,-2.4912,-1.4329,12.8712,1454,2929.26
14009,-5.1631,1.6915,9.4152,1485,2928.26
14014,1.3012,3.456,9.4128,1459,2928.26
14019,3.1544,2.6324,11.564,1462,2928.26
14024,-2.0494,-1.2151,12.9861,1459,2928.26
14029,-5.4648,1.2198,9.8102,1467,2928.26
14034,0.9361,3.2908,9.2153,1481,2930.26
14039,3.3016,2.9556,11.2863,1463,2930.26
14044,-1.561,-0.7925,12.9203,1459,2930.26
14049,-5.5474,0.7985,10.2197,1469,2930.26
14054,0.4525,3.1472,8.9364,1485,2929.12
14059,3.2657,3.2825,11.0816,1462,2929.12
14064,-1.2043,-0.4489,12.8748,1463,2929.12
14069,-5.521,0.2861,10.6207,1459,2929.12
14074,-0.1329,2.9485,8.74,1483,2929.12
14079,3.0742,3.5362,10.8338,1464,2929.12
14084,-0.9673,-0.0204,12.7563,1461,2929.12
14089,-5.3678,-0.1508,11.0852,1459,2929.12
14094,-0.7542,2.8371,8.6167,1493,2928.97
14099,2.8575,3.7278,10.6578,1463,2928.97
14104,-0.6572,0.3053,12.6593,1455,2928.97
14109,-5.0194,-0.5974,11.4934,1464,2928.97
14114,-1.4581,2.6647,8.4839,1479,2928.97
14119,2.6348,3.9433,10.4411,1468,2928.97
14124,-0.2406,0.6548,12.4558,1459,2928.97
14129,-4.6244,-0.9876,11.7855,1463,2928.97
14134,-2.1883,2.5235,8.4611,1511,2928.83
14139,2.3044,3.869,10.3154,1461,2928.83
14144,0.3699,0.9242,12.3206,1463,2928.83
14149,-4.1982,-1.3252,12.1374,1455,2928.83
14154,-3.0083,2.3379,8.5353,1507,2928.69
14159,2.0973,3.814,10.1562,1465,2928.69
14164,0.9948,1.2558,12.1494,1462,2928.69
14169,-3.7206,-1.549,12.4223,1455,2928.69
14174,-3.796,2.1596,8.6874,1496,2928.69
14179,1.8244,3.723,9.9898,1462,2928.69
14184,1.7645,1.6448,11.9914,1455,2928.69
14189,-3.2609,-1.6364,12.6761,1469,2928.69
14194,-4.4915,1.98,8.9567,1491,2928.26
14199,1.6197,3.6631,9.821,1455,2928.26
14204,2.3631,2.0458,11.8262,1461,2928.26
14209,-2.7102,-1.5239,12.8198,1461,2928.26
14214,-4.9979,1.7837,9.3745,1511,2928.26
14219,1.3372,3.5578,9.5529,1461,2928.26
14224,2.9604,2.4636,11.6035,1465,2928.26
14229,-2.1775,-1.2474,12.9227,1459,2928.26
14234,-5.3534,1.4234,9.7169,1455,2928.26
14239,1.0834,3.4141,9.3063,1483,2928.54
14244,3.2549,2.8503,11.3677,1464,2928.54
14249,-1.6999,-0.9589,12.9538,1459,2928.54
14254,-5.5306,0.9637,10.003,1469,2928.54
14259,0.6608,3.2094,9.0237,1480,2929.12
14264,3.2896,3.1963,11.1438,1455,2929.12
14269,-1.3791,-0.5938,12.9047,1464,2929.12
14274,-5.5426,0.5076,10.5034,1455,2929.12
14279,0.1281,3.0382,8.8274,1481,2929.26
14284,3.1675,3.4824,10.8781,1463,2929.26
14289,-1.0523,-0.2227,12.785,1453,2929.26
14294,-5.448,0.0251,10.8912,1463,2929.26
14299,-0.5028,2.8443,8.5856,1496,2929.54
14304,2.9532,3.6811,10.7212,1463,2929.54
14309,-0.7913,0.1748,12.6522,1461,2929.54
14314,-5.1906,-0.425,11.3557,1459,2929.54
14319,-1.1779,2.7234,8.4827,1495,2929.12
14324,2.7054,3.8379,10.5345,1464,2929.12
14329,-0.4214,0.5004,12.5348,1459,2929.12
14334,-4.7872,-0.8272,11.6933,1466,2929.12
14339,-1.9321,2.6564,8.4479,1513,2928.54
14344,2.4852,3.8834,10.4148,1460,2928.54
14349,0.079,0.8236,12.3337,1466,2928.54
14354,-4.367,-1.2246,11.9638,1459,2928.54
14359,-2.6851,2.4193,8.5186,1511,2928.26
14364,2.2326,3.8535,10.2352,1465,2928.26
14369,0.6823,1.1133,12.1985,1459,2928.26
14374,-3.8642,-1.5024,12.2487,1460,2928.26
14379,-3.5159,2.2625,8.5928,1515,2928.11
14384,1.9321,3.7697,10.0904,1462,2928.11
14389,1.4772,1.4952,12.0536,1463,2928.11
14394,-3.4189,-1.6364,12.5444,1463,2928.11
14399,-4.2162,2.0997,8.8298,1495,2927.69
14404,1.6975,3.6619,9.8869,1465,2927.69
14409,2.1727,1.8567,11.8381,1461,2927.69
14414,-2.909,-1.5933,12.73,1461,2927.69
14419,-4.8159,1.8651,9.1423,1512,2928.54
14424,1.5,3.5949,9.6822,1461,2928.54
14429,2.7952,2.3164,11.6933,1467,2928.54
14434,-2.4193,-1.391,12.8904,1459,2928.54
14439,-5.2505,1.5706,9.5373,1459,2928.54
14444,1.2258,3.3758,9.3937,1489,2927.97
14449,3.1879,2.6983,11.4323,1465,2927.97
14454,-1.8723,-1.0942,12.9215,1455,2927.97
14459,-5.4708,1.1636,9.9599,1471,2927.97
14464,0.8428,3.2729,9.1111,1485,2928.4
14469,3.3387,3.1053,11.1953,1461,2928.4
14474,-1.4461,-0.7242,12.9,1459,2928.4
14479,-5.5258,0.6991,10.3418,1464,2928.4
14484,0.3304,3.061,8.8729,1487,2928.97
14489,3.2585,3.3375,11.0026,1461,2928.97
14494,-1.1672,-0.3316,12.8341,1460,2928.97
14499,-5.4708,0.1891,10.805,1467,2928.97
14504,-0.2885,2.9018,8.661,1483,2929.54
14509,3.0969,3.6176,10.7943,1467,2929.54
14514,-0.9098,0.0407,12.6797,1461,2929.54
14519,-5.2708,-0.2538,11.1869,1463,2929.54
14524,-0.9218,2.7677,8.5353,1491,2929.97
14529,2.8252,3.8211,10.6135,1465,2929.97
14534,-0.5543,0.3436,12.645,1455,2929.97
14539,-4.9775,-0.6907,11.5748,1467,2929.97
14544,-1.6257,2.6492,8.4719,1509,2930.12
14549,2.5857,3.9109,10.4004,1465,2930.12
14554,-0.0982,0.68,12.4091,1465,2930.12
14559,-4.5334,-1.0642,11.9076,1455,2930.12
14564,-2.3643,2.4936,8.4324,1510,2930.12
14569,2.3152,3.9109,10.3346,1465,2930.12
14574,0.4034,0.9936,12.2499,1461,2930.12
14579,-4.0725,-1.3264,12.135,1463,2930.12
14591,-3.1125,2.3236,8.5186,1520,2929.97
14595,1.1768,1.3443,12.1063,1455,2929.97
14599,-3.6655,-1.5814,12.5121,1461,2929.97
14604,-3.9325,2.162,8.7173,1497,2929.69
14609,1.8112,3.7457,10.0114,1467,2929.69
14614,1.8699,1.7178,11.989,1459,2929.69
14619,-3.2046,-1.67,12.6019,1469,2929.69
14624,-4.5717,1.9597,9.0034,1483,2930.55
14629,1.6245,3.5817,9.7097,1463,2930.55
14634,2.5307,2.1069,11.7831,1461,2930.55
14639,-2.7007,-1.4856,12.8353,1465,2930.55
14644,-5.0757,1.7322,9.3182,1516,2930.4
14649,1.3384,3.4488,9.4655,1459,2930.4
14654,3.0095,2.4684,11.5736,1463,2930.4
14659,-2.1787,-1.2689,12.9239,1459,2930.4
14664,-5.4049,1.3838,9.6929,1465,2930.4
14669,1.0678,3.3447,9.2668,1481,2930.12
14674,3.2537,2.8587,11.3737,1467,2930.12
14679,-1.7681,-0.9517,12.9646,1459,2930.12
14684,-5.5378,0.984,10.0832,1476,2930.12
14689,0.6847,3.1759,9.0273,1485,2930.4
14694,3.3208,3.2358,11.0624,1461,2930.4
14699,-1.3264,-0.5914,12.882,1459,2930.4
14704,-5.521,0.4597,10.5153,1460,2930.4
14709,0.0646,3.0203,8.8011,1485,2930.12
14714,3.1496,3.4668,10.9726,1465,2930.12
14719,-1.0654,-0.2143,12.7958,1451,2930.12
14724,-5.43,-0.0299,10.8924,1463,2930.12
14729,-0.4621,2.8419,8.5665,1493,2929.97
14734,2.9556,3.6955,10.6889,1463,2929.97
14739,-0.7685,0.158,12.7288,1460,2929.97
14744,-5.1595,-0.4717,11.3294,1464,2929.97
14749,-1.1935,2.7342,8.5533,1492,2929.69
14754,2.7174,3.8247,10.5752,1461,2929.69
14759,-0.4034,0.5124,12.5121,1459,2929.69
14764,-4.8159,-0.8428,11.6693,1467,2929.69
14769,-1.9201,2.6145,8.4108,1517,2929.26
14774,2.4397,3.8762,10.4172,1463,2929.26
14779,0.0706,0.8368,12.4032,1463,2929.26
14784,-4.3562,-1.1947,12.0201,1455,2929.26
14789,-2.7402,2.4169,8.503,1511,2928.54
14794,2.2027,3.8894,10.2352,1465,2928.54
14799,0.7661,1.1396,12.214,1459,2928.54
14804,-3.9085,-1.4736,12.2823,1461,2928.54
14809,-3.4943,2.241,8.6503,1517,2928.4
14814,1.9465,3.7816,10.1047,1453,2928.4
14819,1.4724,1.4784,12.0991,1461,2928.4
14824,-3.4333,-1.6436,12.56,1464,2928.4
14829,-4.2222,2.0339,8.8238,1497,2928.54
14834,1.7047,3.638,9.8378,1467,2928.54
14839,2.1739,1.9142,11.8381,1465,2928.54
14844,-2.9042,-1.6352,12.7635,1469,2928.54
14849,-4.8303,1.8423,9.1746,1515,2928.69
14854,1.4832,3.5231,9.6822,1459,2928.69
14859,2.7569,2.2841,11.6418,1479,2928.69
14864,-2.4636,-1.3755,12.8748,1455,2928.69
14869,-5.2541,1.5754,9.5517,1461,2928.69
14874,1.2366,3.4141,9.3601,1483,2928.83
14879,3.207,2.739,11.461,1467,2928.83
14884,-1.9477,-1.0738,12.9407,1455,2928.83
14889,-5.4995,1.2246,9.9766,1472,2928.83
14894,0.8607,3.2968,9.0956,1481,2929.26
14899,3.3267,3.049,11.2228,1463,2929.26
14904,-1.4892,-0.7003,12.8509,1459,2929.26
14909,-5.5701,0.7099,10.3094,1467,2929.26
14914,0.3627,3.0873,8.9076,1485,2929.26
14919,3.298,3.3435,10.9942,1464,2929.26
14924,-1.166,-0.3747,12.8162,1460,2929.26
14929,-5.5067,0.2095,10.7715,1462,2929.26
14934,-0.2203,2.9377,8.6754,1484,2929.4
14939,3.0801,3.5662,10.8122,1467,2929.4
14944,-0.9098,0.018,12.7599,1464,2929.4
14949,-5.2996,-0.2753,11.1438,1460,2929.4
14954,-0.9242,2.8072,8.5365,1495,2929.4
14959,2.8036,3.7996,10.6578,1463,2929.4
14964,-0.5758,0.3831,12.6318,1455,2929.4
14969,-5.0206,-0.6812,11.6274,1465,2929.4
14974,-1.5814,2.6468,8.4372,1508,2929.83
14979,2.5893,3.8846,10.4842,1465,2929.83
14984,-0.1856,0.6847,12.4606,1461,2929.83
14989,-4.5717,-1.0606,11.8633,1463,2929.83
14994,-2.4014,2.5295,8.521,1508,2930.26
14999,2.302,3.9409,10.3094,1463,2930.26
15004,0.4441,1.0355,12.3625,1465,2930.26
15009,-4.124,-1.3396,12.208,1461,2930.26
15014,-3.1472,2.2984,8.5078,1511,2930.12
15019,2.0913,3.7745,10.1215,1466,2930.12
15024,1.1875,1.3048,12.1147,1461,2930.12
15029,-3.6739,-1.5969,12.4451,1459,2930.12
15034,-3.9014,2.1823,8.6969,1501,2929.26
15039,1.8316,3.7062,10.0784,1467,2929.26
15044,1.895,1.7214,11.9375,1463,2929.26
15049,-3.1735,-1.658,12.6354,1468,2929.26
15054,-4.5454,1.9632,8.9711,1494,2929.26
15059,1.5862,3.5721,9.7576,1447,2929.26
15064,2.5355,2.0686,11.8022,1467,2929.26
15069,-2.6647,-1.5083,12.8533,1453,2929.26
15074,-5.0781,1.7131,9.3254,1493,2928.83
15079,1.3575,3.5027,9.5672,1461,2928.83
15084,3.0394,2.5151,11.5592,1465,2928.83
15089,-2.1512,-1.2258,12.9167,1459,2928.83
15094,-5.3762,1.3934,9.7492,1468,2928.83
15099,1.0283,3.3459,9.3206,1483,2928.4
15104,3.286,2.903,11.3485,1463,2928.4
15109,-1.7131,-0.9182,12.9203,1460,2928.4
15114,-5.5234,0.9469,10.0712,1471,2928.4
15119,0.577,3.207,9.0118,1485,2928.11
15124,3.2908,3.2334,11.1294,1466,2928.11
15129,-1.306,-0.5351,12.8808,1461,2928.11
15134,-5.5043,0.4417,10.5943,1455,2928.11
15139,0.0096,3.0095,8.7939,1487,2927.83
15144,3.1532,3.4907,10.8757,1463,2927.83
15149,-1.0151,-0.1544,12.7814,1463,2927.83
15154,-5.3175,-0.0239,10.8996,1462,2927.83
15159,-0.6045,2.8204,8.6251,1491,2927.69
15164,2.8611,3.7278,10.6458,1463,2927.69
15169,-0.7159,0.2334,12.6629,1452,2927.69
15174,-5.12,-0.5243,11.3856,1460,2927.69
15179,-1.3623,2.6959,8.5174,1479,2927.4
15184,2.6049,3.8259,10.5153,1464,2927.4
15189,-0.3508,0.559,12.4403,1461,2927.4
15194,-4.7704,-0.8954,11.7747,1466,2927.4
15199,-2.0985,2.5594,8.503,1510,2927.4
15204,2.399,3.9109,10.3657,1461,2927.4
15209,0.1808,0.9146,12.3134,1467,2927.4
15214,-4.2318,-1.2665,12.0967,1461,2927.4
15219,-2.8814,2.3918,8.5605,1513,2927.83
15224,2.1033,3.8595,10.1742,1467,2927.83
15229,0.929,1.2175,12.1518,1461,2927.83
15234,-3.7601,-1.5083,12.3038,1451,2927.83
15239,-3.6966,2.2158,8.6598,1491,2927.83
15244,1.9166,3.7194,10.0664,1465,2927.83
15249,1.6867,1.5622,12.0045,1459,2927.83
15254,-3.3243,-1.6496,12.5576,1468,2927.83
15259,-4.3622,2.0279,8.9292,1511,2928.4
15264,1.6161,3.559,9.8318,1461,2928.4
15269,2.3679,1.9561,11.8477,1465,2928.4
15274,-2.7833,-1.5802,12.7779,1461,2928.4
15279,-4.9464,1.7837,9.3015,1507,2928.54
15284,1.4269,3.4931,9.5636,1459,2928.54
15289,2.8659,2.4122,11.6394,1465,2928.54
15294,-2.3104,-1.336,12.876,1461,2928.54
15299,-5.3463,1.4952,9.6522,1465,2928.54
15304,1.1181,3.3627,9.3673,1484,2928.83
15309,3.2118,2.7976,11.3964,1466,2928.83
15314,-1.834,-0.9685,12.9323,1459,2928.83
15319,-5.4923,1.1205,10.0221,1469,2928.83
15324,0.7841,3.2382,9.0537,1486,2929.83
15329,3.3591,3.1424,11.1893,1463,2929.83
15334,-1.3587,-0.6752,12.8784,1465,2929.83
15339,-5.5498,0.6021,10.3848,1468,2929.83
15344,0.2394,3.0454,8.8226,1491,2930.26
15349,3.3076,3.3926,10.9403,1467,2930.26
15354,-1.1025,-0.2837,12.8449,1453,2930.26
15359,-5.4528,0.1065,10.8098,1463,2930.26
15364,-0.3675,2.8874,8.6263,1495,2930.69
15369,3.0311,3.6081,10.7308,1467,2930.69
15374,-0.8583,0.079,12.7168,1455,2930.69
15379,-5.211,-0.3807,11.248,1465,2930.69
15384,-1.075,2.7414,8.4886,1493,2930.69
15389,2.7557,3.7996,10.6123,1466,2930.69
15394,-0.5207,0.4477,12.615,1455,2930.69
15399,-4.9225,-0.7554,11.6011,1465,2930.69
15404,-1.7633,2.636,8.3977,1499,2929.97
15409,2.4636,3.8834,10.4555,1463,2929.97
15414,-0.1173,0.8284,12.487,1465,2929.97
15419,-4.4424,-1.1061,11.971,1463,2929.97
15424,-2.5163,2.4385,8.4192,1512,2929.83
15429,2.2984,3.8571,10.2987,1467,2929.83
15434,0.6333,1.148,12.299,1459,2929.83
15439,-4.0163,-1.4281,12.2404,1453,2929.83
15444,-3.3303,2.3044,8.4934,1513,2929.69
15449,2.0351,3.7385,10.137,1465,2929.69
15454,1.342,1.4317,12.2044,1463,2929.69
15459,-3.5602,-1.6496,12.3984,1467,2929.69
15464,-4.0294,2.083,8.685,1513,2929.83
15469,1.7633,3.5937,9.8617,1465,2929.83
15474,2.0147,1.7909,12.0141,1461,2929.83
15479,-3.0514,-1.6508,12.5839,1467,2929.83
15484,-4.6651,1.8974,8.9675,1515,2930.4
15489,1.5634,3.4907,9.6307,1462,2930.4
15494,2.6624,2.2278,11.9004,1469,2930.4
15499,-2.5738,-1.4485,12.894,1461,2930.4
15504,-5.1499,1.6448,9.3266,1463,2930.4
15509,1.3168,3.4069,9.3877,1483,2930.83
15514,3.0646,2.642,11.6358,1461,2930.83
15519,-2.1452,-1.1588,12.9574,1459,2930.83
15524,-5.436,1.3012,9.7157,1477,2930.83
15529,0.9972,3.2944,9.153,1484,2930.98
15534,3.3028,3.0239,11.4862,1462,2930.98
15539,-1.6616,-0.8188,12.9311,1462,2930.98
15544,-5.515,0.8787,10.0868,1469,2930.98
15549,0.5782,3.1089,8.8621,1487,2930.83
15554,3.3507,3.2801,11.169,1463,2930.83
15559,-1.3108,-0.4669,12.9,1463,2930.83
15564,-5.4719,0.3663,10.5213,1461,2930.83
15569,0.0359,2.9353,8.6311,1492,2931.26
15574,3.1951,3.5183,10.9678,1469,2931.26
15579,-1.0127,-0.0898,12.8401,1462,2931.26
15584,-5.3235,-0.1245,10.8637,1461,2931.26
15589,-0.6189,2.7665,8.4683,1493,2931.55
15594,2.9221,3.6595,10.7129,1465,2931.55
15599,-0.7542,0.2682,12.7611,1455,2931.55
15604,-5.1547,-0.4968,11.3258,1467,2931.55
15609,-1.2929,2.6576,8.3713,1510,2931.55
15614,2.6827,3.8642,10.6159,1461,2931.55
15619,-0.3783,0.6464,12.6869,1461,2931.55
15624,-4.8207,-0.9541,11.6657,1464,2931.55
15629,-2.0303,2.5402,8.3222,1509,2931.41
15634,2.4936,3.8966,10.4136,1469,2931.41
15639,0.1089,0.9373,12.6091,1463,2931.41
15644,-4.3766,-1.245,12.0057,1463,2931.41
15649,-2.7485,2.4289,8.3845,1512,2931.12
15654,2.2182,3.8463,10.1813,1467,2931.12
15659,0.7733,1.2055,12.4223,1455,2931.12
15664,-3.8978,-1.5191,12.2463,1462,2931.12
15669,-3.5207,2.217,8.5138,1497,2931.26
15674,1.9896,3.7445,9.991,1465,2931.26
15679,1.5167,1.5622,12.3038,1459,2931.26
15684,-3.4237,-1.6676,12.5193,1463,2931.26
15689,-4.1946,2.0075,8.6898,1495,2930.83
15694,1.7669,3.5961,9.827,1460,2930.83
15699,2.1512,1.9477,12.0859,1467,2930.83
15704,-2.9904,-1.646,12.7072,1464,2930.83
15709,-4.7728,1.8759,9.0585,1499,2930.98
15714,1.5227,3.4919,9.6223,1462,2930.98
15719,2.721,2.381,11.959,1468,2930.98
15724,-2.5175,-1.3982,12.8473,1463,2930.98
15729,-5.2253,1.5706,9.3625,1459,2930.98
15734,1.2761,3.4417,9.3458,1483,2930.83
15739,3.1184,2.7438,11.6741,1465,2930.83
15744,-2.0016,-1.0965,12.8964,1455,2930.83
15749,-5.4684,1.1839,9.8234,1469,2930.83
15754,0.984,3.3124,9.0848,1485,2931.26
15759,3.3531,3.0358,11.4179,1463,2931.26
15764,-1.5443,-0.7171,12.9047,1461,2931.26
15769,-5.533,0.7614,10.1981,1459,2931.26
15774,0.4597,3.0765,8.7939,1483,2930.4
15779,3.31,3.3363,11.1247,1461,2930.4
15784,-1.1815,-0.34,12.9095,1459,2930.4
15789,-5.4624,0.2143,10.5836,1470,2930.4
15794,-0.1425,2.8838,8.5916,1483,2929.97
15799,3.1017,3.571,10.9319,1465,2929.97
15804,-0.9254,-0.0108,12.8054,1460,2929.97
15809,-5.3822,-0.249,11.0385,1465,2929.97
15814,-0.7829,2.7641,8.4467,1491,2930.12
15819,2.8706,3.7733,10.7164,1463,2930.12
15824,-0.7039,0.3974,12.7407,1455,2930.12
15829,-5.0242,-0.6381,11.4299,1469,2930.12
15834,-1.4904,2.648,8.2827,1512,2930.12
15839,2.6109,3.9157,10.5201,1461,2930.12
15844,-0.2897,0.7398,12.5923,1463,2930.12
15849,-4.6579,-1.0319,11.7687,1459,2930.12
15854,-2.2398,2.4888,8.3187,1513,2929.83
15859,2.3846,3.9193,10.3669,1465,2929.83
15864,0.2897,1.0319,12.5037,1459,2929.83
15869,-4.1863,-1.3479,12.1278,1460,2929.83
15874,-2.9796,2.2577,8.4144,1513,2929.83
15879,2.1536,3.7804,10.2113,1469,2929.83
15884,1.0271,1.3288,12.3134,1461,2929.83
15889,-3.717,-1.6149,12.378,1461,2929.83
15894,-3.7936,2.1332,8.6024,1515,2929.83
15899,1.816,3.6859,9.9659,1467,2929.83
15904,1.7047,1.6831,12.1865,1461,2929.83
15909,-3.2561,-1.6975,12.5624,1465,2929.83
15914,-4.4377,1.9381,8.8621,1517,2929.97
15919,1.6316,3.5674,9.6941,1455,2929.97
15924,2.3703,2.1117,12.0524,1477,2929.97
15929,-2.7857,-1.5646,12.7838,1459,2929.97
15934,-5.0015,1.7645,9.1937,1464,2929.97
15939,1.4341,3.48,9.5337,1483,2929.97
15944,2.9317,2.5091,11.789,1463,2929.97
15949,-2.2936,-1.3072,12.8988,1459,2929.97
15954,-5.302,1.4329,9.5349,1477,2929.97
15959,1.142,3.3746,9.2883,1477,2930.26
15964,3.2453,2.8611,11.5724,1463,2930.26
15969,-1.8316,-0.9649,12.9311,1461,2930.26
15974,-5.4755,1.0427,9.9144,1467,2930.26
15979,0.7626,3.1999,8.9878,1485,2929.69
15984,3.3627,3.1627,11.2647,1463,2929.69
15989,-1.4054,-0.6333,12.9083,1463,2929.69
15994,-5.4743,0.5291,10.3501,1461,2929.69
15999,0.2059,3.0155,8.77,1485,2929.12
16004,3.1903,3.4488,11.0301,1467,2929.12
16009,-1.0882,-0.2119,12.8724,1463,2929.12
16014,-5.4133,0.0192,10.8086,1461,2929.12
16019,-0.4298,2.8311,8.5401,1496,2928.97
16024,2.988,3.6763,10.7679,1464,2928.97
16029,-0.8296,0.1377,12.7886,1455,2928.97
16034,-5.2206,-0.4334,11.2204,1463,2928.97
16039,-1.1337,2.7234,8.3797,1504,2928.97
16044,2.7426,3.8056,10.5896,1464,2928.97
16049,-0.5088,0.5423,12.7288,1463,2928.97
16054,-4.8507,-0.8464,11.5891,1463,2928.97
16059,-1.8747,2.5893,8.3701,1517,2928.97
16064,2.4804,3.8642,10.4004,1463,2928.97
16069,-0.0287,0.8595,12.6031,1467,2928.97
16074,-4.4041,-1.1504,11.9112,1461,2928.97
16079,-2.636,2.4014,8.3965,1512,2928.83
16084,2.2649,3.8391,10.2472,1469,2928.83
16089,0.6668,1.1779,12.396,1456,2928.83
16094,-3.9528,-1.5131,12.208,1461,2928.83
16099,-3.377,2.2398,8.5066,1518,2929.12
16104,2.0554,3.7505,10.0521,1463,2929.12
16109,1.3467,1.5131,12.2906,1463,2929.12
16114,-3.5003,-1.664,12.463,1470,2929.12
16119,-4.112,2.0327,8.7245,1515,2929.26
16124,1.7789,3.62,9.8569,1463,2929.26
16129,2.0877,1.8627,12.1302,1469,2929.26
16134,-3.0358,-1.6628,12.6809,1465,2929.26
16139,-4.7369,1.8699,9.0764,1503,2929.69
16144,1.5598,3.5303,9.6271,1459,2929.69
16149,2.6528,2.3487,11.9399,1467,2929.69
16154,-2.5271,-1.4317,12.8281,1463,2929.69
16159,-5.1906,1.6197,9.4008,1465,2929.69
16164,1.33,3.401,9.3494,1483,2929.97
16169,3.1364,2.7054,11.6646,1466,2929.97
16174,-2.0075,-1.1384,12.8868,1453,2929.97
16179,-5.4384,1.2474,9.7911,1469,2929.97
16184,0.9529,3.3124,9.068,1487,2930.12
16189,3.3363,3.0466,11.4263,1463,2930.12
16194,-1.5443,-0.808,12.9251,1465,2930.12
16199,-5.5605,0.7398,10.1143,1461,2930.12
16204,0.5207,3.1077,8.8023,1485,2930.12
16209,3.3243,3.3327,11.1737,1463,2930.12
16214,-1.2318,-0.407,12.9083,1451,2930.12
16219,-5.4612,0.2682,10.55,1463,2930.12
16224,-0.1161,2.9257,8.5964,1497,2930.12
16229,3.1041,3.5398,10.9128,1464,2930.12
16234,-0.9457,-0.0443,12.8509,1461,2930.12
16239,-5.3367,-0.2047,10.9858,1464,2930.12
16244,-0.7254,2.7737,8.4851,1493,2930.12
16249,2.8527,3.7601,10.7464,1466,2930.12
16254,-0.7554,0.3472,12.7132,1455,2930.12
16259,-5.035,-0.6321,11.382,1471,2930.12
16264,-1.4497,2.6396,8.3414,1514,2930.26
16269,2.6205,3.8714,10.5273,1463,2930.26
16274,-0.2849,0.6644,12.5911,1464,2930.26
16279,-4.6914,-0.9912,11.722,1461,2930.26
16284,-2.2218,2.5091,8.3127,1515,2930.4
16289,2.3882,3.8834,10.3585,1467,2930.4
16294,0.2717,1.0127,12.5265,1453,2930.4
16299,-4.2641,-1.324,12.0955,1459,2930.4
16304,-2.9556,2.326,8.4013,1513,2930.83
16309,2.1488,3.8188,10.2041,1463,2930.83
16314,0.9409,1.2761,12.3254,1461,2930.83
16319,-3.7685,-1.6305,12.3002,1461,2930.83
16324,-3.729,2.1703,8.509,1501,2931.12
16329,1.9201,3.729,9.9635,1464,2931.12
16334,1.6448,1.6233,12.2643,1461,2931.12
16339,-3.2908,-1.6975,12.5097,1467,2931.12
16344,-4.4053,1.9728,8.7807,1525,2930.98
16349,1.7011,3.5817,9.7217,1455,2930.98
16354,2.2924,2.0865,12.0883,1478,2930.98
16359,-2.8539,-1.5682,12.7539,1461,2930.98
16364,-4.9201,1.7825,9.2045,1463,2930.98
16369,1.4856,3.4991,9.5445,1485,2930.69
16374,2.8419,2.4565,11.8118,1461,2930.69
16379,-2.3487,-1.385,12.8892,1459,2930.69
16384,-5.2625,1.5095,9.4571,1471,2930.69
16389,1.1815,3.3447,9.2775,1482,2930.83
16394,3.2022,2.8299,11.6418,1460,2930.83
16399,-1.8471,-1.0523,12.9574,1463,2930.83
16404,-5.4767,1.0618,9.8402,1469,2930.83
16409,0.838,3.2094,8.9926,1493,2930.83
16414,3.3746,3.128,11.3078,1461,2930.83
16419,-1.4186,-0.6261,12.9059,1462,2930.83
16424,-5.4971,0.5926,10.2723,1455,2930.83
16429,0.2933,3.0406,8.7544,1483,2930.83
16434,3.2836,3.401,11.1007,1467,2930.83
16439,-1.1253,-0.2538,12.882,1461,2930.83
16444,-5.4588,0.1018,10.7009,1459,2930.83
16449,-0.2705,2.8994,8.5341,1495,2930.4
16454,3.043,3.632,10.8038,1463,2930.4
16459,-0.8787,0.164,12.7898,1455,2930.4
16464,-5.2613,-0.34,11.1282,1463,2930.4
16469,-1.0044,2.7306,8.4348,1513,2930.12
16474,2.7737,3.8032,10.6338,1465,2930.12
16479,-0.583,0.4549,12.7336,1461,2930.12
16484,-4.962,-0.7889,11.5269,1463,2930.12
16489,-1.7274,2.6061,8.3534,1511,2929.54
16494,2.5953,3.8774,10.4531,1465,2929.54
16499,-0.1437,0.8092,12.6186,1464,2929.54
16504,-4.5346,-1.1504,11.8992,1460,2929.54
16509,-2.4816,2.4505,8.3402,1511,2928.97
16514,2.3176,3.8738,10.2675,1468,2928.97
16519,0.4776,1.1289,12.4463,1461,2928.97
16524,-4.0833,-1.4413,12.1997,1459,2928.97
16529,-3.2501,2.2709,8.418,1515,2928.97
16534,2.0842,3.7996,10.1347,1467,2928.97
16539,1.1851,1.4736,12.3385,1453,2928.97
16544,-3.5721,-1.6484,12.4211,1463,2928.97
16549,-3.9971,2.0662,8.6419,1509,2928.4
16554,1.8088,3.6368,9.8833,1455,2928.4
16559,1.8998,1.8004,12.0847,1467,2928.4
16564,-3.0837,-1.6161,12.6761,1461,2928.4
16569,-4.6328,1.9369,8.9555,1489,2927.97
16574,1.5742,3.5362,9.7013,1459,2927.97
16579,2.5474,2.2709,12.0009,1466,2927.97
16584,-2.6276,-1.5203,12.8533,1459,2927.97
16589,-5.0901,1.5957,9.3122,1465,2927.97
16594,1.3228,3.3591,9.3805,1479,2927.4
16599,3.0442,2.66,11.7124,1465,2927.4
16604,-2.1153,-1.1696,12.8988,1459,2927.4
16609,-5.4001,1.3001,9.7217,1467,2927.4
16614,0.9625,3.3495,9.1147,1485,2927.4
16619,3.2741,3.0454,11.4467,1461,2927.4
16624,-1.6053,-0.8224,12.9,1464,2927.4
16629,-5.4923,0.7997,10.1083,1456,2927.4
16634,0.5291,3.1089,8.855,1483,2927.11
16639,3.2645,3.3243,11.2336,1464,2927.11
16644,-1.2641,-0.3819,12.8976,1461,2927.11
16649,-5.4576,0.2825,10.4938,1463,2927.11
16654,-0.0718,2.964,8.6239,1493,2927.4
16659,3.0849,3.614,10.8601,1465,2927.4
16664,-0.9888,-0.0084,12.8401,1456,2927.4
16669,-5.29,-0.2191,10.9535,1464,2927.4
16674,-0.8033,2.7354,8.4671,1479,2927.83
16679,2.8659,3.7134,10.7164,1467,2927.83
16684,-0.6823,0.3184,12.6833,1456,2927.83
16689,-5.0242,-0.6572,11.3689,1463,2927.83
16694,-1.4832,2.6205,8.3558,1500,2928.83
16699,2.6157,3.881,10.55,1465,2928.83
16704,-0.2897,0.7039,12.6079,1464,2928.83
16709,-4.6675,-1.0379,11.7855,1454,2928.83
16714,-2.2709,2.5151,8.3606,1503,2929.4
16719,2.381,3.9145,10.3525,1463,2929.4
16724,0.3148,1.0223,12.5061,1461,2929.4
16729,-4.2737,-1.3707,12.1386,1465,2929.4
16734,-2.9975,2.3571,8.4204,1519,2929.83
16739,2.1524,3.8319,10.1526,1465,2929.83
16744,0.9517,1.3108,12.3589,1460,2929.83
16749,-3.7122,-1.5694,12.3385,1469,2929.83
16754,-3.8176,2.1691,8.5724,1519,2930.26
16759,1.9333,3.7206,9.9491,1464,2930.26
16764,1.7298,1.7011,12.1961,1465,2930.26
16769,-3.2825,-1.664,12.5696,1468,2930.26
16774,-4.4568,1.962,8.837,1516,2930.55
16779,1.7071,3.5638,9.669,1471,2930.55
16784,2.3954,2.0794,12.0009,1481,2930.55
16789,-2.8108,-1.5479,12.7814,1465,2930.55
16794,-4.9799,1.7765,9.1997,1461,2930.55
16799,1.4174,3.48,9.4703,1487,2930.69
16804,2.9125,2.4816,11.8166,1465,2930.69
16809,-2.3272,-1.3228,12.8485,1455,2930.69
16814,-5.3187,1.4389,9.5457,1471,2930.69
16819,1.1624,3.3639,9.2739,1485,2930.83
16824,3.2513,2.885,11.5676,1463,2930.83
16829,-1.8926,-0.9828,12.9514,1455,2930.83
16834,-5.5306,1.0283,9.991,1463,2930.83
16839,0.7673,3.2034,9.0118,1491,2931.12
16844,3.3291,3.1388,11.3078,1463,2931.12
16849,-1.4485,-0.5842,12.9466,1455,2931.12
16854,-5.5294,0.595,10.3358,1463,2931.12
16859,0.2382,3.0598,8.7472,1485,2931.69
16864,3.2884,3.4225,11.1175,1469,2931.69
16869,-1.1277,-0.2083,12.8916,1460,2931.69
16874,-5.4528,0.0934,10.7105,1465,2931.69
16879,-0.3448,2.903,8.5186,1496,2932.12
16884,3.055,3.6224,10.8098,1465,2932.12
16889,-0.8523,0.1472,12.8269,1459,2932.12
16894,-5.2577,-0.3627,11.1342,1469,2932.12
16899,-0.984,2.7402,8.3953,1512,2931.98
16904,2.8359,3.79,10.647,1464,2931.98
16909,-0.5375,0.4322,12.73,1462,2931.98
16914,-4.9512,-0.7518,11.5185,1460,2931.98
16919,-1.7035,2.569,8.3103,1517,2932.84
16924,2.6157,3.8654,10.4926,1463,2932.84
16929,-0.1413,0.7697,12.6127,1465,2932.84
16934,-4.61,-1.1289,11.8645,1463,2932.84
16939,-2.4493,2.4349,8.3438,1515,2932.84
16944,2.3715,3.8666,10.2699,1467,2932.84
16949,0.4525,1.0942,12.4726,1461,2932.84
16954,-4.1228,-1.4234,12.1853,1465,2932.84
16959,-3.1484,2.3128,8.3845,1513,2932.69
16964,2.1272,3.8044,10.1179,1468,2932.69
16969,1.1265,1.3982,12.3445,1463,2932.69
16974,-3.7445,-1.6281,12.4247,1478,2932.69
16979,-3.8439,2.1368,8.5916,1519,2933.7
16984,1.9082,3.6811,9.8952,1463,2933.7
16989,1.8328,1.7286,12.2404,1467,2933.7
16994,-3.2741,-1.6484,12.6127,1463,2933.7
16999,-4.4712,1.9644,8.8478,1511,2933.41
17004,1.6712,3.5458,9.6941,1457,2933.41
17009,2.4193,2.1021,12.056,1470,2933.41
17014,-2.7833,-1.5897,12.8581,1463,2933.41
17019,-4.9895,1.6843,9.1782,1461,2933.41
17024,1.4186,3.4297,9.4044,1491,2933.41
17029,2.9281,2.5211,11.8561,1464,2933.41
17034,-2.302,-1.2773,12.9107,1455,2933.41
17039,-5.3714,1.4114,9.4894,1479,2933.41
17044,1.1456,3.3471,9.1866,1489,2933.84
17049,3.2334,2.8695,11.6298,1464,2933.84
17054,-1.8615,-0.9361,12.9514,1465,2933.84
17059,-5.4995,1.0534,9.8785,1463,2933.84
17064,0.7817,3.2106,8.9399,1491,2933.7
17069,3.3507,3.1975,11.3449,1463,2933.7
17074,-1.4461,-0.6021,13.0185,1459,2933.7
17079,-5.5079,0.6285,10.3034,1465,2933.7
17084,0.2921,3.0382,8.7149,1491,2933.41
17089,3.2968,3.4548,11.078,1465,2933.41
17094,-1.1672,-0.2741,12.888,1461,2933.41
17099,-5.4684,0.146,10.6338,1461,2933.41
17104,-0.2622,2.8659,8.5078,1494,2933.41
17109,3.0658,3.6212,10.8924,1465,2933.41
17114,-0.8487,0.097,12.8569,1455,2933.41
17119,-5.2744,-0.316,11.066,1465,2933.41
17124,-0.9218,2.727,8.3546,1509,2933.55
17129,2.8635,3.7769,10.6494,1465,2933.55
17134,-0.5806,0.4441,12.7072,1464,2933.55
17139,-5.0278,-0.7661,11.4802,1463,2933.55
17144,-1.5909,2.5833,8.3222,1515,2933.7
17149,2.6085,3.8223,10.5034,1461,2933.7
17154,-0.1975,0.7314,12.6689,1464,2933.7
17159,-4.622,-1.0702,11.7962,1461,2933.7
17164,-2.3152,2.5223,8.3629,1518,2933.12
17169,2.3786,3.887,10.3441,1467,2933.12
17174,0.3615,1.0056,12.5396,1463,2933.12
17179,-4.2413,-1.3635,12.1302,1465,2933.12
17184,-3.0813,2.3272,8.491,1523,2932.69
17189,2.1153,3.7984,10.1251,1468,2932.69
17194,1.069,1.3084,12.3661,1459,2932.69
17199,-3.7421,-1.6328,12.3433,1469,2932.69
17204,-3.7733,2.1656,8.5425,1513,2932.55
17209,1.9213,3.6907,9.9264,1459,2932.55
17214,1.7166,1.7023,12.2224,1468,2932.55
17219,-3.2789,-1.7083,12.6234,1461,2932.55
17224,-4.4221,1.98,8.831,1511,2932.55
17229,1.7011,3.5458,9.6774,1461,2932.55
17234,2.3727,2.0243,11.9961,1468,2932.55
17239,-2.8371,-1.5838,12.7791,1462,2932.55
17244,-4.9177,1.7131,9.1243,1465,2932.55
17249,1.4772,3.3806,9.5014,1483,2932.41
17254,2.8695,2.5031,11.9004,1466,2932.41
17259,-2.3786,-1.336,12.9143,1459,2932.41
17264,-5.3139,1.494,9.5241,1471,2932.41
17269,1.2234,3.3674,9.2835,1486,2932.84
17274,3.1939,2.8599,11.6035,1461,2932.84
17279,-1.8794,-1.0546,12.9347,1464,2932.84
17284,-5.46,1.1073,9.9,1461,2932.84
17289,0.82,3.2394,9.0166,1491,2932.84
17294,3.3387,3.1484,11.3521,1463,2932.84
17299,-1.4808,-0.6093,12.9431,1455,2932.84
17304,-5.5605,0.68,10.2484,1465,2932.84
17309,0.34,2.9928,8.7305,1487,2933.12
17314,3.2741,3.383,11.0708,1463,2933.12
17319,-1.1935,-0.2682,12.9239,1463,2933.12
17324,-5.4875,0.1532,10.6877,1464,2933.12
17329,-0.2394,2.8683,8.5066,1495,2933.27
17334,3.1137,3.6081,10.908,1467,2933.27
17339,-0.911,0.0802,12.8006,1459,2933.27
17344,-5.3379,-0.2729,11.0456,1467,2933.27
17349,-0.8775,2.7354,8.3821,1487,2933.41
17354,2.8946,3.7792,10.72,1463,2933.41
17359,-0.6069,0.3687,12.7719,1463,2933.41
17364,-5.0518,-0.7254,11.4467,1461,2933.41
17369,-1.5502,2.6025,8.3677,1511,2933.27
17374,2.6193,3.8583,10.5165,1463,2933.27
17379,-0.2406,0.7398,12.6426,1463,2933.27
17384,-4.6711,-1.0343,11.7795,1462,2933.27
17389,-2.2637,2.4804,8.2899,1513,2932.84
17394,2.381,3.8786,10.3729,1467,2932.84
17399,0.3029,1.0271,12.5372,1463,2932.84
17404,-4.2605,-1.3838,12.1015,1461,2932.84
17409,-2.9963,2.3188,8.3725,1493,2932.98
17414,2.15,3.7888,10.1394,1469,2932.98
17419,1.0175,1.3264,12.3337,1471,2932.98
17424,-3.8164,-1.5838,12.3852,1481,2932.98
17429,-3.7194,2.1656,8.5162,1487,2932.69
17434,1.9249,3.6547,9.9276,1462,2932.69
17439,1.7023,1.6424,12.238,1467,2932.69
17444,-3.3148,-1.6712,12.5947,1459,2932.69
17449,-4.3886,1.9824,8.7999,1487,2932.55
17454,1.6975,3.5626,9.7588,1461,2932.55
17459,2.2996,2.0327,12.0392,1466,2932.55
17464,-2.8683,-1.5886,12.7982,1463,2932.55
17469,-4.9033,1.7777,9.1339,1464,2932.55
17474,1.4748,3.4943,9.5217,1483,2932.55
17479,2.8156,2.4421,11.8381,1467,2932.55
17484,-2.3906,-1.3982,12.9275,1459,2932.55
17489,-5.2708,1.482,9.4607,1471,2932.55
17494,1.2258,3.3674,9.2129,1484,2932.55
17499,3.231,2.8108,11.6179,1462,2932.55
17504,-1.8938,-1.0175,12.979,1463,2932.55
17509,-5.4719,1.1396,9.8569,1461,2932.55
17514,0.8619,3.2441,8.9818,1491,2932.84
17519,3.3782,3.1173,11.3282,1463,2932.84
17524,-1.5203,-0.6512,12.9419,1453,2932.84
17529,-5.5749,0.6536,10.1993,1464,2932.84
17534,0.4178,3.0754,8.734,1497,2933.12
17539,3.3363,3.3495,11.1534,1466,2933.12
17544,-1.1756,-0.3184,12.955,1461,2933.12
17549,-5.448,0.2514,10.6362,1462,2933.12
17554,-0.1879,2.8647,8.5341,1495,2932.98
17559,3.0945,3.5853,10.9271,1467,2932.98
17564,-0.8655,0.0682,12.8198,1461,2932.98
17569,-5.369,-0.2586,11.0253,1470,2932.98
17574,-0.8212,2.7653,8.4372,1516,2933.27
17579,2.8635,3.7816,10.7188,1461,2933.27
17584,-0.6237,0.4106,12.8114,1465,2933.27
17589,-5.0554,-0.6979,11.4168,1459,2933.27
17594,-1.5203,2.6408,8.3187,1515,2933.41
17599,2.6037,3.8882,10.5129,1465,2933.41
17604,-0.2777,0.7278,12.6629,1463,2933.41
17609,-4.695,-1.0044,11.7603,1463,2933.41
17614,-2.2146,2.5235,8.2923,1515,2933.41
17619,2.4086,3.869,10.3274,1467,2933.41
17624,0.3364,0.996,12.5743,1462,2933.41
17629,-4.2784,-1.3611,12.1039,1463,2933.41
17634,-2.9485,2.3427,8.3665,1495,2933.41
17639,2.1727,3.8176,10.1514,1469,2933.41
17644,0.9325,1.2785,12.3493,1464,2933.41
17649,-3.8235,-1.6113,12.2799,1471,2933.41
17654,-3.6667,2.1703,8.5389,1486,2933.55
17659,1.9537,3.6859,9.9575,1462,2933.55
17664,1.6532,1.6484,12.2416,1467,2933.55
17669,-3.377,-1.7059,12.5528,1460,2933.55
17674,-4.3371,1.992,8.8358,1491,2933.7
17679,1.7238,3.571,9.7312,1462,2933.7
17684,2.2386,2.0339,12.0919,1468,2933.7
17689,-2.9006,-1.5814,12.7671,1463,2933.7
17694,-4.8662,1.834,9.1279,1465,2933.7
17699,1.5143,3.5015,9.487,1485,2933.7
17704,2.818,2.3858,11.9339,1467,2933.7
17709,-2.4277,-1.3671,12.9119,1461,2933.7
17714,-5.2648,1.5467,9.4559,1479,2933.7
17719,1.2617,3.389,9.2416,1491,2934.13
17724,3.2214,2.7833,11.7076,1459,2934.13
17729,-1.998,-1.0618,12.9562,1463,2934.13
17734,-5.4552,1.1779,9.7983,1465,2934.13
17739,0.9337,3.2537,8.9483,1492,2933.99
17744,3.3878,3.0825,11.4215,1464,2933.99
17749,-1.5778,-0.7266,12.9598,1459,2933.99
17754,-5.5318,0.7554,10.1754,1463,2933.99
17759,0.4776,3.0574,8.7628,1495,2933.99
17764,3.3399,3.3315,11.1845,1466,2933.99
17769,-1.2617,-0.3855,12.9335,1459,2933.99
17774,-5.5079,0.2753,10.6039,1467,2933.99
17779,-0.0754,2.9269,8.5401,1496,2934.13
17784,3.1603,3.5901,10.9535,1467,2934.13
17789,-1.0259,-0.0192,12.8916,1455,2934.13
17794,-5.3702,-0.1712,10.9702,1467,2934.13
17799,-0.6919,2.7713,8.436,1493,2934.42
17804,2.9102,3.7721,10.7368,1464,2934.42
17809,-0.7673,0.2933,12.7767,1463,2934.42
17814,-5.1583,-0.5866,11.4036,1461,2934.42
17819,-1.3671,2.6348,8.2744,1517,2934.27
17824,2.6779,3.8583,10.6087,1463,2934.27
17829,-0.3196,0.6464,12.7132,1463,2934.27
17834,-4.81,-0.9529,11.7543,1463,2934.27
17839,-2.0638,2.5295,8.2947,1518,2934.42
17844,2.0027,3.6823,9.9551,1467,2934.42
17849,1.6556,1.6556,12.1937,1463,2934.42
17854,-3.3339,-1.664,12.5624,1462,2934.42
17859,-4.3155,2.0087,8.734,1527,2934.42
17864,1.7358,3.5889,9.7193,1465,2934.42
17869,2.2565,1.9752,12.044,1461,2934.42
17874,-2.9221,-1.6053,12.7551,1477,2934.42
17879,-4.8315,1.8112,9.0537,1517,2934.13
17884,1.5071,3.4429,9.5038,1463,2934.13
17889,2.818,2.3882,11.8728,1467,2934.13
17894,-2.4612,-1.3958,12.8964,1461,2934.13
17899,-5.272,1.5526,9.4391,1499,2934.27
17904,1.2522,3.3615,9.3182,1459,2934.27
17909,3.1711,2.7821,11.6502,1462,2934.27
17914,-2.0087,-1.1049,12.9897,1464,2934.27
17919,-5.4719,1.2246,9.7695,1463,2934.27
17924,0.9158,3.2154,9.0058,1487,2933.99
17929,3.3818,3.0682,11.382,1467,2933.99
17934,-1.5993,-0.7326,13.0125,1460,2933.99
17939,-5.5462,0.759,10.1622,1469,2933.99
17944,0.5148,3.1077,8.7616,1483,2934.27
17949,3.3208,3.3399,11.1259,1461,2934.27
17954,-1.2641,-0.3891,12.9598,1462,2934.27
17959,-5.4911,0.2586,10.5105,1463,2934.27
17964,-0.0455,2.9102,8.5581,1485,2934.56
17969,3.1627,3.5207,10.9367,1461,2934.56
17974,-0.9685,-0.018,12.8952,1453,2934.56
17979,-5.3474,-0.1879,10.9499,1463,2934.56
17984,-0.6452,2.8024,8.3677,1483,2934.56
17989,2.8994,3.7302,10.6937,1467,2934.56
17994,-0.7051,0.3089,12.8221,1462,2934.56
17999,-5.1667,-0.6021,11.3461,1465,2934.56
18004,-1.3467,2.6468,8.3067,1496,2934.7
18009,2.6911,3.8475,10.5848,1467,2934.7
18014,-0.3651,0.6584,12.7288,1449,2934.7
18019,-4.8387,-0.9601,11.6334,1465,2934.7
18024,-2.047,2.557,8.2672,1507,2934.85
18029,2.4936,3.8966,10.3346,1465,2934.85
18034,0.1233,0.9194,12.6186,1461,2934.85
18039,-4.4293,-1.2629,12.0153,1463,2934.85
18044,-2.7485,2.4074,8.3594,1513,2934.56
18049,2.2494,3.8283,10.2556,1463,2934.56
18054,0.7865,1.2234,12.4834,1466,2934.56
18059,-3.9049,-1.5095,12.2942,1463,2934.56
18064,-3.474,2.223,8.4467,1519,2934.56
18069,2.0423,3.7565,9.9898,1469,2934.56
18074,1.4521,1.5347,12.2535,1461,2934.56
18079,-3.4931,-1.664,12.5336,1459,2934.56
18084,-4.1623,2.059,8.6778,1495,2934.13
18089,1.7897,3.5877,9.845,1465,2934.13
18094,2.1009,1.889,12.1434,1462,2934.13
18099,-3.0837,-1.6293,12.615,1467,2934.13
18104,-4.7285,1.9106,8.983,1514,2934.85
18109,1.5993,3.5303,9.6247,1464,2934.85
18114,2.6791,2.2829,11.9806,1465,2934.85
18119,-2.6181,-1.482,12.8844,1467,2934.85
18124,-5.1499,1.6604,9.3194,1517,2934.7
18129,1.3551,3.4058,9.3637,1464,2934.7
18134,3.0478,2.63,11.8058,1477,2934.7
18139,-2.1715,-1.2007,12.9562,1463,2934.7
18144,-5.4324,1.336,9.6869,1463,2934.7
18149,1.0594,3.2872,9.0956,1487,2934.7
18154,3.3315,3.0335,11.5209,1469,2934.7
18159,-1.7154,-0.8164,12.9754,1459,2934.7
18164,-5.5294,0.8882,10.0317,1477,2934.7
18169,0.6524,3.1196,8.8214,1487,2934.56
18174,3.3291,3.2681,11.2216,1464,2934.56
18179,-1.3731,-0.5207,12.9682,1463,2934.56
18184,-5.5426,0.419,10.4722,1468,2934.56
18189,0.1317,2.9497,8.6706,1490,2934.56
18194,3.2537,3.5051,11.0337,1463,2934.56
18199,-1.0942,-0.1365,12.9694,1461,2934.56
18204,-5.4564,-0.0599,10.8266,1459,2934.56
18209,-0.4262,2.824,8.4491,1485,2934.56
18214,3.0047,3.65,10.8589,1469,2934.56
18219,-0.8607,0.2059,12.8509,1461,2934.56
18224,-5.2218,-0.4345,11.2384,1463,2934.56
18229,-1.1169,2.7426,8.3474,1497,2934.7
18234,2.7557,3.8607,10.6315,1463,2934.7
18239,-0.4681,0.5435,12.7635,1455,2934.7
18244,-4.9237,-0.8547,11.6059,1461,2934.7
18249,-1.7897,2.5941,8.254,1511,2934.27
18254,2.5714,3.8834,10.4675,1465,2934.27
18259,-0.0419,0.7961,12.621,1460,2934.27
18264,-4.5143,-1.154,11.8956,1465,2934.27
18269,-2.5031,2.4481,8.3306,1513,2934.27
18274,2.332,3.8738,10.331,1464,2934.27
18279,0.5507,1.1372,12.4929,1465,2934.27
18284,-4.1037,-1.4437,12.135,1461,2934.27
18289,-3.292,2.2841,8.3522,1512,2934.13
18294,2.0818,3.8056,10.0784,1467,2934.13
18299,1.2043,1.3791,12.3361,1460,2934.13
18304,-3.6655,-1.6245,12.4463,1462,2934.13
18309,-3.9828,2.0913,8.5677,1513,2934.42
18314,1.8471,3.6547,9.839,1471,2934.42
18319,1.9273,1.743,12.1889,1461,2934.42
18324,-3.2106,-1.5957,12.633,1467,2934.42
18329,-4.5645,1.9597,8.8585,1497,2934.56
18334,1.6388,3.5542,9.7169,1467,2934.56
18339,2.4924,2.1428,12.0392,1465,2934.56
18344,-2.7952,-1.5071,12.8449,1467,2934.56
18349,-5.0135,1.7657,9.177,1507,2934.56
18354,1.4641,3.4716,9.4774,1462,2934.56
18359,2.9939,2.5438,11.8381,1478,2934.56
18364,-2.326,-1.2701,12.9778,1455,2934.56
18369,-5.3498,1.4114,9.5002,1463,2934.56
18374,1.1588,3.3579,9.1901,1483,2935.85
18379,3.2932,2.8479,11.5089,1461,2935.85
18384,-1.8675,-0.9673,12.9993,1463,2935.85
18389,-5.5222,1.0642,9.9048,1471,2935.85
18394,0.8499,3.1927,8.8885,1483,2935.85
18399,3.401,3.1603,11.3294,1463,2935.85
18404,-1.4808,-0.6369,13.0089,1461,2935.85
18409,-5.5785,0.6081,10.331,1471,2935.85
18414,0.3208,3.0658,8.6886,1491,2935.71
18419,3.3148,3.3962,11.0792,1463,2935.71
18424,-1.2186,-0.2825,12.9598,1464,2935.71
18429,-5.4947,0.1413,10.6602,1461,2935.71
18434,-0.2263,2.8886,8.5186,1482,2935.71
18439,3.1328,3.5949,10.9176,1463,2935.71
18444,-0.917,0.0646,12.9059,1459,2935.71
18449,-5.3451,-0.2598,11.0696,1464,2935.71
18454,-0.8643,2.7761,8.3725,1487,2935.56
18459,2.9269,3.7481,10.6374,1467,2935.56
18464,-0.6608,0.4022,12.8497,1461,2935.56
18469,-5.0889,-0.6835,11.4108,1463,2935.56
18474,-1.5299,2.6013,8.345,1493,2935.28
18479,2.6576,3.9037,10.5477,1468,2935.28
18484,-0.2813,0.7494,12.6737,1455,2935.28
18489,-4.7094,-1.0104,11.7495,1463,2935.28
18494,-2.2063,2.5199,8.2588,1519,2935.56
18499,2.3954,3.8654,10.3513,1463,2935.56
18504,0.3005,0.9601,12.5552,1471,2935.56
18509,-4.3167,-1.3503,12.0907,1455,2935.56
18514,-2.9257,2.3367,8.3546,1512,2935.13
18519,2.1955,3.8008,10.1837,1465,2935.13
18524,0.9146,1.2558,12.4654,1459,2935.13
18529,-3.9025,-1.5933,12.3397,1461,2935.13
18534,-3.6512,2.211,8.4527,1517,2935.13
18539,1.9812,3.7481,9.9766,1468,2935.13
18544,1.6113,1.6293,12.2128,1461,2935.13
18549,-3.5111,-1.646,12.4989,1454,2935.13
18554,-4.2988,2.071,8.7424,1519,2934.7
18559,1.7346,3.5985,9.7959,1468,2934.7
18564,2.2326,1.9405,12.1194,1459,2934.7
18569,-3.0227,-1.6137,12.6857,1468,2934.7
18574,-4.8219,1.8172,9.0453,1518,2934.56
18579,1.585,3.5243,9.5541,1453,2934.56
18584,2.8144,2.3487,11.9219,1471,2934.56
18589,-2.5534,-1.3874,12.8952,1450,2934.56
18594,-5.2493,1.5886,9.4367,1494,2933.99
18599,1.3108,3.4153,9.2584,1459,2933.99
18604,3.1376,2.721,11.6622,1467,2933.99
18609,-2.0626,-1.1169,12.9634,1461,2933.99
18614,-5.4468,1.2103,9.7288,1466,2933.99
18619,0.9792,3.2585,8.9914,1483,2934.85
18624,3.3794,3.0119,11.4598,1465,2934.85
18629,-1.6759,-0.808,12.973,1460,2934.85
18634,-5.5785,0.8164,10.1359,1477,2934.85
18639,0.577,3.0801,8.7544,1480,2934.56
18644,3.3315,3.3387,11.2013,1465,2934.56
18649,-1.3168,-0.4573,12.9431,1466,2934.56
18654,-5.551,0.3795,10.5381,1459,2934.56
18659,0.0299,2.9485,8.5353,1486,2934.56
18664,3.1963,3.5123,10.9894,1467,2934.56
18669,-1.0726,-0.0778,12.9502,1455,2934.56
18674,-5.4396,-0.1089,10.8972,1464,2934.56
18679,-0.5902,2.8168,8.4312,1495,2934.42
18684,2.9844,3.6859,10.8086,1453,2934.42
18689,-0.7219,0.2454,12.8138,1461,2934.42
18694,-5.193,-0.5303,11.3222,1463,2934.42
18699,-1.2402,2.7138,8.3414,1495,2934.56
18704,2.7689,3.863,10.5692,1465,2934.56
18709,-0.3843,0.5818,12.6737,1455,2934.56
18714,-4.8483,-0.9266,11.625,1469,2934.56
18719,-1.9465,2.5498,8.2456,1515,2934.42
18724,2.5067,3.8846,10.3489,1456,2934.42
18729,0.0682,0.8631,12.5504,1463,2934.42
18734,-4.446,-1.233,12.0357,1455,2934.42
18739,-2.6635,2.399,8.3127,1507,2934.56
18744,2.2326,3.8379,10.1801,1465,2934.56
18749,0.7362,1.1444,12.4774,1463,2934.56
18754,-4.0606,-1.5048,12.2164,1461,2934.56
18759,-3.3686,2.2206,8.418,1513,2934.56
18764,2.0051,3.7781,10.1287,1468,2934.56
18769,1.3527,1.4736,12.3289,1460,2934.56
18774,-3.6081,-1.6544,12.5049,1463,2934.56
18779,-4.1049,2.1021,8.6323,1493,2934.27
18784,1.822,3.6392,9.8773,1467,2934.27
18789,2.0051,1.8603,12.1398,1463,2934.27
18794,-3.1388,-1.6496,12.6893,1471,2934.27
18799,-4.6316,1.9285,8.9495,1519,2935.28
18804,1.6412,3.5805,9.6247,1463,2935.28
18809,2.6205,2.2374,11.9961,1468,2935.28
18814,-2.6995,-1.5155,12.8473,1463,2935.28
18819,-5.108,1.6783,9.2093,1510,2934.99
18824,1.3695,3.4417,9.3386,1461,2934.99
18829,3.0562,2.5642,11.7519,1469,2934.99
18834,-2.2446,-1.2151,12.979,1461,2934.99
18839,-5.4025,1.3372,9.6355,1463,2934.99
18844,1.0846,3.3339,9.0836,1483,2934.99
18849,3.3208,2.9078,11.5017,1467,2934.99
18854,-1.7645,-0.9002,12.9897,1459,2934.99
18859,-5.5342,0.978,9.9719,1476,2934.99
18864,0.7386,3.1651,8.8777,1483,2934.99
18869,3.383,3.2106,11.3018,1461,2934.99
18874,-1.4341,-0.5926,12.9933,1461,2934.99
18879,-5.5881,0.5267,10.3441,1461,2934.99
18884,0.2035,3.0167,8.6084,1485,2934.7
18889,3.2896,3.4644,11.0492,1463,2934.7
18894,-1.1337,-0.1867,12.9658,1459,2934.7
18899,-5.4743,0.1053,10.726,1461,2934.7
18904,-0.3926,2.8431,8.509,1485,2934.56
18909,3.1232,3.6416,10.8409,1467,2934.56
18914,-0.8727,0.1736,12.9323,1464,2934.56
18919,-5.2972,-0.3771,11.1713,1463,2934.56
18924,-0.996,2.7569,8.3139,1493,2934.85
18929,2.8503,3.7721,10.6458,1465,2934.85
18934,-0.5076,0.4932,12.803,1455,2934.85
18939,-4.9955,-0.7506,11.4874,1465,2934.85
18944,-1.6484,2.6336,8.3067,1503,2934.99
18949,2.6085,3.8319,10.4938,1469,2934.99
18954,-0.1281,0.753,12.6749,1461,2934.99
18959,-4.5717,-1.1337,11.8405,1463,2934.99
18964,-2.4062,2.4936,8.3199,1515,2935.13
18969,2.3152,3.8032,10.2927,1465,2935.13
18974,0.4465,1.069,12.5372,1465,2935.13
18979,-4.215,-1.4449,12.1087,1460,2935.13
18984,-3.0969,2.3511,8.3725,1513,2935.13
18989,2.0901,3.7505,10.143,1467,2935.13
18994,1.1516,1.3384,12.4127,1459,2935.13
18999,-3.8008,-1.6556,12.3421,1459,2935.13
19004,-3.7936,2.2134,8.5413,1499,2935.13
19009,1.8926,3.6847,9.9216,1464,2935.13
19014,1.8483,1.6939,12.2212,1461,2935.13
19019,-3.3303,-1.6328,12.6091,1469,2935.13
19024,-4.4772,1.98,8.8119,1503,2935.28
19029,1.6927,3.6021,9.6786,1471,2935.28
19034,2.411,2.0458,12.1278,1467,2935.28
19039,-2.8946,-1.5706,12.7982,1465,2935.28
19044,-4.9153,1.798,9.074,1517,2935.13
19049,1.5706,3.5075,9.4655,1460,2935.13
19054,2.9532,2.4517,11.9076,1467,2935.13
19059,-2.4002,-1.3288,12.9443,1461,2935.13
19064,-5.3211,1.5275,9.4104,1461,2935.13
19069,1.2617,3.3974,9.2273,1487,2935.13
19074,3.2621,2.7689,11.6011,1464,2935.13
19079,-1.9261,-1.0403,12.9478,1459,2935.13
19084,-5.4851,1.1265,9.8222,1465,2935.13
19089,0.8691,3.2058,8.9495,1485,2935.56
19094,3.3722,3.0634,11.4359,1463,2935.56
19099,-1.5299,-0.7219,13.0316,1461,2935.56
19104,-5.5797,0.741,10.1778,1469,2935.56
19109,0.4573,3.043,8.7197,1485,2935.71
19114,3.3363,3.371,11.1857,1463,2935.71
19119,-1.2222,-0.3675,12.9981,1463,2935.71
19124,-5.5354,0.2741,10.5931,1462,2935.71
19129,-0.1161,2.8982,8.5868,1487,2935.71
19134,3.1663,3.5721,10.9666,1463,2935.71
19139,-1.008,0.0012,12.8892,1459,2935.71
19144,-5.4169,-0.1508,10.9858,1463,2935.71
19149,-0.7027,2.8168,8.3809,1494,2935.85
19154,2.9317,3.7649,10.7236,1464,2935.85
19159,-0.6967,0.34,12.9012,1459,2935.85
19164,-5.1284,-0.559,11.3282,1465,2935.85
19169,-1.3096,2.7078,8.2624,1487,2936.0
19174,2.7354,3.8571,10.556,1466,2936.0
19179,-0.3388,0.6249,12.7096,1461,2936.0
19184,-4.7848,-0.9445,11.7064,1466,2936.0
19189,-2.0016,2.557,8.2193,1517,2935.85
19194,2.4792,3.881,10.4339,1461,2935.85
19199,0.1867,0.8835,12.615,1467,2935.85
19204,-4.3981,-1.3324,11.9459,1461,2935.85
19209,-2.7138,2.375,8.2815,1513,2936.0
19214,2.1991,3.7721,10.1981,1464,2936.0
19219,0.7494,1.1923,12.457,1459,2936.0
19224,-4.0318,-1.5574,12.1853,1463,2936.0
19229,-3.4704,2.2386,8.4503,1518,2936.0
19234,2.0087,3.7493,10.1071,1465,2936.0
19239,1.4281,1.4868,12.2906,1461,2936.0
19244,-3.5769,-1.6723,12.5037,1464,2936.0
19249,-4.124,2.1261,8.6467,1525,2936.0
19254,1.8172,3.6763,9.8306,1465,2936.0
19259,2.071,1.8627,12.1877,1462,2936.0
19264,-3.1807,-1.6281,12.7982,1469,2936.0
19269,-4.6974,1.9058,8.9184,1515,2936.14
19274,1.6293,3.5973,9.5828,1461,2936.14
19279,2.6252,2.2565,12.0261,1470,2936.14
19284,-2.6432,-1.4772,12.8904,1455,2936.14
19289,-5.1176,1.6831,9.183,1467,2935.71
19294,1.4509,3.4477,9.3242,1459,2935.71
19299,3.1232,2.5941,11.7531,1467,2935.71
19304,-2.2122,-1.2198,12.9622,1463,2935.71
19309,-5.3822,1.3527,9.5672,1469,2935.71
19314,1.0942,3.3387,9.0812,1479,2936.14
19319,3.3327,2.8982,11.4898,1461,2936.14
19324,-1.7885,-0.9242,13.0101,1459,2936.14
19329,-5.5462,0.9146,9.9742,1471,2936.14
19334,0.668,3.1149,8.8346,1480,2935.71
19339,3.3639,3.1603,11.2743,1461,2935.71
19344,-1.4569,-0.6273,13.0472,1465,2935.71
19349,-5.6479,0.571,10.3465,1463,2935.71
19354,0.2466,3.0119,8.6383,1487,2935.85
19359,3.2753,3.4333,11.0301,1465,2935.85
19364,-1.1935,-0.1915,12.9706,1455,2935.85
19369,-5.4815,0.1065,10.7955,1464,2935.85
19374,-0.316,2.9233,8.4958,1492,2935.85
19379,3.0861,3.6464,10.8637,1467,2935.85
19384,-0.929,0.1437,12.9143,1463,2935.85
19389,-5.3103,-0.2885,11.1223,1465,2935.85
19394,-0.9325,2.7845,8.3462,1496,2936.0
19399,2.8934,3.8044,10.6207,1467,2936.0
19404,-0.5878,0.4669,12.8126,1459,2936.0
19409,-4.9572,-0.7266,11.4718,1467,2936.0
19414,-1.6137,2.6264,8.3067,1482,2936.0
19419,2.6157,3.8188,10.4279,1463,2936.0
19424,-0.1257,0.7386,12.7,1463,2936.0
19429,-4.6256,-1.1432,11.7759,1460,2936.0
19434,-2.3212,2.4684,8.2432,1516,2935.71
19439,2.387,3.8367,10.2328,1465,2935.71
19444,0.4274,1.0068,12.5803,1465,2935.71
19449,-4.2377,-1.4784,12.129,1465,2935.71
19454,-3.0777,2.3104,8.3713,1515,2935.71
19459,2.1129,3.7481,10.1442,1467,2935.71
19464,1.0283,1.3264,12.4223,1464,2935.71
19469,-3.8762,-1.6161,12.3768,1463,2935.71
19474,-3.735,2.2075,8.5353,1519,2935.28
19479,1.9201,3.7517,9.985,1465,2935.28
19484,1.664,1.6496,12.3265,1465,2935.28
19489,-3.4285,-1.6328,12.6869,1464,2935.28
19494,-4.3443,2.053,8.746,1499,2935.42
19499,1.7514,3.6476,9.7181,1461,2935.42
19504,2.3451,2.0255,12.1111,1469,2935.42
19509,-2.897,-1.5514,12.803,1465,2935.42
19514,-4.8794,1.8603,9.0094,1492,2935.28
19519,1.5634,3.553,9.4858,1461,2935.28
19524,2.873,2.4541,11.8992,1468,2935.28
19529,-2.4409,-1.403,12.9024,1463,2935.28
19534,-5.2038,1.5227,9.3805,1464,2935.28
19539,1.2761,3.3734,9.2189,1490,2935.56
19544,3.2429,2.7031,11.655,1467,2935.56
19549,-2.0171,-1.1384,12.9335,1459,2935.56
19554,-5.5198,1.1803,9.7755,1471,2935.56
19559,0.9278,3.2382,9.019,1484,2935.56
19564,3.3519,3.0682,11.4946,1463,2935.56
19569,-1.6592,-0.82,13.0065,1463,2935.56
19574,-5.63,0.7733,10.1023,1467,2935.56
19579,0.5004,3.0885,8.7209,1483,2935.71
19584,3.3016,3.3399,11.1139,1465,2935.71
19589,-1.3503,-0.4274,13.046,1465,2935.71
19594,-5.545,0.3508,10.6386,1462,2935.71
19599,-0.0419,3.0179,8.5425,1483,2935.71
19604,3.1687,3.6236,10.9463,1463,2935.71
19609,-1.0666,-0.0156,12.9371,1463,2935.71
19614,-5.4037,-0.0982,10.9331,1463,2935.71
19619,-0.5878,2.8431,8.4013,1497,2935.56
19624,3.037,3.7553,10.8553,1463,2935.56
19629,-0.7673,0.3328,12.8892,1455,2935.56
19634,-5.1523,-0.5555,11.3186,1464,2935.56
19639,-1.1995,2.6827,8.2744,1509,2935.56
19644,2.7414,3.8211,10.5357,1463,2935.56
19649,-0.3412,0.6021,12.6941,1462,2935.56
19654,-4.7956,-0.9816,11.643,1466,2935.56
19659,-1.9597,2.5438,8.2205,1514,2935.71
19664,2.4852,3.7936,10.4064,1464,2935.71
19669,0.1329,0.8332,12.6067,1464,2935.71
19674,-4.5143,-1.318,11.904,1465,2935.71
19679,-2.6911,2.4265,8.266,1509,2935.85
19684,2.229,3.8487,10.2627,1465,2935.85
19689,0.6572,1.1468,12.5348,1459,2935.85
19694,-4.0929,-1.5191,12.232,1460,2935.85
19699,-3.3926,2.2721,8.4563,1517,2936.14
19704,2.0087,3.8223,10.0736,1463,2936.14
19709,1.2749,1.5012,12.4151,1463,2936.14
19714,-3.7158,-1.6113,12.5025,1467,2936.14
19719,-4.0558,2.1656,8.6479,1527,2936.43
19724,1.8579,3.7254,9.8916,1465,2936.43
19729,2.0171,1.822,12.1949,1463,2936.43
19734,-3.2298,-1.5981,12.6737,1469,2936.43
19739,-4.5885,1.9728,8.934,1515,2936.57
19744,1.7023,3.5997,9.6247,1459,2936.57
19749,2.5845,2.1632,12.0153,1471,2936.57
19754,-2.7126,-1.5323,12.894,1459,2936.57
19759,-5.0637,1.6975,9.1602,1465,2936.57
19764,1.4664,3.4584,9.3769,1486,2936.57
19769,3.0323,2.5067,11.7711,1463,2936.57
19774,-2.2889,-1.3539,13.0017,1464,2936.57
19779,-5.3379,1.3827,9.5313,1468,2936.57
19784,1.1085,3.3112,9.0956,1483,2936.71
19789,3.2753,2.8491,11.5903,1465,2936.71
19794,-1.8387,-1.0008,12.9838,1461,2936.71
19799,-5.6168,0.996,9.8857,1471,2936.71
19804,0.7733,3.1951,8.8585,1486,2936.86
19809,3.3519,3.1735,11.3581,1463,2936.86
19814,-1.5778,-0.6357,13.0532,1467,2936.86
19819,-5.6084,0.6261,10.2879,1461,2936.86
19824,0.3124,3.055,8.6742,1491,2937.15
19829,3.3124,3.4141,11.1079,1461,2937.15
19834,-1.2438,-0.237,12.9993,1451,2937.15
19839,-5.4911,0.2155,10.7117,1469,2937.15
19844,-0.1903,2.9449,8.4958,1495,2937.15
19849,3.1795,3.6212,10.9307,1465,2937.15
19854,-0.905,0.079,12.9251,1464,2937.15
19859,-5.2625,-0.2358,11.0337,1465,2937.15
19864,-0.8021,2.7629,8.3091,1496,2936.86
19869,2.9712,3.7601,10.6937,1464,2936.86
19874,-0.6117,0.3783,12.8257,1456,2936.86
19879,-5.0302,-0.7171,11.3844,1469,2936.86
19884,-1.482,2.624,8.242,1501,2936.71
19889,2.7007,3.7888,10.5393,1459,2936.71
19894,-0.1676,0.6524,12.6749,1467,2936.71
19899,-4.7525,-1.1552,11.6789,1459,2936.71
19904,-2.1751,2.4888,8.2145,1511,2936.43
19909,2.4684,3.8188,10.3346,1465,2936.43
19914,0.2741,0.9708,12.6019,1464,2936.43
19919,-4.4125,-1.3635,12.123,1462,2936.43
19924,-2.9377,2.4313,8.3641,1513,2936.14
19929,2.1428,3.8511,10.1394,1469,2936.14
19934,0.8116,1.2941,12.4906,1461,2936.14
19939,-3.9971,-1.5957,12.2858,1464,2936.14
19944,-3.5506,2.2194,8.4443,1517,2936.28
19949,2.0363,3.7661,9.9766,1465,2936.28
19954,1.5467,1.6161,12.3301,1461,2936.28
19959,-3.5075,-1.5814,12.6079,1469,2936.28
19964,-4.1875,2.1332,8.6742,1491,2936.43
19969,1.8531,3.7014,9.7264,1464,2936.43
19974,2.2015,1.962,12.1506,1467,2936.43
19979,-3.0382,-1.6065,12.6869,1465,2936.43
19984,-4.713,1.8627,8.9531,1495,2936.14
19989,1.634,3.541,9.5529,1451,2936.14
19994,2.7677,2.2709,11.9686,1467,2936.14
19999,-2.6037,-1.4688,12.8904,1463,2936.14
20004,-5.0985,1.5574,9.2285,1464,2936.14
20009,1.385,3.3806,9.2392,1487,2936.28
20014,3.1173,2.63,11.7041,1468,2936.28
20019,-2.1835,-1.2558,12.9838,1461,2936.28
20024,-5.4684,1.2725,9.6534,1479,2936.28
20029,0.9912,3.2932,9.0585,1484,2936.28
20034,3.2777,2.982,11.5365,1464,2936.28
20039,-1.8136,-0.9242,13.0089,1464,2936.28
20044,-5.6024,0.9529,9.991,1471,2936.28
20049,0.6776,3.1831,8.7771,1485,2936.28
20054,3.371,3.2944,11.309,1464,2936.28
20059,-1.4437,-0.4872,13.0137,1464,2936.28
20064,-5.5857,0.5519,10.3669,1461,2936.28
20069,0.182,3.043,8.6311,1485,2936.43
20074,3.2992,3.5219,11.0409,1469,2936.43
20079,-1.0894,-0.1233,12.9095,1465,2936.43
20084,-5.4217,0.0694,10.7164,1461,2936.43
20089,-0.3639,2.9078,8.4695,1493,2936.43
20094,3.1448,3.644,10.811,1463,2936.43
20099,-0.7602,0.1628,12.9071,1456,2936.43
20104,-5.211,-0.4405,11.1594,1463,2936.43
20109,-1.0223,2.6887,8.2851,1472,2935.56
20114,2.8611,3.7625,10.6003,1465,2935.56
20119,-0.4465,0.4776,12.8054,1461,2935.56
20124,-4.9548,-0.8475,11.5089,1465,2935.56
20129,-1.737,2.5917,8.2396,1513,2936.28
20134,2.5379,3.8307,10.4423,1462,2936.28
20139,-0.0958,0.7566,12.6929,1460,2936.28
20144,-4.64,-1.2115,11.8369,1459,2936.28
20149,-2.3954,2.46,8.2768,1519,2935.42
20154,2.3164,3.8583,10.2592,1467,2935.42
20159,0.4693,1.0546,12.5899,1459,2935.42
20164,-4.2437,-1.3731,12.1829,1465,2935.42
20169,-3.152,2.3367,8.3785,1509,2935.28
20174,2.1416,3.8391,10.1047,1464,2935.28
20179,1.1133,1.4174,12.4642,1463,2935.28
20184,-3.7697,-1.5933,12.4175,1469,2935.28
20189,-3.8164,2.1787,8.5533,1496,2935.42
20194,1.9489,3.7481,9.9036,1468,2935.42
20199,1.8352,1.7083,12.2499,1463,2935.42
20204,-3.2813,-1.634,12.5743,1469,2935.42
20209,-4.4209,2.0423,8.8502,1490,2935.28
20214,1.7621,3.6955,9.6498,1455,2935.28
20219,2.4253,2.0171,12.1123,1471,2935.28
20224,-2.818,-1.5909,12.803,1455,2935.28
20229,-4.9141,1.725,9.0357,1465,2935.28
20234,1.5119,3.4488,9.4691,1487,2935.42
20239,2.9485,2.4277,11.8872,1464,2935.42
20244,-2.3858,-1.4353,12.9287,1461,2935.42
20249,-5.3451,1.4736,9.4415,1471,2935.42
20254,1.1887,3.3435,9.147,1481,2935.28
20259,3.1963,2.7797,11.6382,1467,2935.28
20264,-2.0303,-1.0786,13.0269,1455,2935.28
20269,-5.5019,1.0989,9.8055,1471,2935.28
20274,0.8248,3.237,8.9567,1491,2935.42
20279,3.3399,3.1496,11.4646,1459,2935.42
20284,-1.6137,-0.7254,13.0328,1467,2935.42
20289,-5.5869,0.7877,10.1766,1461,2935.42
20294,0.4717,3.1292,8.661,1486,2935.71
20299,3.3603,3.4153,11.139,1464,2935.71
20304,-1.2426,-0.3735,13.0089,1459,2935.71
20309,-5.5126,0.2969,10.6039,1463,2935.71
20314,-0.0431,2.9173,8.4587,1499,2935.85
20319,3.1975,3.5494,10.9846,1465,2935.85
20324,-0.9421,0.0204,12.87,1463,2935.85
20329,-5.3415,-0.2047,11.0061,1455,2935.85
20334,-0.6464,2.8144,8.3486,1496,2935.85
20339,2.964,3.7062,10.744,1465,2935.85
20344,-0.6309,0.3172,12.8473,1455,2935.85
20349,-5.138,-0.6536,11.3353,1468,2935.85
20354,-1.3683,2.6612,8.2624,1515,2935.56
20359,2.7031,3.8247,10.556,1461,2935.56
20364,-0.3292,0.65,12.7455,1463,2935.56
20369,-4.8339,-1.0235,11.7232,1461,2935.56
20374,-2.0722,2.551,8.278,1514,2935.71
20379,2.4217,3.8894,10.3717,1465,2935.71
20384,0.1257,0.9122,12.6258,1464,2935.71
20389,-4.4556,-1.33,12.0464,1460,2935.71
20394,-2.806,2.4301,8.2887,1507,2935.56
20399,2.2398,3.8834,10.2053,1467,2935.56
20404,0.7458,1.2342,12.4115,1460,2935.56
20409,-4.0582,-1.4772,12.2978,1462,2935.56
20414,-3.4321,2.2972,8.424,1493,2935.42
20419,2.0806,3.8319,10.0281,1466,2935.42
20424,1.4341,1.5275,12.3313,1463,2935.42
20429,-3.541,-1.5897,12.5193,1471,2935.42
20434,-4.0737,2.0602,8.6227,1511,2935.42
20439,1.8447,3.6547,9.7576,1462,2935.42
20444,2.0806,1.8399,12.1302,1471,2935.42
20449,-3.0873,-1.6556,12.706,1464,2935.42
20454,-4.7106,1.8878,8.9603,1503,2935.85
20459,1.6185,3.5518,9.6007,1461,2935.85
20464,2.66,2.2326,11.989,1469,2935.85
20469,-2.6384,-1.5131,12.8365,1461,2935.85
20474,-5.1344,1.6281,9.1806,1465,2935.85
20479,1.3635,3.4249,9.3003,1483,2935.56
20484,3.073,2.5929,11.8022,1468,2935.56
20489,-2.2817,-1.2079,12.9957,1463,2935.56
20494,-5.4229,1.3575,9.6319,1471,2935.56
20499,1.0546,3.3208,9.0944,1484,2936.14
20504,3.3064,2.9209,11.5592,1462,2936.14
20509,-1.8124,-0.9098,13.0113,1463,2936.14
20514,-5.5581,0.9924,9.985,1465,2936.14
20519,0.6716,3.1735,8.8214,1487,2935.85
20524,3.4189,3.2669,11.2504,1465,2935.85
20529,-1.4257,-0.5148,13.0664,1461,2935.85
20534,-5.5929,0.5638,10.3597,1463,2935.85
20539,0.3053,3.0861,8.6215,1485,2935.85
20544,3.3375,3.4824,11.0421,1465,2935.85
20549,-1.1145,-0.2143,12.9586,1463,2935.85
20554,-5.4217,0.0215,10.7272,1454,2935.85
20559,-0.3855,2.8671,8.4432,1499,2936.0
20564,3.1053,3.6081,10.8553,1464,2936.0
20569,-0.8392,0.1472,12.9155,1459,2936.0
20574,-5.2744,-0.413,11.1438,1464,2936.0
20579,-0.9649,2.745,8.2803,1511,2936.0
20584,2.8706,3.7733,10.5692,1465,2936.0
20589,-0.5136,0.431,12.7731,1463,2936.0
20594,-5.0027,-0.8308,11.461,1465,2936.0
20599,-1.6795,2.6073,8.2923,1513,2936.28
20604,2.5247,3.8475,10.5189,1463,2936.28
20609,-0.1365,0.7793,12.7539,1463,2936.28
20614,-4.6747,-1.1229,11.8633,1462,2936.28
20619,-2.3547,2.4864,8.3055,1503,2936.28
20624,2.399,3.8714,10.2915,1468,2936.28
20629,0.395,1.0463,12.56,1461,2936.28
20634,-4.3084,-1.4102,12.1602,1461,2936.28
20639,-3.0514,2.2996,8.357,1513,2936.28
20644,2.1835,3.8343,10.0425,1453,2936.28
20649,1.0858,1.3479,12.4379,1463,2936.28
20654,-3.8427,-1.5969,12.3972,1468,2936.28
20659,-3.7673,2.2158,8.5509,1517,2935.85
20664,1.9908,3.7589,9.912,1467,2935.85
20669,1.7023,1.6173,12.317,1463,2935.85
20674,-3.4093,-1.6963,12.6761,1468,2935.85
20679,-4.3586,1.9872,8.679,1519,2936.71
20684,1.7418,3.5937,9.6618,1459,2936.71
20689,2.3523,2.0375,12.0895,1468,2936.71
20694,-2.9796,-1.6065,12.7659,1459,2936.71
20699,-4.8926,1.804,9.0202,1463,2936.71
20704,1.5479,3.4656,9.4499,1485,2936.14
20709,2.8168,2.3762,11.9243,1461,2936.14
20714,-2.5175,-1.4114,12.9131,1463,2936.14
20719,-5.2948,1.5455,9.4212,1477,2936.14
20724,1.2605,3.3902,9.2464,1471,2936.0
20729,3.1951,2.7497,11.74,1466,2936.0
20734,-2.0925,-1.087,13.0233,1461,2936.0
20739,-5.5294,1.245,9.8438,1471,2936.0
20744,0.9876,3.3028,9.0453,1487,2936.14
20749,3.3806,3.0897,11.473,1461,2936.14
20754,-1.6448,-0.7326,13.0328,1463,2936.14
20759,-5.5917,0.7865,10.1071,1463,2936.14
20764,0.5231,3.0993,8.7233,1486,2936.14
20769,3.3902,3.3279,11.212,1463,2936.14
20774,-1.312,-0.3843,12.9802,1455,2936.14
20779,-5.5617,0.3699,10.5034,1465,2936.14
20784,0.0156,2.9856,8.5437,1494,2936.28
20789,3.1975,3.5147,10.9906,1462,2936.28
20794,-0.9768,-0.1281,12.9419,1455,2936.28
20799,-5.4145,-0.1448,10.8673,1461,2936.28
20804,-0.5291,2.8,8.3953,1485,2936.28
20809,3.0011,3.7338,10.7344,1465,2936.28
20814,-0.7578,0.2717,12.8341,1459,2936.28
20819,-5.2158,-0.5674,11.3318,1467,2936.28
20824,-1.1971,2.709,8.339,1515,2936.14
20829,2.7473,3.8188,10.562,1461,2936.14
20834,-0.4393,0.5411,12.7132,1471,2936.14
20839,-4.8818,-0.9397,11.6071,1459,2936.14
20844,-1.8663,2.5379,8.2289,1515,2935.85
20849,2.5079,3.8786,10.4459,1465,2935.85
20854,0.0024,0.8918,12.6103,1463,2935.85
20859,-4.5358,-1.2175,11.9794,1462,2935.85
20864,-2.569,2.4624,8.3187,1514,2936.0
20869,2.3152,3.8774,10.2149,1466,2936.0
20874,0.6045,1.1612,12.4882,1460,2936.0
20879,-4.0809,-1.4892,12.2607,1462,2936.0
20884,-3.3064,2.2458,8.4216,1490,2935.71
20889,2.1081,3.8355,10.082,1465,2935.71
20894,1.2857,1.4916,12.305,1462,2935.71
20899,-3.6404,-1.6484,12.4415,1467,2935.71
20904,-3.9983,2.1021,8.6299,1491,2935.71
20909,1.8998,3.6619,9.8689,1463,2935.71
20914,1.9573,1.816,12.1578,1469,2935.71
20919,-3.2286,-1.6939,12.6617,1461,2935.71
20924,-4.61,1.9082,8.8585,1495,2935.42
20929,1.658,3.5482,9.651,1461,2935.42
20934,2.5259,2.1739,12.0009,1468,2935.42
20939,-2.7833,-1.5024,12.9083,1463,2935.42
20944,-5.0542,1.6891,9.2057,1463,2935.42
20949,1.4186,3.4237,9.4212,1485,2936.0
20954,2.9628,2.5402,11.8274,1466,2936.0
20959,-2.3691,-1.306,13.0041,1459,2936.0
20964,-5.3654,1.4293,9.5529,1477,2936.0
20969,1.1372,3.3255,9.1997,1484,2935.85
20974,3.2585,2.8922,11.5556,1461,2935.85
20979,-1.9034,-0.9445,12.9933,1463,2935.85
20984,-5.5174,1.0439,9.9108,1465,2935.85
20989,0.8176,3.1963,8.9531,1486,2935.71
20994,3.3411,3.1496,11.3605,1459,2935.71
20999,-1.5191,-0.6213,13.034,1459,2935.71
21004,-5.5438,0.571,10.3022,1463,2935.71
21009,0.3711,3.0502,8.6814,1485,2935.85
21014,3.2729,3.4058,11.054,1467,2935.85
21019,-1.1768,-0.2729,12.9299,1465,2935.85
21024,-5.5294,0.1113,10.6889,1465,2935.85
21029,-0.2203,2.9102,8.5246,1496,2935.85
21034,3.1232,3.5889,10.8816,1463,2935.85
21039,-0.8835,0.0898,12.8868,1455,2935.85
21044,-5.3187,-0.3053,11.0325,1465,2935.85
21049,-0.8212,2.7138,8.3139,1484,2935.85
21054,2.9102,3.7206,10.6793,1467,2935.85
21059,-0.644,0.431,12.7886,1463,2935.85
21064,-5.1092,-0.6764,11.4251,1463,2935.85
21069,-1.5024,2.6276,8.3282,1513,2935.85
21074,2.66,3.8595,10.5105,1461,2935.85
21079,-0.2729,0.6919,12.712,1465,2935.85
21084,-4.7489,-1.0271,11.7448,1461,2935.85
21089,-2.223,2.5079,8.2624,1519,2935.56
21094,2.4636,3.8918,10.3537,1469,2935.56
21099,0.2574,0.9864,12.5528,1463,2935.56
21104,-4.3347,-1.3108,12.1027,1461,2935.56
21109,-2.9365,2.387,8.351,1516,2935.13
21114,2.2338,3.8451,10.1562,1462,2935.13
21119,0.9206,1.2498,12.3888,1460,2935.13
21124,-3.875,-1.5538,12.3098,1475,2935.13
21129,-3.6224,2.1799,8.497,1516,2935.28
21134,1.9632,3.7338,9.9311,1462,2935.28
21139,1.5981,1.5838,12.3014,1463,2935.28
21144,-3.4189,-1.6616,12.5612,1467,2935.28
21149,-4.2653,2.0758,8.6826,1511,2934.99
21154,1.7825,3.5925,9.7288,1462,2934.99
21159,2.2134,1.9321,12.1087,1470,2934.99
21164,-3.0263,-1.6388,12.7503,1460,2934.99
21169,-4.8028,1.7968,9.0501,1466,2934.99
21174,1.579,3.474,9.5409,1488,2934.7
21179,2.7282,2.3355,11.9411,1469,2934.7
21184,-2.5881,-1.3779,12.8377,1455,2934.7
21189,-5.2265,1.5802,9.3541,1479,2934.7
21194,1.3384,3.4046,9.3146,1485,2934.7
21199,3.152,2.7294,11.7196,1461,2934.7
21204,-2.1117,-1.136,12.9766,1461,2934.7
21209,-5.4552,1.2713,9.7085,1465,2934.7
21214,0.9924,3.2992,9.0549,1487,2934.56
21219,3.3232,3.0287,11.4958,1461,2934.56
21224,-1.6879,-0.7697,12.9634,1464,2934.56
21229,-5.5629,0.8499,10.0676,1463,2934.56
21234,0.5794,3.1304,8.7867,1485,2934.27
21239,3.3327,3.2645,11.2073,1471,2934.27
21244,-1.312,-0.4214,12.9574,1464,2934.27
21249,-5.5593,0.3472,10.5165,1463,2934.27
21254,0.0048,2.9293,8.5449,1495,2934.27
21259,3.1975,3.5135,10.9654,1463,2934.27
21264,-1.0199,-0.0766,12.888,1455,2934.27
21269,-5.4432,-0.0898,10.92,1465,2934.27
21274,-0.5842,2.8168,8.4791,1487,2934.42
21279,2.964,3.6655,10.7931,1467,2934.42
21284,-0.7817,0.2406,12.8126,1461,2934.42
21289,-5.1739,-0.577,11.2875,1464,2934.42
21294,-1.2354,2.6899,8.321,1515,2934.56
21299,2.7198,3.8702,10.5536,1467,2934.56
21304,-0.4178,0.6177,12.706,1465,2934.56
21309,-4.8363,-0.8847,11.6334,1463,2934.56
21314,-1.9178,2.5702,8.3127,1509,2934.56
21319,2.5367,3.8978,10.404,1467,2934.56
21324,0.0718,0.8954,12.6103,1459,2934.56
21329,-4.458,-1.2222,11.9914,1465,2934.56
21334,-2.6743,2.3966,8.3103,1511,2934.7
21339,2.308,3.8583,10.2604,1465,2934.7
21344,0.6752,1.1708,12.3996,1461,2934.7
21349,-4.0103,-1.5215,12.2308,1465,2934.7
21354,-3.3806,2.2182,8.4599,1515,2934.99
21359,2.0423,3.7421,10.0221,1463,2934.99
21364,1.3491,1.4269,12.3134,1463,2934.99
21369,-3.5757,-1.67,12.4307,1469,2934.99
21374,-4.0498,2.1021,8.6323,1512,2934.85
21379,1.822,3.62,9.7995,1459,2934.85
21384,1.9501,1.7789,12.1613,1477,2934.85
21389,-3.1891,-1.6316,12.6893,1453,2934.85
21394,-4.6412,1.9381,8.9304,1467,2934.85
21399,1.6616,3.553,9.6522,1487,2934.85
21404,2.551,2.1691,11.9926,1463,2934.85
21409,-2.7342,-1.4844,12.8126,1462,2934.85
21414,-5.0829,1.6999,9.2225,1477,2934.85
21419,1.3898,3.4572,9.3613,1481,2935.28
21424,3.0107,2.5845,11.7986,1465,2935.28
21429,-2.2577,-1.2055,12.9694,1461,2935.28
21434,-5.3965,1.4413,9.6031,1471,2935.28
21439,1.1325,3.3698,9.1123,1491,2935.42
21444,3.31,2.8742,11.5496,1461,2935.42
21449,-1.8172,-0.9541,12.9562,1467,2935.42
21454,-5.5701,1.008,9.9204,1465,2935.42
21459,0.7242,3.1939,8.9232,1487,2935.85
21464,3.3998,3.1879,11.3449,1463,2935.85
21469,-1.4437,-0.5351,13.0233,1455,2935.85
21474,-5.5761,0.559,10.3202,1463,2935.85
21479,0.2382,2.976,8.6898,1497,2935.85
21484,3.3112,3.3878,11.0349,1464,2935.85
21489,-1.1265,-0.2382,12.9694,1462,2935.85
21494,-5.4935,0.0838,10.75,1462,2935.85
21499,-0.2933,2.873,8.5413,1491,2935.56
21504,3.0742,3.6895,10.8876,1487,2935.56
21509,-0.9313,0.0982,12.8784,1459,2935.56
21514,-5.3283,-0.3208,11.1175,1469,2935.56
21519,-0.929,2.7222,8.3737,1511,2935.42
21524,2.8587,3.7661,10.6925,1463,2935.42
21529,-0.6189,0.4393,12.7946,1466,2935.42
21534,-5.0494,-0.68,11.491,1459,2935.42
21539,-1.5706,2.6683,8.3067,1516,2935.42
21544,2.6444,3.8618,10.4986,1463,2935.42
21549,-0.1389,0.7626,12.6402,1463,2935.42
21554,-4.6783,-1.0918,11.8178,1463,2935.42
21559,-2.2745,2.4995,8.2803,1516,2935.42
21564,2.4122,3.8415,10.2604,1466,2935.42
21569,0.4286,1.0104,12.5456,1463,2935.42
21574,-4.2916,-1.4162,12.068,1462,2935.42
21579,-3.0203,2.3475,8.3594,1491,2934.99
21584,2.1428,3.7505,10.1143,1467,2934.99
21589,1.0319,1.2653,12.3637,1463,2934.99
21594,-3.8319,-1.6209,12.2882,1471,2934.99
21599,-3.7266,2.1572,8.5126,1487,2935.13
21604,1.9573,3.6751,9.8988,1461,2935.13
21609,1.6855,1.6149,12.2763,1469,2935.13
21614,-3.4297,-1.6424,12.56,1459,2935.13
21619,-4.3443,2.0494,8.7987,1491,2935.13
21624,1.7418,3.6428,9.6977,1461,2935.13
21629,2.2769,2.0147,12.1314,1467,2935.13
21634,-2.9772,-1.5969,12.8006,1461,2935.13
21639,-4.9057,1.8399,9.098,1465,2935.13
21644,1.5203,3.5207,9.5241,1485,2935.56
21649,2.8276,2.3978,11.88,1465,2935.56
21654,-2.4983,-1.3515,12.9383,1455,2935.56
21659,-5.2218,1.5826,9.3793,1471,2935.56
21664,1.3024,3.3758,9.2117,1487,2935.71
21669,3.2334,2.7737,11.6346,1463,2935.71
21674,-2.0339,-1.1061,12.9598,1459,2935.71
21679,-5.4564,1.1815,9.7743,1461,2935.71
21684,0.9756,3.2226,9.0237,1487,2936.0
21689,3.4129,3.0251,11.3976,1463,2936.0
21694,-1.5826,-0.7673,12.961,1455,2936.0
21699,-5.5426,0.7877,10.1095,1463,2936.0
21704,0.5411,3.0801,8.7592,1487,2936.43
21709,3.3267,3.2657,11.2599,1469,2936.43
21714,-1.2534,-0.4417,12.9826,1461,2936.43
21719,-5.5701,0.2957,10.4962,1463,2936.43
21724,-0.0072,2.958,8.5629,1496,2936.57
21729,3.1951,3.5566,10.9786,1466,2936.57
21734,-1.0906,-0.1041,12.9383,1453,2936.57
21739,-5.454,-0.1113,10.8996,1461,2936.57
21744,-0.571,2.8575,8.424,1486,2936.71
21749,2.9604,3.7637,10.7512,1466,2936.71
21754,-0.7877,0.2981,12.8976,1461,2936.71
21759,-5.1667,-0.4429,11.2767,1461,2936.71
21764,-1.1983,2.7234,8.2971,1515,2937.0
21769,2.794,3.8427,10.5309,1463,2937.0
21774,-0.4405,0.5435,12.7707,1463,2937.0
21779,-4.8566,-0.8882,11.625,1463,2937.0
21784,-1.8639,2.569,8.2971,1509,2936.86
21789,2.5642,3.875,10.4327,1468,2936.86
21794,0.0766,0.8428,12.645,1463,2936.86
21799,-4.4855,-1.2366,11.9183,1461,2936.86
21804,-2.5642,2.4265,8.2049,1515,2936.86
21809,2.3116,3.808,10.2077,1462,2936.86
21814,0.6428,1.1157,12.4487,1462,2936.86
21819,-4.1599,-1.5227,12.2068,1467,2936.86
21824,-3.2513,2.2865,8.4264,1511,2936.57
21829,2.083,3.7517,10.0281,1467,2936.57
21834,1.2725,1.4222,12.3182,1465,2936.57
21839,-3.7002,-1.6185,12.402,1469,2936.57
21844,-3.96,2.1608,8.5916,1517,2937.43
21849,1.8711,3.6787,9.8928,1459,2937.43
21854,1.913,1.7645,12.2404,1471,2937.43
21859,-3.3004,-1.6269,12.6917,1459,2937.43
21864,-4.5346,2.0363,8.9088,1461,2937.43
21869,1.6903,3.632,9.6379,1483,2937.0
21874,2.4672,2.1225,12.0309,1461,2937.0
21879,-2.818,-1.5119,12.864,1463,2937.0
21884,-4.9656,1.7729,9.1518,1471,2937.0
21889,1.5131,3.5231,9.408,1481,2937.29
21894,3.4141,3.1867,11.2731,1464,2937.29
21899,-1.391,-0.5722,12.9873,1459,2937.29
21904,-5.6,0.5267,10.3154,1469,2937.29
21909,1.2534,3.3315,9.1674,1491,2937.43
21914,3.2968,3.4524,11.0205,1463,2937.43
21919,-1.1791,-0.2107,12.9598,1463,2937.43
21924,-5.5043,0.0443,10.7093,1461,2937.43
21929,-0.2945,2.9113,8.4851,1485,2937.58
21934,3.0742,3.6045,10.8302,1463,2937.58
21939,-0.9038,0.0994,12.9215,1449,2937.58
21944,-5.3307,-0.3005,11.1211,1465,2937.58
21949,-0.8882,2.7545,8.3127,1493,2938.01
21954,2.8647,3.8032,10.6769,1469,2938.01
21959,-0.6321,0.4118,12.8126,1463,2938.01
21964,-5.0877,-0.7099,11.4622,1465,2938.01
21969,-1.5646,2.6432,8.2564,1495,2938.15
21974,2.6516,3.8774,10.5345,1468,2938.15
21979,-0.2131,0.759,12.7156,1459,2938.15
21984,-4.7393,-1.075,11.7735,1465,2938.15
21989,-2.223,2.5247,8.2827,1503,2938.3
21994,2.4529,3.8463,10.2903,1463,2938.3
21999,0.3531,0.9613,12.5839,1463,2938.3
22004,-4.3227,-1.3934,12.0512,1459,2938.3
22009,-2.897,2.3679,8.3558,1515,2938.3
22014,2.2027,3.7816,10.1885,1465,2938.3
22019,0.9325,1.2617,12.4008,1465,2938.3
22024,-3.9516,-1.5814,12.2906,1461,2938.3
22029,-3.5721,2.235,8.4659,1514,2938.58
22034,2.0027,3.7182,9.9575,1468,2938.58
22039,1.5299,1.5682,12.3158,1463,2938.58
22044,-3.553,-1.6771,12.5564,1461,2938.58
22049,-4.2737,2.0674,8.7029,1497,2938.15
22054,1.7825,3.6272,9.7444,1433,2938.15
22059,2.1715,1.9297,12.1757,1465,2938.15
22064,-3.1699,-1.6065,12.7731,1470,2938.15
22069,-4.7812,1.9118,9.001,1514,2939.74
22074,1.5993,3.5877,9.5505,1465,2939.74
22079,2.6863,2.2326,12.0189,1465,2939.74
22084,-2.6743,-1.4485,12.961,1467,2939.74
22089,-5.1918,1.6747,9.238,1507,2939.74
22094,1.4317,3.4369,9.2536,1463,2939.74
22099,3.1556,2.5989,11.7627,1477,2939.74
22104,-2.2362,-1.1815,13.0245,1459,2939.74
22109,-5.4432,1.3551,9.5972,1465,2939.74
22114,1.1133,3.3136,9.0573,1487,2940.02
22119,3.3507,2.8922,11.582,1461,2940.02
22124,-1.8531,-0.923,13.0508,1463,2940.02
22129,-5.6084,0.972,9.9551,1477,2940.02
22134,0.8104,3.1496,8.8406,1483,2940.02
22139,3.4225,3.219,11.2934,1463,2940.02
22144,-1.5299,-0.6033,13.0592,1463,2940.02
22149,-5.624,0.5662,10.3262,1471,2940.02
22154,0.3484,3.0287,8.6407,1489,2940.02
22159,3.3351,3.4081,11.0816,1462,2940.02
22164,-1.2414,-0.2933,13.0113,1466,2940.02
22169,-5.5893,0.1724,10.6698,1466,2940.02
22174,-0.1784,2.9377,8.4683,1487,2939.74
22179,3.1472,3.6129,10.8781,1464,2939.74
22184,-0.9601,0.0982,13.0053,1455,2939.74
22189,-5.4013,-0.2035,11.0516,1464,2939.74
22194,-0.7386,2.8072,8.3055,1497,2939.59
22199,2.9556,3.8068,10.6757,1468,2939.59
22204,-0.7063,0.3543,12.8221,1463,2939.59
22209,-5.1044,-0.6536,11.3485,1463,2939.59
22214,-1.3779,2.648,8.2588,1495,2939.45
22219,2.7869,3.8427,10.5321,1467,2939.45
22224,-0.243,0.6596,12.7467,1459,2939.45
22229,-4.8076,-1.0151,11.6705,1465,2939.45
22234,-2.0279,2.5438,8.2241,1511,2939.3
22239,2.5438,3.8379,10.337,1465,2939.3
22244,0.1951,0.8847,12.615,1461,2939.3
22249,-4.4341,-1.3192,11.9806,1463,2939.3
22254,-2.7593,2.4385,8.2636,1517,2938.87
22259,2.2386,3.8235,10.1514,1464,2938.87
22264,0.8009,1.1995,12.463,1463,2938.87
22269,-4.124,-1.5407,12.1901,1465,2938.87
22274,-3.4141,2.2446,8.4336,1515,2938.87
22279,2.0411,3.7445,9.9707,1469,2938.87
22284,1.3623,1.4796,12.3445,1462,2938.87
22289,-3.6907,-1.646,12.5636,1459,2938.87
22294,-4.0809,2.156,8.655,1519,2938.87
22299,1.8663,3.6943,9.7959,1463,2938.87
22304,2.0135,1.8507,12.2404,1463,2938.87
22309,-3.2406,-1.5969,12.7312,1469,2938.87
22314,-4.6304,1.9824,8.9304,1492,2939.02
22319,1.725,3.5841,9.6522,1464,2939.02
22324,2.6049,2.1656,12.0117,1463,2939.02
22329,-2.7641,-1.5107,12.888,1471,2939.02
22334,-5.0757,1.719,9.1315,1525,2939.02
22339,1.4976,3.4249,9.396,1459,2939.02
22344,3.0406,2.4756,11.795,1471,2939.02
22349,-2.3643,-1.2989,12.9682,1459,2939.02
22354,-5.3965,1.4174,9.5205,1467,2939.02
22359,1.1732,3.3674,9.1746,1469,2939.3
22364,3.3112,2.7833,11.6334,1463,2939.3
22369,-1.9716,-1.0367,13.0388,1455,2939.3
22374,-5.5952,1.093,9.8162,1469,2939.3
22379,0.8787,3.1999,8.8897,1483,2939.59
22384,3.4058,3.0801,11.3952,1465,2939.59
22389,-1.6041,-0.7051,13.0819,1461,2939.59
22394,-5.6431,0.6895,10.2436,1477,2939.59
22399,0.4693,3.067,8.6275,1483,2939.74
22404,3.3507,3.3926,11.1342,1465,2939.74
22409,-1.2857,-0.3053,12.9969,1465,2939.74
22414,-5.6108,0.3017,10.5776,1461,2939.74
22419,-0.0694,2.9616,8.5258,1493,2939.45
22424,3.2142,3.5698,10.9499,1463,2939.45
22429,-0.984,-0.0227,12.9586,1449,2939.45
22434,-5.448,-0.0682,10.9822,1466,2939.45
22439,-0.5794,2.8204,8.4072,1494,2939.59
22444,3.0442,3.7409,10.7488,1467,2939.59
22449,-0.7135,0.2693,12.9239,1463,2939.59
22454,-5.1667,-0.5399,11.2252,1461,2939.59
22459,-1.2318,2.6863,8.2612,1493,2939.3
22464,2.8311,3.8415,10.5273,1465,2939.3
22469,-0.3124,0.5387,12.7779,1455,2939.3
22474,-4.8578,-0.9349,11.6705,1465,2939.3
22479,-1.8747,2.5594,8.2073,1500,2939.16
22484,2.5486,3.8199,10.3669,1465,2939.16
22489,0.1161,0.8344,12.6342,1462,2939.16
22494,-4.5645,-1.2785,11.8944,1462,2939.16
22499,-2.5486,2.4445,8.2492,1511,2939.16
22504,2.2649,3.8176,10.2149,1464,2939.16
22509,0.6165,1.0989,12.5444,1465,2939.16
22514,-4.2198,-1.4605,12.1937,1461,2939.16
22519,-3.2334,2.3679,8.3773,1499,2939.16
22524,2.1033,3.7828,10.07,1465,2939.16
22529,1.2198,1.4066,12.3972,1460,2939.16
22534,-3.8211,-1.6424,12.4379,1461,2939.16
22539,-3.9229,2.2122,8.5928,1517,2939.3
22544,1.9321,3.723,9.8569,1461,2939.3
22549,1.9034,1.7059,12.2392,1461,2939.3
22554,-3.3674,-1.6221,12.6821,1469,2939.3
22559,-4.4796,1.9836,8.77,1515,2939.74
22564,1.7681,3.6284,9.6283,1467,2939.74
22569,2.4732,2.0578,12.0967,1460,2939.74
22574,-2.8599,-1.5538,12.8892,1466,2939.74
22579,-4.9572,1.8148,9.0884,1494,2940.02
22584,1.5335,3.5027,9.3889,1459,2940.02
22589,2.9604,2.3727,11.8525,1469,2940.02
22594,-2.49,-1.4174,12.9622,1459,2940.02
22599,-5.2948,1.5383,9.3661,2463,2938.87
22604,1.3048,3.3722,9.1794,1465,2938.87
22609,3.2609,2.7282,11.71,1466,2938.87
22614,-2.0291,-1.148,13.0101,1460,2938.87
22619,-5.5079,1.1899,9.7444,1466,2938.87
22624,0.9613,3.2058,8.9423,1483,2940.74
22629,3.3603,3.0071,11.4658,1464,2940.74
22634,-1.7059,-0.8068,13.04,1461,2940.74
22639,-5.6563,0.8356,10.0736,1471,2940.74
22644,0.6069,3.1316,8.7496,1485,2939.74
22649,3.4058,3.3052,11.2539,1461,2939.74
22654,-1.4186,-0.4693,13.0328,1461,2939.74
22659,-5.6312,0.4214,10.4387,1461,2939.74
22664,0.1293,3.0119,8.5329,1491,2940.17
22669,3.3076,3.4955,10.9966,1463,2940.17
22674,-1.1169,-0.1329,12.9861,1458,2940.17
22679,-5.4372,-0.0144,10.8254,1464,2940.17
22684,-0.4262,2.8814,8.4132,1485,2940.02
22689,3.0742,3.711,10.8038,1469,2940.02
22694,-0.7709,0.1832,12.9454,1463,2940.02
22699,-5.29,-0.4154,11.1821,1461,2940.02
22704,-1.0044,2.7629,8.2947,1499,2940.17
22709,2.8778,3.7948,10.6063,1466,2940.17
22714,-0.4477,0.4477,12.8365,1455,2940.17
22719,-5.0015,-0.844,11.4838,1459,2940.17
22724,-1.6747,2.5989,8.1977,1504,2940.31
22729,2.6109,3.8176,10.4519,1455,2940.31
22734,-0.0371,0.7649,12.7372,1460,2940.31
22739,-4.713,-1.1887,11.8513,1465,2940.31
22744,-2.3631,2.4972,8.2229,1493,2940.6
22749,2.4038,3.8463,10.2891,1463,2940.6
22754,0.4669,0.9972,12.645,1465,2940.6
22759,-4.3287,-1.3898,12.1973,1461,2940.6
22764,-2.9904,2.3631,8.3653,1510,2940.6
22769,2.1823,3.8008,10.1275,1469,2940.6
22774,1.0032,1.2689,12.487,1461,2940.6
22779,-3.954,-1.585,12.3708,1462,2940.6
22784,-3.6847,2.2446,8.5078,1515,2940.74
22789,2.0027,3.79,9.9455,1465,2940.74
22794,1.6209,1.5981,12.378,1461,2940.74
22799,-3.5314,-1.646,12.5743,1465,2940.74
22804,-4.2521,2.0925,8.6718,1514,2940.6
22809,1.8423,3.6907,9.7061,1467,2940.6
22814,2.2182,1.9142,12.1817,1460,2940.6
22819,-3.037,-1.6053,12.7862,1468,2940.6
22824,-4.7573,1.8854,8.9268,1487,2940.46
22829,1.6676,3.5554,9.5313,1463,2940.46
22834,2.721,2.2182,12.068,1469,2940.46
22839,-2.6899,-1.5024,12.9287,1463,2940.46
22844,-5.1703,1.6269,9.1973,1511,2939.88
22849,1.4497,3.4129,9.3051,1461,2939.88
22854,3.1041,2.5798,11.7675,1469,2939.88
22859,-2.2972,-1.2905,13.0113,1464,2939.88
22864,-5.4648,1.3563,9.578,1463,2939.88
22869,1.16,3.3196,9.0764,1487,2940.6
22874,3.3243,2.8934,11.6011,1463,2940.6
22879,-1.8352,-0.9732,13.034,1460,2940.6
22884,-5.5797,0.9708,9.9252,1477,2940.6
22889,0.8176,3.1496,8.8466,1483,2940.02
22894,3.4273,3.1783,11.3425,1463,2940.02
22899,-1.5395,-0.6057,13.1118,1463,2940.02
22904,-5.6312,0.6656,10.3274,1465,2940.02
22909,0.3962,3.0706,8.6203,1491,2940.02
22914,3.3399,3.4297,11.1223,1463,2940.02
22919,-1.2198,-0.2454,13.0269,1463,2940.02
22924,-5.5294,0.1425,10.6626,1461,2940.02
22929,-0.1772,2.9437,8.4695,1485,2940.31
22934,3.2034,3.6416,10.9666,1469,2940.31
22939,-0.9158,0.079,12.9538,1463,2940.31
22944,-5.375,-0.2586,11.0253,1464,2940.31
22949,-0.7027,2.8108,8.3079,1491,2940.31
22954,2.9389,3.7637,10.6422,1463,2940.31
22959,-0.5842,0.3172,12.8593,1457,2940.31
22964,-5.1404,-0.7171,11.3665,1464,2940.31
22969,-1.3671,2.6456,8.2373,1495,2940.17
22974,2.7581,3.7769,10.4675,1467,2940.17
22979,-0.2574,0.583,12.7455,1459,2940.17
22984,-4.8207,-1.0092,11.7388,1471,2940.17
22989,-2.0051,2.5079,8.2504,1492,2940.02
22994,2.5163,3.8535,10.325,1461,2940.02
22999,0.1712,0.8511,12.6139,1464,2940.02
23004,-4.5442,-1.3001,12.0536,1462,2940.02
23009,-2.7438,2.4014,8.2839,1515,2939.88
23014,2.2613,3.8559,10.167,1469,2939.88
23019,0.6764,1.1911,12.566,1465,2939.88
23024,-4.1192,-1.5071,12.2894,1463,2939.88
23029,-3.3375,2.2865,8.3402,1514,2939.74
23034,2.0446,3.8283,10.0257,1471,2939.74
23039,1.2857,1.5107,12.4498,1463,2939.74
23044,-3.6691,-1.6149,12.5324,1461,2939.74
23049,-3.9684,2.1644,8.5892,1525,2939.59
23054,1.9369,3.7553,9.8234,1467,2939.59
23059,1.9489,1.7729,12.1997,1460,2939.59
23064,-3.3064,-1.6532,12.7348,1466,2939.59
23069,-4.5645,1.9525,8.7604,1495,2939.74
23074,1.7406,3.6093,9.6151,1467,2939.74
23079,2.5558,2.1105,12.0297,1465,2939.74
23084,-2.8228,-1.5562,12.8856,1467,2939.74
23089,-5.0326,1.7166,9.1147,1520,2939.88
23094,1.4856,3.4429,9.4164,1459,2939.88
23099,2.9317,2.4265,11.8453,1471,2939.88
23104,-2.4409,-1.3743,12.9526,1465,2939.88
23109,-5.3439,1.4629,9.4367,1463,2939.88
23114,1.257,3.3591,9.1961,1487,2940.17
23119,3.2382,2.8084,11.7076,1469,2940.17
23124,-2.0674,-1.0786,13.0807,1458,2940.17
23129,-5.5306,1.1181,9.7899,1479,2940.17
23134,0.905,3.2166,8.9376,1485,2939.88
23139,3.3603,3.0538,11.3557,1468,2939.88
23144,-1.6508,-0.7362,13.04,1461,2939.88
23149,-5.6072,0.7841,10.1323,1469,2939.88
23154,0.4836,3.1568,8.7388,1493,2940.02
23159,3.3519,3.3698,11.1701,1463,2940.02
23164,-1.3156,-0.3256,13.0532,1461,2940.02
23169,-5.5689,0.346,10.4794,1463,2940.02
23174,0.085,2.9509,8.5413,1487,2940.17
23179,3.2406,3.5518,10.9583,1467,2940.17
23184,-1.0403,-0.0539,13.034,1456,2940.17
23189,-5.4731,-0.1448,10.9212,1465,2940.17
23194,-0.4956,2.824,8.418,1495,2940.17
23199,3.0706,3.7194,10.7296,1466,2940.17
23204,-0.7302,0.2286,12.8928,1462,2940.17
23209,-5.2637,-0.5303,11.2132,1463,2940.17
23214,-1.1732,2.7031,8.3103,1493,2940.6
23219,2.7952,3.7721,10.574,1467,2940.6
23224,-0.4166,0.48,12.815,1452,2940.6
23229,-5.0218,-0.911,11.6167,1467,2940.6
23234,-1.7705,2.6193,8.2768,1495,2940.74
23239,2.5857,3.8535,10.3968,1465,2940.74
23244,-0.0515,0.8068,12.7431,1463,2940.74
23249,-4.6962,-1.1779,11.9243,1461,2940.74
23254,-2.4062,2.4576,8.2349,1518,2940.46
23259,2.405,3.8475,10.2352,1464,2940.46
23264,0.4417,1.1037,12.6162,1465,2940.46
23269,-4.3167,-1.3815,12.1063,1464,2940.46
23274,-3.0957,2.3559,8.3366,1515,2940.31
23279,2.2015,3.8954,10.0952,1468,2940.31
23284,1.0606,1.3611,12.4498,1460,2940.31
23289,-3.8726,-1.5526,12.402,1461,2940.31
23294,-3.699,2.1955,8.4755,1519,2939.88
23299,2.0135,3.7373,9.8749,1464,2939.88
23304,1.6855,1.6556,12.3517,1462,2939.88
23309,-3.4524,-1.6843,12.639,1469,2939.88
23314,-4.2976,2.0303,8.673,1495,2939.88
23319,1.8316,3.6057,9.7097,1463,2939.88
23324,2.3128,1.9573,12.1661,1465,2939.88
23329,-3.0646,-1.6113,12.7503,1471,2939.88
23334,-4.81,1.8603,9.0142,1525,2939.88
23339,1.5407,3.5003,9.5241,1459,2939.88
23344,2.7641,2.2936,11.9961,1471,2939.88
23349,-2.66,-1.4641,12.8772,1461,2939.88
23354,-5.2361,1.5933,9.2835,1467,2939.88
23359,1.3599,3.4381,9.2907,1483,2940.02
23364,3.1149,2.6588,11.7711,1463,2940.02
23369,-2.1955,-1.1768,12.9969,1463,2940.02
23374,-5.4672,1.306,9.7013,1477,2940.02
23379,1.0546,3.2968,9.0728,1481,2939.88
23384,3.3531,2.9485,11.5353,1462,2939.88
23389,-1.8136,-0.8619,13.0161,1445,2939.88
23394,-5.6,0.9469,9.9563,1471,2939.88
23399,0.7314,3.1723,8.8538,1491,2940.02
23404,3.4441,3.2609,11.3174,1463,2940.02
23409,-1.4521,-0.5471,12.9957,1461,2940.02
23414,-5.5833,0.5734,10.3034,1463,2940.02
23419,0.2849,3.0071,8.5258,1491,2940.02
23424,3.3543,3.4201,11.0624,1463,2940.02
23429,-1.16,-0.2466,12.955,1455,2940.02
23434,-5.5174,0.1077,10.7236,1465,2940.02
23439,-0.237,2.8778,8.4432,1491,2940.6
23444,3.122,3.5925,10.8804,1467,2940.6
23449,-0.8775,0.0419,12.8904,1461,2940.6
23454,-5.3905,-0.3256,11.078,1459,2940.6
23459,-0.8475,2.7174,8.3462,1497,2940.89
23464,2.9413,3.7505,10.6817,1463,2940.89
23469,-0.565,0.3795,12.8221,1458,2940.89
23474,-5.1631,-0.6895,11.4359,1461,2940.89
23479,-1.5071,2.66,8.3175,1497,2940.89
23484,2.7198,3.8798,10.5105,1466,2940.89
23489,-0.2598,0.6788,12.7683,1469,2940.89
23494,-4.8698,-0.9948,11.7567,1465,2940.89
23499,-2.0853,2.5139,8.2744,1515,2941.18
23504,2.5031,3.8714,10.3406,1464,2941.18
23509,0.1832,0.9014,12.6809,1461,2941.18
23514,-4.4843,-1.2833,12.0931,1463,2941.18
23519,-2.7258,2.4193,8.2205,1509,2940.89
23524,2.2613,3.8822,10.143,1468,2940.89
23529,0.7518,1.1875,12.5253,1459,2940.89
23534,-4.1168,-1.5431,12.2571,1463,2940.89
23539,-3.3662,2.241,8.3426,1517,2940.89
23544,2.1452,3.7326,10.009,1466,2940.89
23549,1.421,1.4437,12.3649,1463,2940.89
23554,-3.6488,-1.6388,12.5121,1439,2940.89
23559,-3.9971,2.132,8.5653,1515,2941.03
23564,1.8387,3.6583,9.8545,1469,2941.03
23569,2.0195,1.7921,12.2284,1465,2941.03
23574,-3.2729,-1.6664,12.7719,1468,2941.03
23579,-4.604,1.9453,8.8155,1502,2941.03
23584,1.6508,3.5554,9.6654,1461,2941.03
23589,2.5151,2.0985,12.0476,1469,2941.03
23594,-2.8766,-1.5347,12.9395,1460,2941.03
23599,-5.0745,1.7621,9.1147,1487,2941.18
23604,1.4796,3.4764,9.4188,1461,2941.18
23609,2.964,2.472,11.8489,1467,2941.18
23614,-2.4074,-1.3001,13.0005,1461,2941.18
23619,-5.3355,1.5119,9.4056,1468,2941.18
23624,1.2546,3.4081,9.2213,1484,2941.46
23629,3.3076,2.7677,11.6873,1467,2941.46
23634,-1.9692,-1.0379,13.0532,1453,2941.46
23639,-5.5893,1.1791,9.6822,1478,2941.46
23644,0.9792,3.2238,8.9268,1483,2941.9
23649,3.4333,3.0586,11.4024,1461,2941.9
23654,-1.6328,-0.7745,13.034,1461,2941.9
23659,-5.6252,0.7781,10.0473,1466,2941.9
23664,0.5674,3.0682,8.7065,1484,2942.19
23669,3.3926,3.2214,11.1486,1459,2942.19
23674,-1.3611,-0.4573,13.0017,1459,2942.19
23679,-5.6395,0.3735,10.471,1463,2942.19
23684,0.1496,2.9688,8.57,1484,2942.04
23689,3.2621,3.4919,10.9714,1467,2942.04
23694,-1.0894,-0.1472,13.0137,1461,2942.04
23699,-5.5821,-0.0084,10.8194,1465,2942.04
23704,-0.3735,2.8407,8.3677,1495,2941.9
23709,3.0993,3.6847,10.7548,1466,2941.9
23714,-0.8487,0.1784,12.9179,1461,2941.9
23719,-5.3451,-0.3723,11.1678,1463,2941.9
23724,-1.0151,2.7485,8.2815,1491,2941.9
23729,2.8826,3.7972,10.6087,1467,2941.9
23734,-0.5183,0.4896,12.8521,1455,2941.9
23739,-5.0578,-0.7745,11.5125,1469,2941.9
23744,-1.6161,2.6336,8.3007,1515,2941.75
23749,2.6971,3.8499,10.4016,1465,2941.75
23754,-0.0874,0.723,12.7,1464,2941.75
23759,-4.6962,-1.0786,11.8309,1459,2941.75
23764,-2.2314,2.4576,8.2013,1516,2941.61
23769,2.478,3.8367,10.2568,1467,2941.61
23774,0.3639,0.9685,12.6881,1463,2941.61
23779,-4.3419,-1.4042,12.1027,1462,2941.61
23784,-2.9389,2.3128,8.3115,1513,2941.32
23789,2.1931,3.7649,10.07,1469,2941.32
23794,0.9517,1.245,12.5504,1459,2941.32
23799,-3.9899,-1.5826,12.3661,1463,2941.32
23804,-3.5913,2.2302,8.4551,1499,2940.89
23809,1.9788,3.7649,9.9407,1463,2940.89
23814,1.5167,1.5862,12.3756,1462,2940.89
23819,-3.638,-1.6293,12.5097,1469,2940.89
23824,-4.2042,2.1057,8.6526,1511,2942.04
23829,1.8364,3.6571,9.7887,1467,2942.04
23834,2.1272,1.8914,12.2894,1461,2942.04
23839,-3.2346,-1.6328,12.7635,1467,2942.04
23844,-4.7058,1.9573,8.9184,1525,2941.75
23849,1.6628,3.6176,9.5888,1461,2941.75
23854,2.6791,2.2422,12.0512,1467,2941.75
23859,-2.721,-1.4976,12.894,1461,2941.75
23864,-5.0913,1.7334,9.1578,1465,2941.75
23869,1.4844,3.4943,9.3649,1487,2941.61
23874,3.1292,2.5331,11.8884,1465,2941.61
23879,-2.2889,-1.2977,12.961,1461,2941.61
23884,-5.4241,1.4437,9.4487,1467,2941.61
23889,1.2689,3.2908,9.0944,1485,2942.04
23894,3.3758,2.8323,11.5736,1465,2942.04
23899,-1.9417,-1.0714,12.9909,1461,2942.04
23904,-5.6168,1.0523,9.7995,1471,2942.04
23909,0.8535,3.2046,8.8729,1485,2941.61
23914,3.4453,3.073,11.3701,1461,2941.61
23919,-1.5921,-0.6943,13.0161,1465,2941.61
23924,-5.6515,0.6668,10.1825,1462,2941.61
23929,0.4681,3.0634,8.6826,1492,2941.46
23934,3.3651,3.3818,11.1737,1463,2941.46
23939,-1.336,-0.4238,13.0568,1461,2941.46
23944,-5.6575,0.3711,10.6003,1465,2941.46
23949,-0.0024,2.9604,8.5425,1495,2941.18
23954,3.2226,3.5745,11.0157,1467,2941.18
23959,-1.0726,-0.0072,12.9215,1461,2941.18
23964,-5.4265,-0.0263,10.9535,1463,2941.18
23969,-0.5148,2.8886,8.3797,1496,2941.32
23974,3.0658,3.7577,10.7571,1466,2941.32
23979,-0.7733,0.2993,12.8832,1460,2941.32
23984,-5.2038,-0.4669,11.3413,1463,2941.32
23989,-1.1396,2.7114,8.242,1509,2941.32
23994,2.8874,3.8307,10.5201,1465,2941.32
23999,-0.3591,0.5315,12.736,1459,2941.32
24004,-4.944,-0.8918,11.5341,1463,2941.32
24009,-1.7705,2.6025,8.2468,1517,2941.18
24014,2.5881,3.8523,10.4459,1464,2941.18
24019,-0.0311,0.7638,12.6809,1455,2941.18
24024,-4.628,-1.2378,11.8321,1461,2941.18
24029,-2.4169,2.4002,8.169,1515,2941.03
24034,2.3236,3.8343,10.2592,1469,2941.03
24039,0.516,1.0953,12.6474,1461,2941.03
24044,-4.2928,-1.4629,12.1769,1463,2941.03
24049,-3.1316,2.3427,8.3079,1517,2940.89
24054,2.1009,3.8223,10.0796,1467,2940.89
24059,1.0774,1.3384,12.469,1463,2940.89
24064,-3.9444,-1.5993,12.4618,1461,2940.89
24069,-3.7745,2.2242,8.521,1495,2940.74
24074,1.974,3.7757,9.93,1469,2940.74
24079,1.749,1.6556,12.3098,1462,2940.74
24084,-3.4884,-1.5718,12.6186,1471,2940.74
24089,-4.3359,2.0937,8.74,1487,2940.46
24094,1.8016,3.6811,9.7815,1463,2940.46
24099,2.3415,1.98,12.0692,1469,2940.46
24104,-2.9928,-1.5634,12.8269,1463,2940.46
24109,-4.8064,1.8387,8.9531,1500,2940.31
24114,1.646,3.4848,9.4786,1461,2940.31
24119,2.8862,2.2936,11.9375,1471,2940.31
24124,-2.5762,-1.4186,12.9024,1464,2940.31
24129,-5.272,1.5706,9.3146,1464,2940.31
24134,1.3755,3.4105,9.3087,1487,2940.02
24139,3.1879,2.5953,11.722,1467,2940.02
24144,-2.15,-1.2617,12.9885,1454,2940.02
24149,-5.5198,1.2594,9.596,1477,2940.02
24154,1.1181,3.2406,9.098,1463,2939.88
24159,3.3591,2.8982,11.4982,1465,2939.88
24164,-1.8172,-0.9242,13.0855,1465,2939.88
24169,-5.6216,0.9457,10.0018,1469,2939.88
24174,0.6979,3.1879,8.837,1487,2939.88
24179,3.3794,3.2142,11.2396,1465,2939.88
24184,-1.4808,-0.5507,13.0652,1461,2939.88
24189,-5.6551,0.5543,10.3884,1461,2939.88
24194,0.2263,3.0323,8.6263,1493,2939.88
24199,3.3543,3.5111,11.0804,1471,2939.88
24204,-1.1372,-0.2155,13.0065,1461,2939.88
24209,-5.5126,0.1784,10.7296,1461,2939.88
24214,-0.2717,2.958,8.442,1495,2939.59
24219,3.1867,3.6619,10.8338,1466,2939.59
24224,-0.82,0.1305,12.979,1461,2939.59
24229,-5.2996,-0.31,11.0935,1459,2939.59
24234,-0.8296,2.7833,8.2672,1489,2939.3
24239,2.9592,3.7469,10.6338,1465,2939.3
24244,-0.5794,0.3926,12.7958,1455,2939.3
24249,-5.0422,-0.7578,11.4503,1468,2939.3
24254,-1.5107,2.6516,8.2037,1501,2939.45
24259,2.6504,3.8176,10.4399,1455,2939.45
24264,-0.1472,0.6297,12.7431,1465,2939.45
24269,-4.7752,-1.1384,11.7759,1455,2939.45
24274,-2.1739,2.5139,8.2504,1513,2939.59
24279,2.3906,3.8618,10.2735,1465,2939.59
24284,0.2849,0.9325,12.6534,1461,2939.59
24289,-4.4353,-1.3731,12.0189,1455,2939.59
24294,-2.8587,2.4146,8.3629,1523,2940.17
24299,2.1763,3.8666,10.1466,1469,2940.17
24304,0.8547,1.2306,12.5468,1467,2940.17
24309,-4.033,-1.5443,12.3409,1463,2940.17
24314,-3.5626,2.2661,8.4635,1520,2940.31
24319,2.0566,3.8056,10.003,1465,2940.31
24324,1.5239,1.5658,12.3732,1465,2940.31
24329,-3.6117,-1.5814,12.5181,1477,2940.31
24334,-4.0881,2.1332,8.6395,1487,2940.6
24339,1.9118,3.699,9.7648,1463,2940.6
24344,2.1404,1.8375,12.1829,1467,2940.6
24349,-3.1173,-1.6305,12.7132,1467,2940.6
24354,-4.6292,1.8842,8.837,1524,2940.89
24359,1.6963,3.5171,9.5253,1461,2940.89
24364,2.6791,2.1763,12.0201,1471,2940.89
24369,-2.7569,-1.5514,12.8748,1461,2940.89
24374,-5.0865,1.7214,9.1734,1464,2940.89
24379,1.4449,3.4548,9.3553,1494,2940.46
24384,3.0023,2.496,11.7783,1465,2940.46
24389,-2.3583,-1.342,12.9359,1461,2940.46
24394,-5.4492,1.4078,9.5074,1478,2940.46
24399,1.1839,3.3339,9.1782,1484,2941.18
24404,3.2932,2.824,11.6346,1463,2941.18
24409,-1.9884,-1.0343,13.0891,1460,2941.18
24414,-5.606,1.1456,9.8952,1471,2941.18
24419,0.893,3.2573,8.9076,1487,2940.89
24424,3.4034,3.128,11.3713,1463,2940.89
24429,-1.64,-0.6907,13.0783,1465,2940.89
24434,-5.63,0.7027,10.1969,1459,2940.89
24439,0.4968,3.128,8.7041,1485,2941.03
24444,3.395,3.4117,11.1917,1463,2941.03
24449,-1.3012,-0.34,13.0233,1459,2941.03
24454,-5.5737,0.3496,10.5967,1465,2941.03
24459,0.0227,2.9963,8.4168,1493,2941.32
24464,3.2777,3.6212,10.902,1467,2941.32
24469,-1.0032,-0.0491,12.9766,1463,2941.32
24474,-5.4181,-0.1532,10.9906,1461,2941.32
24479,-0.5866,2.7821,8.2827,1491,2941.03
24484,3.0694,3.6739,10.7691,1464,2941.03
24489,-0.7051,0.2466,12.8976,1455,2941.03
24494,-5.205,-0.5483,11.2683,1461,2941.03
24499,-1.1384,2.7318,8.2205,1511,2941.03
24504,2.7749,3.8259,10.574,1467,2941.03
24509,-0.425,0.5016,12.815,1463,2941.03
24514,-4.9608,-0.9697,11.6681,1461,2941.03
24519,-1.7933,2.5726,8.2169,1513,2940.89
24524,2.5786,3.8666,10.471,1461,2940.89
24529,-0.0371,0.8164,12.7288,1466,2940.89
24534,-4.6591,-1.2079,11.9638,1465,2940.89
24539,-2.4732,2.484,8.187,1511,2940.74
24544,2.3942,3.887,10.2699,1467,2940.74
24549,0.4513,1.0487,12.5887,1460,2940.74
24554,-4.2521,-1.4724,12.214,1462,2940.74
24559,-3.1173,2.381,8.3402,1513,2940.46
24564,2.1883,3.8343,10.1215,1463,2940.46
24569,1.1337,1.3815,12.4331,1462,2940.46
24574,-3.8726,-1.6149,12.4127,1467,2940.46
24579,-3.7601,2.2003,8.4491,1511,2940.17
24584,2.0506,3.717,9.9264,1467,2940.17
24589,1.7538,1.6233,12.3182,1459,2940.17
24594,-3.4225,-1.6712,12.6462,1467,2940.17
24599,-4.3347,1.9836,8.6574,1493,2939.59
24604,1.8148,3.6033,9.6917,1459,2939.59
24609,2.3547,1.9668,12.038,1471,2939.59
24614,-3.0059,-1.6364,12.7802,1455,2939.59
24619,-4.8722,1.8004,9.0381,2451,2939.45
24624,1.561,3.468,9.5301,1465,2939.45
24629,2.8276,2.2984,11.9195,1467,2939.45
24634,-2.6109,-1.488,12.9287,1461,2939.45
24639,-5.2912,1.5395,9.2907,1467,2939.45
24644,1.3479,3.4058,9.2847,1485,2941.03
24649,3.1711,2.6839,11.7292,1465,2941.03
24654,-2.2242,-1.1732,13.0137,1463,2941.03
24659,-5.4983,1.3096,9.7097,1472,2941.03
24664,1.0594,3.3028,9.0369,1490,2940.17
24669,3.3818,2.9688,11.5353,1465,2940.17
24674,-1.7825,-0.8284,13.0376,1463,2940.17
24679,-5.6108,0.9182,10.0341,1462,2940.17
24684,0.7135,3.1867,8.7843,1492,2939.88
24689,3.4189,3.3112,11.2611,1464,2939.88
24694,-1.415,-0.4729,13.0484,1459,2939.88
24699,-5.6551,0.5136,10.4208,1464,2939.88
24704,0.2562,3.0646,8.5928,1491,2940.17
24709,3.2956,3.468,11.0097,1471,2940.17
24714,-1.1492,-0.2011,13.0101,1463,2940.17
24719,-5.5019,0.0527,10.7667,1464,2940.17
24724,-0.2993,2.8335,8.3617,1497,2940.17
24729,3.1603,3.6559,10.8194,1465,2940.17
24734,-0.8906,0.1197,12.9191,1455,2940.17
24739,-5.3451,-0.3699,11.1486,1465,2940.17
24744,-0.8787,2.7438,8.3199,1511,2940.02
24749,2.9185,3.7397,10.665,1466,2940.02
24754,-0.5842,0.4094,12.8341,1459,2940.02
24759,-5.1104,-0.7566,11.5065,1467,2940.02
24764,-1.5443,2.6312,8.2133,1497,2939.88
24769,2.6671,3.8451,10.5213,1463,2939.88
24774,-0.2502,0.6967,12.7144,1463,2939.88
24779,-4.7908,-1.0678,11.7914,1463,2939.88
24784,-2.1811,2.5474,8.2229,1509,2939.59
24789,2.4648,3.869,10.3453,1467,2939.59
24794,0.267,0.9792,12.6031,1454,2939.59
24799,-4.4281,-1.3491,12.0668,1464,2939.59
24804,-2.8671,2.3739,8.2983,1525,2939.59
24809,2.2901,3.8415,10.1837,1463,2939.59
24814,0.8918,1.2246,12.4965,1461,2939.59
24819,-4.0306,-1.5119,12.2344,1461,2939.59
24824,-3.5159,2.2637,8.4467,1524,2939.45
24829,2.0554,3.7206,10.0066,1467,2939.45
24834,1.4856,1.5347,12.3373,1463,2939.45
24839,-3.5913,-1.6472,12.5743,1476,2939.45
24844,-4.1396,2.0614,8.6167,1499,2939.74
24849,1.8447,3.5949,9.7815,1466,2939.74
24854,2.1656,1.8387,12.1865,1469,2939.74
24859,-3.2118,-1.6568,12.7168,1461,2939.74
24864,-4.7226,1.8998,8.8813,1491,2939.74
24869,1.6556,3.5207,9.5744,1465,2939.74
24874,2.6671,2.1919,11.995,1467,2939.74
24879,-2.8,-1.5191,12.8808,1465,2939.74
24884,-5.1068,1.7023,9.238,1465,2939.74
24889,1.4401,3.4752,9.3853,1489,2940.31
24894,3.0406,2.5606,11.7879,1467,2940.31
24899,-2.4672,-1.2438,12.9371,1460,2940.31
24904,-5.4013,1.4545,9.5325,1477,2940.31
24909,1.2031,3.3423,9.1339,1487,2940.6
24914,3.3387,2.8754,11.5712,1465,2940.6
24919,-1.9704,-0.9325,13.1106,1464,2940.6
24924,-5.5833,1.0858,9.894,1466,2940.6
24929,0.8739,3.1819,8.8573,1492,2940.46
24934,3.4369,3.1388,11.3425,1464,2940.46
24939,-1.549,-0.6357,13.0233,1461,2940.46
24944,-5.6395,0.6692,10.2376,1461,2940.46
24949,0.407,3.0706,8.6598,1485,2940.46
24954,3.3662,3.3722,11.1067,1471,2940.46
24959,-1.2725,-0.3017,13.0795,1459,2940.46
24964,-5.5605,0.1915,10.6267,1461,2940.46
24969,-0.0778,2.8742,8.4719,1496,2940.6
24974,3.2118,3.5398,10.8804,1464,2940.6
24979,-0.9768,-0.0263,12.979,1461,2940.6
24984,-5.4241,-0.1616,10.9714,1464,2940.6
24989,-0.6452,2.8,8.3893,1495,2940.46
24994,2.9951,3.7433,10.744,1468,2940.46
24999,-0.7374,0.2586,12.8796,1445,2940.46
25004,-5.2289,-0.5363,11.3222,1469,2940.46
25009,-1.2402,2.6552,8.1822,1509,2940.17
25014,2.7904,3.8499,10.574,1461,2940.17
25019,-0.4238,0.6213,12.8269,1465,2940.17
25024,-4.9297,-0.8775,11.6861,1463,2940.17
25029,-1.8328,2.5893,8.2396,1514,2940.17
25034,2.5654,3.8726,10.392,1466,2940.17
25039,0.0168,0.8823,12.6031,1461,2940.17
25044,-4.5167,-1.2115,11.9327,1463,2940.17
25049,-2.5606,2.4565,8.2887,1515,2940.02
25054,2.3308,3.8439,10.2759,1468,2940.02
25059,0.6835,1.0965,12.5348,1462,2940.02
25064,-4.1911,-1.5275,12.1709,1466,2940.02
25069,-3.2202,2.308,8.3689,1499,2940.02
25074,2.1177,3.7517,10.0485,1467,2940.02
25079,1.2833,1.3527,12.4211,1463,2940.02
25084,-3.79,-1.6472,12.4295,1469,2940.02
25089,-3.8978,2.1404,8.4958,1516,2939.88
25094,1.9297,3.6871,9.894,1467,2939.88
25099,1.8663,1.67,12.2475,1469,2939.88
25104,-3.4034,-1.6364,12.645,1463,2939.88
25109,-4.4927,2.0075,8.8322,1501,2939.02
25114,1.7454,3.5973,9.6822,1461,2939.02
25119,2.4241,2.0387,12.0728,1471,2939.02
25124,-2.97,-1.5598,12.815,1465,2939.02
25129,-4.95,1.798,9.074,1461,2939.02
25134,1.5562,3.5195,9.5181,1491,2939.45
25139,2.8958,2.4074,11.8956,1465,2939.45
25144,-2.5199,-1.3575,12.9861,1459,2939.45
25149,-5.2553,1.5622,9.408,1479,2939.45
25154,1.306,3.4177,9.2105,1483,2938.15
25159,3.2441,2.7545,11.6598,1461,2938.15
25164,-2.0542,-1.063,13.046,1465,2938.15
25169,-5.4827,1.2641,9.7719,1469,2938.15
25174,0.9481,3.2477,9.013,1491,2938.15
25179,3.3746,3.0143,11.4179,1463,2938.15
25184,-1.6424,-0.7685,12.9526,1461,2938.15
25189,-5.6264,0.8236,10.0796,1453,2938.15
25194,0.5986,3.1125,8.7819,1492,2938.01
25199,3.3782,3.286,11.1965,1468,2938.01
25204,-1.3791,-0.4334,13.0197,1465,2938.01
25209,-5.6036,0.3543,10.4663,1461,2938.01
25214,0.1018,2.9437,8.5377,1495,2938.15
25219,3.225,3.5243,10.9762,1464,2938.15
25224,-1.0726,-0.0982,12.9826,1461,2938.15
25229,-5.4791,-0.0575,10.9235,1464,2938.15
25234,-0.5207,2.873,8.436,1494,2937.86
25239,3.0335,3.7158,10.811,1467,2937.86
25244,-0.8164,0.2251,12.8976,1459,2937.86
25249,-5.29,-0.4776,11.2372,1469,2937.86
25254,-1.0906,2.7258,8.2756,1511,2937.86
25259,2.8431,3.8331,10.6051,1463,2937.86
25264,-0.4597,0.5243,12.8221,1465,2937.86
25269,-4.9512,-0.826,11.5879,1463,2937.86
25274,-1.7538,2.6145,8.2265,1514,2937.58
25279,2.5941,3.8978,10.477,1465,2937.58
25284,0.006,0.7685,12.627,1464,2937.58
25289,-4.5633,-1.1863,11.8286,1465,2937.58
25294,-2.4026,2.4852,8.2504,1517,2937.86
25299,2.411,3.8271,10.3238,1469,2937.86
25304,0.5686,1.1073,12.5492,1466,2937.86
25309,-4.2102,-1.5024,12.1937,1463,2937.86
25314,-3.1627,2.3116,8.2983,1483,2937.72
25319,2.0806,3.7373,10.1251,1468,2937.72
25324,1.1803,1.3623,12.3984,1464,2937.72
25329,-3.8044,-1.6352,12.3912,1472,2937.72
25334,-3.8164,2.1691,8.5186,1508,2937.72
25339,1.8675,3.6943,9.9527,1461,2937.72
25344,1.8148,1.6999,12.2882,1466,2937.72
25349,-3.3998,-1.6364,12.651,1463,2937.72
25354,-4.4532,2.0518,8.8107,1501,2938.01
25359,1.7681,3.614,9.7432,1461,2938.01
25364,2.4265,2.0411,12.1015,1469,2938.01
25369,-2.9724,-1.5383,12.7958,1463,2938.01
25374,-4.8914,1.828,9.0776,1463,2938.01
25379,1.5634,3.5506,9.5217,1481,2938.3
25384,2.891,2.3906,11.8645,1466,2938.3
25389,-2.4732,-1.3276,12.9478,1461,2938.3
25394,-5.2984,1.5227,9.3721,1477,2938.3
25399,1.2689,3.3746,9.1925,1484,2938.73
25404,3.2358,2.7019,11.6059,1462,2938.73
25409,-2.0446,-1.1612,13.0173,1466,2938.73
25414,-5.533,1.2007,9.7624,1467,2938.73
25419,0.9146,3.2489,8.9567,1495,2939.16
25424,3.4129,3.0023,11.4335,1463,2939.16
25429,-1.6688,-0.8368,12.9826,1461,2939.16
25434,-5.6336,0.8236,10.0772,1463,2939.16
25439,0.5878,3.0418,8.7975,1485,2938.44
25444,3.3758,3.2465,11.1761,1467,2938.44
25449,-1.4126,-0.4896,13.0855,1461,2938.44
25454,-5.5797,0.3938,10.5105,1462,2938.44
25459,0.1269,2.9916,8.5437,1496,2937.58
25464,3.213,3.5183,10.9391,1464,2937.58
25469,-1.1193,-0.0946,12.9766,1459,2937.58
25474,-5.4588,-0.0455,10.8816,1466,2937.58
25479,-0.492,2.9149,8.43,1491,2937.15
25484,3.0095,3.7373,10.7931,1469,2937.15
25489,-0.8152,0.2119,12.9167,1458,2937.15
25494,-5.1894,-0.4561,11.2073,1468,2937.15
25499,-1.0798,2.733,8.2851,1511,2937.29
25504,2.806,3.8487,10.5704,1464,2937.29
25509,-0.4513,0.5171,12.7252,1466,2937.29
25514,-4.8495,-0.9098,11.5867,1461,2937.29
25519,-1.7873,2.5247,8.2492,1515,2937.43
25524,2.5762,3.8319,10.4423,1467,2937.43
25529,0.0467,0.7805,12.6665,1461,2937.43
25534,-4.5717,-1.2546,11.8932,1462,2937.43
25539,-2.4684,2.399,8.2277,1515,2937.29
25544,2.2996,3.8427,10.2508,1467,2937.29
25549,0.6261,1.0558,12.5265,1463,2937.29
25554,-4.2533,-1.4964,12.1326,1463,2937.29
