timestamp_ms,ax,ay,az,acs_adc,rpm
13874,4.4113,3.2621,9.6606,1267,3101.1
13879,-2.2601,-1.4054,14.6645,1259,3101.1
13884,-6.9348,1.2665,10.9439,1263,3101.1
13889,1.8028,3.3076,7.6459,1269,3101.26
13894,4.3598,2.8048,10.41,1269,3101.26
13899,-3.3399,-1.8076,14.7148,1261,3101.26
13904,-6.0717,1.8316,10.0975,1269,3101.74
13909,2.241,3.3698,7.665,1259,3101.74
13914,3.8678,2.1213,11.2144,1261,3101.74
13919,-4.397,-1.9022,14.3939,1269,3101.74
13924,-4.889,2.3128,9.3733,1263,3101.9
13929,2.5905,3.5578,7.9069,1267,3101.9
13934,2.9377,1.4449,12.0919,1261,3101.9
13939,-5.3498,-1.7274,14.042,1263,3101.9
13944,-3.4046,2.6073,8.6658,1261,3102.06
13949,2.9209,3.6404,8.0804,1267,3102.06
13954,1.8735,0.7973,12.9299,1267,3102.06
13959,-6.3147,-1.1636,13.5105,1267,3102.06
13964,-1.8986,2.9317,8.2181,1269,3102.06
13969,3.3327,3.7302,8.3486,1268,3102.06
13974,0.7278,0.1891,13.6577,1261,3102.06
13979,-6.9552,-0.5219,12.8437,1268,3102.06
13984,-0.486,3.1065,7.8326,1269,3101.74
13989,3.8307,3.6595,8.8298,1267,3101.74
13994,-0.431,-0.4501,14.2287,1261,3101.74
13999,-7.3167,0.2394,12.1482,1263,3101.74
14004,0.5914,3.2513,7.6315,1264,3101.58
14009,4.215,3.4608,9.3039,1267,3101.58
14014,-1.5897,-1.0906,14.5436,1268,3101.58
14019,-7.2149,0.9254,11.4036,1273,3101.58
14024,1.4389,3.3208,7.6626,1260,3101.26
14029,4.3946,3.0634,10.0509,1269,3101.26
14034,-2.7509,-1.6676,14.7172,1268,3101.26
14039,-6.6272,1.5371,10.568,1263,3101.26
14044,1.9716,3.3698,7.6674,1260,3100.94
14049,4.136,2.5438,10.7775,1272,3100.94
14054,-3.8618,-1.8926,14.5591,1267,3100.94
14059,-5.6767,2.0147,9.7564,1268,3101.1
14064,2.326,3.4536,7.7943,1267,3101.1
14069,3.4572,1.8507,11.6538,1261,3101.1
14074,-4.8495,-1.8986,14.3054,1263,3101.1
14079,-4.2844,2.4744,9.1028,1268,3100.78
14084,2.6612,3.553,8.0026,1269,3100.78
14089,2.5151,1.1875,12.3924,1259,3100.78
14094,-5.7808,-1.5443,13.7523,1261,3100.78
14099,-2.8,2.745,8.424,1269,3100.94
14104,3.0095,3.6811,8.2923,1268,3100.94
14109,1.4664,0.5219,13.2375,1263,3100.94
14114,-6.6379,-0.9888,13.2328,1272,3100.94
14119,-1.2809,2.9521,7.9942,1261,3100.94
14124,3.4536,3.7445,8.5401,1269,3100.94
14129,0.2682,-0.0431,13.8169,1269,3100.94
14134,-7.1706,-0.2705,12.5743,1267,3100.94
14139,-0.0359,3.1161,7.7093,1271,3100.94
14144,3.9397,3.6284,9.0573,1267,3100.94
14149,-0.8631,-0.7111,14.3281,1267,3100.94
14154,-7.3071,0.4932,11.8944,1263,3100.94
14159,0.9816,3.2118,7.6255,1263,3101.26
14164,4.3443,3.3303,9.5792,1263,3101.26
14169,-2.0339,-1.324,14.6346,1262,3101.26
14174,-7.0557,1.1791,11.0804,1275,3101.26
14179,1.652,3.3495,7.6794,1269,3101.26
14184,4.3179,2.8587,10.3238,1261,3101.26
14189,-3.1831,-1.81,14.6812,1261,3101.26
14194,-6.353,1.6783,10.3106,1267,3101.42
14199,2.1261,3.401,7.7381,1262,3101.42
14204,3.9756,2.2637,11.1498,1274,3101.42
14209,-4.2341,-1.9489,14.4598,1270,3101.42
14214,-5.1571,2.2015,9.5038,1263,3101.58
14219,2.478,3.4752,7.9248,1272,3101.58
14224,3.1113,1.5562,11.9578,1267,3101.58
14229,-5.1595,-1.8136,14.0743,1264,3101.58
14234,-3.7433,2.5546,8.7951,1269,3101.42
14239,2.8228,3.5805,8.0816,1269,3101.42
14244,2.1033,0.8906,12.7491,1269,3101.42
14249,-6.0729,-1.3324,13.5667,1264,3101.42
14254,-2.1991,2.873,8.2768,1268,3101.42
14259,3.2142,3.6703,8.3402,1269,3101.42
14264,1.0163,0.2801,13.4806,1263,3101.42
14269,-6.8486,-0.7051,12.973,1270,3101.42
14274,-0.7661,3.055,7.8207,1269,3101.1
14279,3.6751,3.6859,8.7257,1268,3101.1
14284,-0.164,-0.3244,14.1234,1267,3101.1
14289,-7.2461,0.0371,12.3289,1269,3101.1
14294,0.4597,3.2166,7.7117,1262,3101.42
14299,4.142,3.5123,9.1626,1261,3101.42
14304,-1.2785,-0.917,14.5567,1267,3101.42
14309,-7.2365,0.68,11.5317,1269,3101.42
14314,1.318,3.2645,7.6303,1263,3101.1
14319,4.4161,3.1448,9.8557,1259,3101.1
14324,-2.4804,-1.4724,14.6777,1263,3101.1
14329,-6.7864,1.3731,10.7356,1269,3101.1
14334,1.9429,3.3495,7.695,1269,3100.94
14339,4.2329,2.6564,10.6027,1269,3100.94
14344,-3.5111,-1.901,14.5232,1261,3100.94
14349,-5.8478,1.9225,9.9407,1271,3100.94
14354,2.2817,3.4608,7.8027,1269,3100.94
14359,3.7062,2.0387,11.5101,1267,3100.94
14364,-4.5286,-1.9273,14.2814,1273,3100.94
14369,-4.6005,2.4098,9.153,1269,3100.94
14374,2.6528,3.5805,7.9835,1269,3100.94
14379,2.7306,1.3312,12.2404,1267,3100.94
14384,-5.4803,-1.6771,13.8744,1267,3100.94
14389,-3.1747,2.6336,8.5425,1264,3101.1
14394,2.9856,3.6763,8.2744,1270,3101.1
14399,1.6676,0.7087,13.0029,1269,3101.1
14404,-6.3913,-1.0463,13.3537,1269,3101.1
14409,-1.6532,2.958,8.0481,1267,3101.26
14414,3.4477,3.7026,8.5712,1271,3101.26
14419,0.577,0.018,13.7463,1261,3101.26
14424,-7.027,-0.3962,12.6426,1271,3101.26
14429,-0.3148,3.1005,7.7273,1269,3101.26
14434,3.8475,3.6799,8.9232,1267,3101.26
14439,-0.5698,-0.5555,14.3125,1262,3101.26
14444,-7.288,0.3208,11.9794,1266,3101.26
14449,0.7817,3.2729,7.5776,1263,3101.42
14454,4.2258,3.4596,9.5373,1263,3101.42
14459,-1.7849,-1.1516,14.552,1263,3101.42
14464,-7.1982,0.9577,11.224,1270,3101.42
14469,1.5526,3.31,7.6375,1263,3101.26
14474,4.3742,2.9975,10.2244,1268,3101.26
14479,-2.9844,-1.6951,14.6286,1261,3101.26
14484,-6.5398,1.5694,10.4208,1268,3101.26
14489,2.1081,3.3842,7.695,1261,3101.42
14494,4.1073,2.4517,11.0085,1269,3101.42
14499,-4.0211,-1.9058,14.4718,1267,3101.42
14504,-5.4624,2.1308,9.6426,1263,3101.58
14509,2.3679,3.4417,7.8937,1267,3101.58
14514,3.371,1.731,11.7807,1264,3101.58
14519,-4.9955,-1.8818,14.1557,1268,3101.58
14524,-4.0989,2.4732,8.855,1263,3101.26
14529,2.7414,3.6296,8.1247,1271,3101.26
14534,2.3032,1.081,12.6282,1263,3101.26
14539,-5.9484,-1.4521,13.6434,1263,3101.26
14544,-2.5702,2.7857,8.2995,1263,3101.26
14549,3.061,3.7062,8.3594,1267,3101.26
14554,1.2151,0.4561,13.3884,1263,3101.26
14559,-6.7181,-0.8308,13.0843,1243,3101.26
14564,-1.166,2.9592,7.9416,1263,3101.42
14569,3.5243,3.7002,8.7352,1269,3101.42
14574,0.085,-0.0946,14.0432,1267,3101.42
14579,-7.252,-0.0946,12.3397,1267,3101.42
14584,0.146,3.1412,7.7464,1267,3101.1
14589,3.9732,3.5291,9.1698,1267,3101.1
14594,-1.0546,-0.8236,14.4718,1261,3101.1
14599,-7.3298,0.5578,11.655,1261,3101.1
14604,1.1169,3.2753,7.6435,1263,3100.61
14609,4.2569,3.2848,9.8509,1261,3100.61
14614,-2.235,-1.3815,14.6178,1259,3100.61
14619,-7.0006,1.239,10.8852,1272,3100.61
14624,1.7777,3.2669,7.7261,1263,3100.61
14629,4.288,2.7665,10.5489,1263,3100.61
14634,-3.3375,-1.8519,14.5388,1260,3100.61
14639,-6.1687,1.7885,10.094,1262,3100.61
14644,2.1883,3.3782,7.8781,1263,3100.61
14649,3.8559,2.1835,11.2839,1273,3100.61
14654,-4.3551,-1.9321,14.3508,1271,3100.61
14659,-5.0003,2.2517,9.3314,1267,3100.78
14664,2.5379,3.5099,8.0385,1271,3100.78
14669,3.0634,1.4521,12.062,1267,3100.78
14674,-5.3175,-1.7968,13.9175,1263,3100.78
14679,-3.571,2.6276,8.685,1269,3100.78
14684,2.8144,3.6057,8.2851,1268,3100.78
14689,1.962,0.8152,12.8652,1269,3100.78
14694,-6.1902,-1.2905,13.4291,1268,3100.78
14699,-2.0482,2.8503,8.1295,1269,3101.1
14704,3.2322,3.6966,8.4994,1268,3101.1
14709,0.929,0.1879,13.5045,1269,3101.1
14714,-6.9468,-0.6309,12.7994,1271,3101.1
14719,-0.6249,3.0586,7.8374,1269,3101.1
14724,3.7445,3.6811,8.91,1268,3101.1
14729,-0.2622,-0.4345,14.0971,1261,3101.1
14734,-7.3071,0.0706,12.1183,1267,3101.1
14739,0.565,3.1987,7.6579,1262,3101.1
14744,4.1527,3.5243,9.4391,1269,3101.1
14749,-1.3862,-1.0463,14.4478,1263,3101.1
14754,-7.2437,0.8068,11.3605,1271,3101.1
14759,1.3479,3.225,7.6315,1257,3100.94
14764,4.3598,3.1029,10.0676,1271,3100.94
14769,-2.5809,-1.6077,14.5759,1263,3100.94
14774,-6.7217,1.4389,10.5477,1269,3100.94
14779,1.9896,3.3531,7.7213,1271,3101.1
14784,4.2677,2.5845,10.7272,1273,3101.1
14789,-3.6823,-1.9465,14.5017,1263,3101.1
14794,-5.7964,1.9788,9.7911,1271,3100.94
14799,2.3475,3.4177,7.8877,1268,3100.94
14804,3.6093,1.8902,11.5305,1264,3100.94
14809,-4.6567,-1.9321,14.2012,1273,3100.94
14814,-4.5119,2.3727,9.0621,1268,3100.94
14819,2.6923,3.5554,8.0517,1269,3100.94
14824,2.7126,1.2402,12.3649,1267,3100.94
14829,-5.5952,-1.5383,13.7667,1263,3100.94
14834,-2.9652,2.715,8.4755,1268,3101.42
14839,3.0526,3.6452,8.2935,1269,3101.42
14844,1.6484,0.5794,13.1729,1271,3101.42
14849,-6.438,-1.0151,13.1693,1271,3101.42
14854,-1.4461,2.97,8.0325,1267,3101.1
14859,3.4728,3.699,8.6095,1271,3101.1
14864,0.5124,-0.0108,13.8588,1263,3101.1
14869,-7.4136,-0.2251,12.4917,1276,3101.1
14874,0.0706,3.0047,7.9009,1277,3086.1
14879,3.6512,3.5554,9.2129,1279,3086.1
14884,-1.3886,-0.1808,13.9821,1276,3086.1
14889,-5.7209,0.0575,12.147,1289,3086.1
14894,0.2789,2.575,7.7979,1293,3009.48
14899,3.2992,3.7206,9.4703,1291,3009.48
14904,-1.4569,0.1317,13.5715,1279,3009.48
14909,-4.9225,-0.2155,11.9387,1299,3009.48
14914,0.0108,2.4146,8.0732,1291,2954.79
14919,2.7845,3.8966,9.8761,1299,2954.79
14924,-1.5981,0.4944,13.1478,1299,2954.79
14929,-4.3287,-0.7183,11.9758,1303,2954.79
14934,-0.5315,2.2517,8.3342,1299,2921.7
14939,2.2422,4.0378,10.0533,1306,2921.7
14944,-1.7035,0.9445,12.6007,1302,2921.7
14949,-3.7888,-1.2234,12.1709,1301,2921.7
14954,-1.3348,2.1117,8.5772,1301,2902.62
14959,1.9477,4.1312,10.1646,1304,2902.62
14964,-1.4892,1.506,11.9758,1301,2902.62
14969,-3.1292,-1.4772,12.3529,1310,2902.62
14974,-2.3296,1.907,8.9783,1303,2891.57
14979,1.8543,3.9397,10.0856,1303,2891.57
14984,-0.6081,1.9752,11.4347,1311,2891.57
14989,-2.3056,-1.6771,12.4834,1301,2891.57
14994,-3.3411,1.5167,9.4511,1300,2891.57
14999,1.6065,3.5674,9.9156,1308,2886.14
15004,0.7434,2.4936,11.0169,1307,2886.14
15009,-1.5766,-1.5598,12.5408,1301,2886.14
15014,-4.1061,1.0187,10.0963,1309,2886.14
15019,1.2426,3.2034,9.6426,1299,2883.23
15024,1.6843,3.1161,10.7452,1303,2883.23
15029,-1.2258,-1.0642,12.4738,1302,2883.23
15034,-4.4353,0.4082,10.805,1302,2883.23
15039,0.6883,2.9473,9.3853,1307,2881.98
15044,2.0722,3.7002,10.5082,1303,2881.98
15049,-1.1444,-0.1688,12.3062,1298,2881.98
15054,-4.3096,-0.2574,11.4634,1305,2881.98
15059,-0.0826,2.6755,9.1614,1301,2880.6
15064,1.998,3.9947,10.3441,1305,2880.6
15069,-1.4449,0.5926,11.9578,1305,2880.6
15074,-3.7912,-0.9373,11.9722,1303,2880.6
15079,-1.0511,2.3798,9.0381,1304,2879.63
15084,1.8543,3.9875,10.1598,1311,2879.63
15089,-1.4054,1.2534,11.5843,1304,2879.63
15094,-3.1376,-1.5083,12.3433,1307,2879.63
15099,-2.2087,2.0063,9.1973,1303,2878.94
15104,1.6927,3.8547,10.0975,1305,2878.94
15109,-0.6871,1.8375,11.2659,1311,2878.94
15114,-2.4469,-1.7011,12.5624,1299,2878.94
15119,-3.2406,1.6281,9.6403,1300,2878.94
15124,1.5622,3.5829,9.9311,1305,2879.35
15129,0.5746,2.4852,10.9475,1307,2879.35
15134,-1.7011,-1.4449,12.5648,1301,2879.35
15139,-3.9863,1.1061,10.1598,1309,2879.35
15144,1.3001,3.2813,9.6055,1303,2879.49
15149,1.6963,3.0993,10.6793,1302,2879.49
15154,-1.2007,-0.9613,12.5073,1300,2879.49
15159,-4.2844,0.3472,10.8014,1305,2879.49
15164,0.7733,2.903,9.3577,1307,2880.18
15169,2.077,3.6129,10.4256,1304,2880.18
15174,-1.2031,-0.1688,12.2368,1300,2880.18
15179,-4.2377,-0.3496,11.473,1307,2880.18
15184,-0.0503,2.6516,9.1375,1304,2880.6
15189,1.9489,3.978,10.3322,1303,2880.6
15194,-1.5335,0.5902,12.0261,1307,2880.6
15199,-3.8271,-0.9649,12.0297,1305,2880.6
15204,-0.9972,2.3966,9.0848,1303,2881.15
15209,1.8771,4.0677,10.1406,1307,2881.15
15214,-1.5203,1.3336,11.6873,1303,2881.15
15219,-3.1819,-1.409,12.3732,1309,2881.15
15224,-2.0614,2.0937,9.1973,1304,2881.29
15229,1.8196,3.9097,10.0509,1305,2881.29
15234,-0.656,1.8423,11.3533,1315,2881.29
15239,-2.4301,-1.725,12.5456,1303,2881.29
15244,-3.1412,1.6305,9.5541,1304,2881.29
15249,1.6388,3.5913,9.8378,1311,2881.57
15254,0.5207,2.4205,10.9666,1309,2881.57
15259,-1.7526,-1.5814,12.5911,1301,2881.57
15264,-3.9863,1.069,10.1766,1309,2881.57
15269,1.2785,3.2789,9.6438,1305,2882.4
15274,1.4952,3.043,10.7164,1303,2882.4
15279,-1.3324,-1.0714,12.5516,1301,2882.4
15284,-4.3718,0.4585,10.732,1305,2882.4
15289,0.8033,2.9844,9.2775,1308,2882.68
15294,2.0423,3.644,10.4854,1302,2882.68
15299,-1.2546,-0.1891,12.3864,1302,2882.68
15304,-4.2365,-0.2107,11.388,1304,2882.68
15309,0.1592,2.6899,9.0573,1301,2882.81
15314,2.0626,3.9552,10.325,1305,2882.81
15319,-1.482,0.5171,12.0392,1307,2882.81
15324,-3.8032,-0.9553,11.8788,1304,2882.81
15329,-0.8224,2.381,8.989,1303,2883.51
15334,1.834,4.0366,10.2472,1310,2883.51
15339,-1.5526,1.1684,11.7938,1305,2883.51
15344,-3.3184,-1.4389,12.3086,1276,2883.51
15349,-1.9609,2.0339,9.0968,1307,2883.09
15354,1.6939,3.9145,10.0413,1307,2883.09
15359,-0.9708,1.743,11.4682,1311,2883.09
15364,-2.6635,-1.6843,12.5552,1303,2883.09
15369,-2.9963,1.7107,9.4344,1304,2883.09
15374,1.6352,3.729,9.9252,1311,2883.23
15379,0.3352,2.3379,11.1354,1309,2883.23
15384,-1.8711,-1.5969,12.5289,1299,2883.23
15389,-3.8259,1.1887,9.8964,1309,2883.23
15394,1.4054,3.3555,9.6271,1297,2882.95
15399,1.4796,2.8862,10.8074,1305,2882.95
15404,-1.3551,-1.1732,12.5732,1305,2882.95
15409,-4.2856,0.5171,10.5512,1304,2882.95
15414,0.9397,3.0143,9.3601,1305,2883.23
15419,1.9237,3.4572,10.5333,1305,2883.23
15424,-1.2222,-0.4082,12.4235,1307,2883.23
15429,-4.3227,-0.2071,11.2168,1305,2883.23
15434,0.1808,2.7282,9.1482,1301,2883.65
15439,1.9142,3.8942,10.4028,1307,2883.65
15444,-1.4988,0.4405,12.2032,1307,2883.65
15449,-4.0546,-0.7997,11.825,1303,2883.65
15454,-0.6548,2.4972,8.9926,1306,2884.2
15459,1.919,4.0881,10.1957,1312,2884.2
15464,-1.6197,1.0822,11.8597,1305,2884.2
15469,-3.4058,-1.2629,12.2595,1305,2884.2
15474,-1.6352,2.1739,9.0704,1308,2884.48
15479,1.8471,3.966,10.0724,1305,2884.48
15484,-1.1025,1.6005,11.461,1307,2884.48
15489,-2.6911,-1.7107,12.463,1307,2884.48
15494,-2.7198,1.7837,9.2919,1309,2884.75
15499,1.7059,3.7242,9.9359,1307,2884.75
15504,-0.0215,2.1476,11.2144,1305,2884.75
15509,-2.0985,-1.7202,12.6486,1302,2884.75
15514,-3.7014,1.2869,9.7839,1317,2884.75
15519,1.4617,3.4393,9.7181,1303,2884.75
15524,1.1241,2.8096,10.8876,1305,2884.75
15529,-1.5311,-1.3132,12.5899,1305,2884.75
15534,-4.2461,0.7685,10.4998,1307,2884.75
15539,1.0894,3.134,9.4403,1303,2885.17
15544,1.9201,3.3914,10.6039,1309,2885.17
15549,-1.2785,-0.5758,12.487,1305,2885.17
15554,-4.3132,0.073,11.0445,1308,2885.17
15559,0.5459,2.8156,9.1099,1307,2885.59
15564,2.0973,3.7864,10.3908,1305,2885.59
15569,-1.3671,0.1879,12.2152,1303,2885.59
15574,-4.057,-0.6369,11.6107,1309,2885.59
15579,-0.3077,2.5031,8.989,1305,2885.73
15584,1.8747,3.9995,10.228,1310,2885.73
15589,-1.6616,0.8739,11.9818,1303,2885.73
15594,-3.632,-1.1971,12.0991,1304,2885.73
15599,-1.3001,2.2613,9.0118,1305,2885.86
15604,1.7909,4.0043,10.1921,1309,2885.86
15609,-1.3683,1.4425,11.6514,1304,2885.86
15614,-3.0167,-1.5299,12.4235,1315,2885.86
15619,-2.399,1.9644,9.2081,1305,2886.0
15624,1.7669,3.8942,10.0018,1309,2886.0
15629,-0.3747,1.9597,11.2755,1315,2886.0
15634,-2.2553,-1.7083,12.5432,1305,2886.0
15639,-3.3243,1.5095,9.5589,1307,2886.0
15644,1.6233,3.5614,9.7935,1307,2886.42
15649,0.9086,2.5247,10.9475,1305,2886.42
15654,-1.6436,-1.5,12.615,1304,2886.42
15659,-4.0666,0.893,10.1801,1306,2886.42
15664,1.2234,3.2322,9.5445,1303,2886.7
15669,1.7478,3.1304,10.6662,1305,2886.7
15674,-1.2689,-0.8835,12.542,1301,2886.7
15679,-4.3838,0.243,10.8014,1305,2886.7
15684,0.7434,2.9568,9.2632,1309,2887.11
15689,2.0016,3.6775,10.5034,1303,2887.11
15694,-1.4018,-0.0742,12.3936,1303,2887.11
15699,-4.2365,-0.2861,11.4682,1316,2887.11
15704,-0.0215,2.6851,9.0321,1309,2887.39
15709,2.0255,4.0199,10.2783,1307,2887.39
15714,-1.5886,0.6943,12.0955,1309,2887.39
15719,-3.8379,-0.9218,11.995,1309,2887.39
15724,-0.9409,2.3667,8.9531,1306,2887.67
15729,1.8902,4.0247,10.173,1311,2887.67
15734,-1.5036,1.257,11.7867,1308,2887.67
15739,-3.2465,-1.5048,12.3158,1316,2887.67
15744,-1.9381,2.0255,9.1063,1305,2887.95
15749,1.7549,3.8583,10.0413,1305,2887.95
15754,-0.8667,1.7502,11.5377,1317,2887.95
15759,-2.6133,-1.7645,12.4965,1303,2887.95
15764,-3.0023,1.6903,9.4739,1305,2887.95
15769,1.6161,3.6248,9.8988,1315,2888.09
15774,0.3053,2.3439,11.2025,1309,2888.09
15779,-2.0207,-1.6125,12.6378,1303,2888.09
15784,-3.8439,1.1887,9.924,1317,2888.09
15789,1.4257,3.395,9.6546,1304,2887.53
15794,1.4676,2.9209,10.9044,1304,2887.53
15799,-1.4413,-1.1732,12.651,1305,2887.53
15804,-4.2868,0.559,10.5345,1302,2887.53
15809,1.008,3.0358,9.3326,1305,2887.67
15814,2.0638,3.4273,10.501,1307,2887.67
15819,-1.2103,-0.4118,12.4594,1307,2887.67
15824,-4.3275,-0.1437,11.1498,1307,2887.67
15829,0.401,2.7414,9.1626,1302,2887.67
15834,2.0446,3.8403,10.41,1306,2887.67
15839,-1.4461,0.3029,12.226,1309,2887.67
15844,-4.1168,-0.7781,11.7747,1303,2887.67
15849,-0.4585,2.4792,8.904,1305,2888.92
15854,1.8579,4.0857,10.2604,1297,2888.92
15859,-1.6688,1.0008,11.9471,1303,2888.92
15864,-3.6021,-1.2031,12.2607,1304,2888.92
15869,-1.4509,2.2565,8.9986,1306,2888.78
15874,1.8459,4.045,10.1023,1307,2888.78
15879,-1.233,1.5335,11.6538,1305,2888.78
15884,-2.9185,-1.6029,12.396,1311,2888.78
15889,-2.4373,1.8459,9.1722,1310,2888.92
15894,1.7322,3.8283,9.9132,1305,2888.92
15899,-0.237,1.9585,11.2623,1311,2888.92
15904,-2.2601,-1.7466,12.6174,1304,2888.92
15909,-3.4165,1.4413,9.6355,1315,2888.92
15914,1.5622,3.486,9.7276,1299,2888.92
15919,0.9493,2.5606,11.0229,1305,2888.92
15924,-1.7083,-1.4952,12.6055,1307,2888.92
15929,-4.1264,0.9026,10.1789,1303,2888.92
15934,1.2318,3.2178,9.4966,1305,2889.62
15939,1.7837,3.1987,10.7464,1307,2889.62
15944,-1.4066,-0.8212,12.5995,1304,2889.62
15949,-4.3838,0.3472,10.835,1305,2889.62
15954,0.7817,2.9473,9.2189,1307,2889.2
15959,2.0746,3.7002,10.4555,1307,2889.2
15964,-1.3695,-0.0634,12.4666,1302,2889.2
15969,-4.227,-0.3855,11.3749,1311,2889.2
15974,0.0335,2.6767,9.0357,1299,2889.34
15979,2.0195,3.972,10.2843,1304,2889.34
15984,-1.5802,0.6776,12.159,1309,2889.34
15989,-3.8295,-1.0056,11.8597,1308,2889.34
15994,-0.8356,2.4014,8.8789,1307,2888.78
15999,1.8495,4.0091,10.076,1308,2888.78
16004,-1.561,1.2163,11.8357,1303,2888.78
16009,-3.3064,-1.4736,12.299,1309,2888.78
16014,-1.9201,2.0399,9.0812,1304,2888.36
16019,1.6903,3.8978,10.07,1309,2888.36
16024,-0.8966,1.7466,11.5341,1309,2888.36
16029,-2.6899,-1.6688,12.4977,1315,2888.36
16034,-2.9544,1.6783,9.3721,1301,2888.36
16039,1.6257,3.705,9.8821,1311,2888.09
16044,0.2921,2.2913,11.1426,1312,2888.09
16049,-2.0267,-1.6041,12.5899,1301,2888.09
16054,-3.7661,1.2079,9.9395,1311,2888.09
16059,1.488,3.3639,9.6343,1305,2887.95
16064,1.4293,2.8395,10.8661,1303,2887.95
16069,-1.4485,-1.2043,12.5181,1305,2887.95
16074,-4.2377,0.5746,10.5261,1308,2887.95
16079,1.0391,3.0095,9.3589,1306,2888.23
16084,1.9812,3.4165,10.5692,1305,2888.23
16089,-1.2989,-0.4597,12.5049,1304,2888.23
16094,-4.4005,-0.0862,11.1917,1307,2888.23
16099,0.3759,2.7617,9.1854,1303,2888.5
16104,2.0123,3.8295,10.416,1307,2888.5
16109,-1.5287,0.3089,12.2942,1311,2888.5
16114,-4.1073,-0.6416,11.7328,1305,2888.5
16119,-0.4118,2.5175,8.9507,1304,2888.36
16124,1.9118,4.0713,10.2292,1308,2888.36
16129,-1.7035,0.9996,12.0524,1304,2888.36
16134,-3.571,-1.2019,12.1302,1305,2888.36
16139,-1.3168,2.2757,8.9411,1310,2887.81
16144,1.8663,3.9851,10.0916,1310,2887.81
16149,-1.2821,1.4952,11.6047,1306,2887.81
16154,-2.9736,-1.634,12.3637,1315,2887.81
16159,-2.4026,1.8627,9.2153,1311,2888.09
16164,1.731,3.7924,10.0377,1306,2888.09
16169,-0.3364,1.9513,11.3078,1311,2888.09
16174,-2.32,-1.7597,12.5324,1305,2888.09
16179,-3.4046,1.3683,9.578,1315,2888.09
16184,1.5634,3.5051,9.8282,1301,2888.09
16189,0.8859,2.5654,10.9882,1305,2888.09
16194,-1.7897,-1.4892,12.615,1305,2888.09
16199,-4.0797,0.9158,10.2268,1307,2888.09
16204,1.2629,3.2753,9.5217,1304,2888.23
16209,1.7561,3.2022,10.6626,1307,2888.23
16214,-1.4317,-0.8056,12.5624,1307,2888.23
16219,-4.3263,0.2897,10.8302,1305,2888.23
16224,0.808,2.9676,9.2249,1307,2888.64
16229,2.0638,3.7038,10.4938,1293,2888.64
16234,-1.3192,-0.0575,12.4068,1303,2888.64
16239,-4.2389,-0.3974,11.4323,1312,2888.64
16244,0.0874,2.6504,9.0393,1308,2888.64
16249,1.9704,4.0079,10.2999,1299,2888.64
16254,-1.5909,0.5974,12.1362,1309,2888.64
16259,-3.881,-1.0116,11.898,1308,2888.64
16264,-0.8332,2.3379,8.9759,1305,2888.78
16269,1.8627,4.0989,10.1766,1309,2888.78
16274,-1.5921,1.2306,11.8286,1306,2888.78
16279,-3.3483,-1.415,12.3026,1315,2888.78
16284,-1.8507,2.0782,9.0644,1308,2888.78
16289,1.804,3.948,10.0317,1306,2888.78
16294,-0.8464,1.7801,11.5448,1315,2888.78
16299,-1.8256,-1.5419,12.6055,1305,2888.78
16304,-2.9245,1.7382,9.3733,1308,2888.78
16309,1.3551,3.2741,9.5313,1310,2888.78
16314,0.3268,2.2733,11.1905,1310,2888.78
16319,-1.4234,-1.0786,12.5301,1303,2888.78
16324,-4.3574,0.3675,10.6614,1315,2888.78
16329,0.9026,2.9521,9.2955,1303,2889.06
16334,2.0087,3.5374,10.5512,1302,2889.06
16339,-1.3779,-0.2155,12.475,1307,2889.06
16344,-4.3072,-0.2286,11.3102,1299,2889.06
16349,0.2514,2.7366,9.0956,1309,2888.92
16354,1.9752,3.9193,10.3597,1309,2888.92
16359,-1.5909,0.5195,12.2176,1303,2888.92
16364,-3.9792,-0.8535,11.7687,1309,2888.92
16369,-0.6069,2.4301,8.9723,1303,2888.92
16374,1.8651,4.0582,10.2113,1299,2888.92
16379,-1.6316,1.1349,11.9219,1311,2888.92
16384,-3.4524,-1.3312,12.2475,1304,2888.92
16389,-1.5862,2.1213,8.9304,1305,2889.06
16394,1.8304,3.9636,10.0975,1315,2889.06
16399,-1.0546,1.6089,11.5484,1307,2889.06
16404,-2.7545,-1.6855,12.4582,1303,2889.06
16409,-2.7138,1.7154,9.2464,1310,2888.78
16414,1.6771,3.6931,9.9599,1311,2888.78
16419,0.0168,2.0818,11.1977,1308,2888.78
16424,-2.2075,-1.7107,12.5779,1309,2888.78
16429,-3.6308,1.3431,9.7324,1309,2888.78
16434,1.5514,3.5099,9.7731,1306,2888.78
16439,1.1528,2.7294,10.9978,1309,2888.78
16444,-1.6903,-1.2462,12.6378,1305,2888.78
16449,-4.2018,0.8068,10.3729,1316,2888.78
16454,1.1875,3.1879,9.4403,1303,2889.06
16459,1.9046,3.3291,10.6183,1308,2889.06
16464,-1.3886,-0.595,12.4738,1307,2889.06
16469,-4.367,0.1341,10.9642,1305,2889.06
16474,0.668,2.8587,9.2021,1303,2889.34
16479,2.0662,3.723,10.4411,1305,2889.34
16484,-1.4186,0.0946,12.3218,1309,2889.34
16489,-4.1851,-0.5746,11.5412,1306,2889.34
16494,-0.1018,2.5498,8.9723,1308,2889.76
16499,1.9417,3.9708,10.2711,1309,2889.76
16504,-1.6664,0.7709,12.1673,1305,2889.76
16509,-3.8343,-1.0882,12.0991,1315,2889.76
16514,-1.0439,2.3391,8.989,1309,2889.62
16519,1.7945,4.057,10.1275,1309,2889.62
16524,-1.5514,1.3707,11.8214,1311,2889.62
16529,-3.2142,-1.4952,12.2846,1309,2889.62
16534,-2.0806,2.0351,9.0932,1307,2889.9
16539,1.7777,3.9014,9.9946,1311,2889.9
16544,-0.6404,1.8471,11.467,1307,2889.9
16549,-2.5187,-1.7418,12.4606,1311,2889.9
16554,-3.067,1.6592,9.4691,1309,2889.76
16559,1.6975,3.6715,9.8282,1309,2889.76
16564,0.5447,2.3774,11.1282,1317,2889.76
16569,-1.8759,-1.6245,12.56,1303,2889.76
16574,-3.8846,1.0451,9.9587,1307,2889.76
16579,1.4605,3.3267,9.5984,1299,2889.62
16584,1.5682,2.9461,10.8014,1311,2889.62
16589,-1.5526,-1.0822,12.5767,1305,2889.62
16594,-4.3347,0.5016,10.5991,1319,2889.62
16599,1.0343,3.0454,9.3901,1307,2889.06
16604,1.9656,3.5099,10.58,1305,2889.06
16609,-1.4557,-0.334,12.4642,1306,2889.06
16614,-4.3299,-0.1317,11.2432,1305,2889.06
16619,0.3723,2.7689,9.0836,1305,2889.06
16624,1.998,3.9073,10.4327,1309,2889.06
16629,-1.567,0.4501,12.1841,1307,2889.06
16634,-4.0079,-0.7506,11.7292,1310,2889.06
16639,-0.4477,2.5139,8.9735,1303,2888.78
16644,1.9477,4.0199,10.2843,1307,2888.78
16649,-1.6484,0.9936,11.8286,1308,2888.78
16654,-3.456,-1.2893,12.159,1307,2888.78
16659,-1.4856,2.1261,9.0417,1305,2888.92
16664,1.7705,3.9133,10.161,1309,2888.92
16669,-1.1803,1.4964,11.5987,1301,2888.92
16674,-2.9341,-1.652,12.4702,1305,2888.92
16679,-2.5534,1.8411,9.2428,1309,2888.92
16684,1.6616,3.7757,9.9874,1325,2888.92
16689,-0.1832,2.0411,11.2492,1305,2888.92
16694,-2.2745,-1.6652,12.6103,1311,2888.92
16699,-3.4572,1.4437,9.7276,1315,2888.92
16704,1.5586,3.553,9.821,1307,2888.92
16709,1.0367,2.648,10.9571,1311,2888.92
16714,-1.6915,-1.3431,12.6103,1305,2888.92
16719,-4.0845,0.8942,10.2604,1310,2888.92
16724,1.318,3.1939,9.5158,1305,2888.92
16729,1.8292,3.1675,10.6267,1308,2888.92
16734,-1.3635,-0.759,12.5121,1312,2888.92
16739,-4.3419,0.146,10.8577,1307,2888.92
16744,0.741,2.8527,9.2584,1303,2889.34
16749,2.0602,3.6452,10.4267,1299,2889.34
16754,-1.4329,-0.0012,12.3277,1310,2889.34
16759,-4.2784,-0.4597,11.497,1308,2889.34
16764,0.0144,2.6731,9.0692,1311,2889.48
16769,1.9405,3.9301,10.2915,1311,2889.48
16774,-1.7154,0.6788,12.1518,1305,2889.48
16779,-3.8559,-0.9984,11.9686,1317,2889.48
16784,-0.9409,2.4014,9.007,1307,2889.2
16789,1.8902,4.0761,10.2304,1307,2889.2
16794,-1.5574,1.2857,11.7615,1309,2889.2
16799,-3.2477,-1.4581,12.3146,1311,2889.2
16804,-1.9728,2.0638,9.1028,1305,2889.2
16809,1.8208,3.9325,10.0604,1307,2889.2
16814,-0.7913,1.7226,11.3892,1305,2889.2
16819,-2.557,-1.7334,12.4929,1316,2889.2
16824,-2.988,1.6209,9.3877,1311,2889.2
16829,1.6891,3.6057,9.8797,1307,2889.2
16834,0.4441,2.2517,11.0768,1320,2889.2
16839,-2.0554,-1.6185,12.6139,1307,2889.2
16844,-3.8571,1.172,9.9886,1309,2889.2
16849,1.5012,3.377,9.6989,1309,2889.2
16854,1.4174,2.9353,10.7895,1311,2889.2
16859,-1.6125,-1.1289,12.5504,1305,2889.2
16864,-4.3263,0.5974,10.6027,1316,2889.2
16869,1.1037,3.0945,9.3458,1306,2889.2
16874,2.0063,3.4824,10.5405,1307,2889.2
16879,-1.4198,-0.3867,12.4475,1299,2889.2
16884,-4.3072,-0.0539,11.1821,1308,2889.2
16889,0.4872,2.8359,9.1303,1307,2889.34
16894,2.1332,3.8259,10.3537,1309,2889.34
16899,-1.5071,0.3112,12.1278,1307,2889.34
16904,-4.0606,-0.7338,11.6993,1307,2889.34
16909,-0.3292,2.5319,8.9603,1308,2889.2
16914,1.9453,3.9744,10.1849,1309,2889.2
16919,-1.7083,0.8942,11.9626,1311,2889.2
16924,-3.5949,-1.2522,12.1554,1307,2889.2
16929,-1.3719,2.2649,9.0273,1306,2889.76
16934,1.7945,3.9887,10.1107,1310,2889.76
16939,-1.3707,1.4222,11.6262,1301,2889.76
16944,-3.0335,-1.5562,12.4379,1306,2889.76
16949,-2.4588,1.9501,9.2428,1319,2889.76
16954,1.7705,3.8726,10.0161,1315,2889.76
16959,-0.3041,1.9644,11.3294,1309,2889.76
16964,-2.3415,-1.6448,12.5863,1312,2889.76
16969,-3.3734,1.5407,9.5708,1307,2889.76
16974,1.6484,3.5769,9.8234,1305,2889.76
16979,0.9649,2.4828,10.9283,1315,2889.76
16984,-1.7406,-1.4389,12.6007,1307,2889.76
16989,-4.0618,0.8703,10.1466,1309,2889.76
16994,1.3228,3.2825,9.6235,1306,2890.03
16999,1.7765,3.0335,10.6817,1311,2890.03
17004,-1.4784,-0.9278,12.5875,1306,2890.03
17009,-4.3958,0.2885,10.7823,1304,2890.03
17014,0.8428,2.9928,9.3601,1305,2890.31
17019,2.0111,3.6308,10.5117,1307,2890.31
17024,-1.5467,-0.1221,12.4307,1305,2890.31
17029,-4.3419,-0.3184,11.4275,1304,2890.31
17034,0.1987,2.7294,9.1004,1312,2890.17
17039,1.986,3.9648,10.3441,1307,2890.17
17044,-1.7011,0.5938,12.123,1307,2890.17
17049,-3.8822,-0.8882,11.9076,1316,2890.17
17054,-0.7362,2.4277,8.9926,1309,2890.17
17059,1.9932,4.0666,10.173,1307,2890.17
17064,-1.6005,1.1325,11.8549,1307,2890.17
17069,-3.3411,-1.3779,12.214,1307,2890.17
17074,-1.7657,2.0877,9.0525,1307,2889.76
17079,1.8172,3.8966,10.0832,1317,2889.76
17084,-0.9888,1.5993,11.4263,1305,2889.76
17089,-2.7186,-1.7526,12.5013,1311,2889.76
17094,-2.8096,1.7358,9.432,1309,2889.48
17099,1.6532,3.7134,9.9156,1311,2889.48
17104,0.1508,2.1835,11.2132,1315,2889.48
17109,-2.1835,-1.6688,12.5947,1303,2889.48
17114,-3.6907,1.3324,9.8497,1306,2889.62
17119,1.5467,3.4058,9.6893,1317,2889.62
17124,1.2965,2.8,10.884,1315,2889.62
17129,-1.6532,-1.2258,12.6007,1299,2889.62
17134,-4.2473,0.7254,10.3968,1309,2889.62
17139,1.1241,3.1484,9.4763,1307,2889.76
17144,1.9968,3.3555,10.574,1303,2889.76
17149,-1.3575,-0.5243,12.5073,1307,2889.76
17154,-4.3155,0.0311,10.981,1306,2889.76
17159,0.589,2.8012,9.1171,1304,2889.76
17164,2.1069,3.7026,10.416,1307,2889.76
17169,-1.5263,0.152,12.2823,1307,2889.76
17174,-4.1911,-0.6381,11.637,1308,2889.76
17179,-0.1939,2.5678,8.9998,1309,2889.76
17184,1.9561,3.9433,10.2412,1310,2889.76
17189,-1.7765,0.7973,11.995,1305,2889.76
17194,-3.7673,-1.0774,12.0716,1309,2889.76
17199,-1.1732,2.3308,8.9771,1307,2890.03
17204,1.822,4.0917,10.2077,1307,2890.03
17209,-1.4581,1.3719,11.6849,1305,2890.03
17214,-3.1388,-1.5215,12.3469,1305,2890.03
17219,-2.1727,1.9752,9.0944,1305,2889.9
17224,1.8735,3.8798,10.0437,1311,2889.9
17229,-0.4741,1.804,11.2587,1305,2889.9
17234,-2.4756,-1.6747,12.5492,1310,2889.9
17239,-3.1999,1.5467,9.5253,1311,2889.76
17244,1.6999,3.6033,9.8689,1305,2889.76
17249,0.7111,2.3475,10.9403,1317,2889.76
17254,-1.8986,-1.5622,12.6198,1305,2889.76
17259,-4.0127,0.9864,10.0341,1307,2889.76
17264,1.3946,3.2537,9.5936,1305,2889.9
17269,1.6185,3.0538,10.7619,1309,2889.9
17274,-1.5814,-1.008,12.5863,1305,2889.9
17279,-4.3622,0.4836,10.7548,1311,2889.9
17284,0.9996,3.0406,9.3733,1309,2890.45
17289,2.0746,3.5698,10.5117,1305,2890.45
17294,-1.482,-0.261,12.3756,1304,2890.45
17299,-4.3203,-0.1568,11.2743,1309,2890.45
17304,0.3531,2.745,9.1267,1311,2890.17
17309,2.1811,3.8894,10.3118,1307,2890.17
17314,-1.6053,0.4788,12.1458,1303,2890.17
17319,-4.0091,-0.8021,11.8166,1309,2890.17
17324,-0.5028,2.4493,8.9639,1309,2890.03
17329,1.974,3.9887,10.1442,1305,2890.03
17334,-1.6831,1.0163,11.8812,1311,2890.03
17339,-3.5147,-1.3479,12.1901,1315,2890.03
17344,-1.5479,2.1428,9.0872,1307,2889.9
17349,1.7921,3.9301,10.1047,1315,2889.9
17354,-1.1636,1.5754,11.5472,1307,2889.9
17359,-2.9102,-1.6053,12.4056,1308,2889.9
17364,-2.6085,1.8735,9.2967,1307,2889.62
17369,1.7681,3.7876,10.0257,1311,2889.62
17374,-0.0587,2.0554,11.2144,1305,2889.62
17379,-2.2781,-1.6233,12.536,1309,2889.62
17384,-3.5374,1.4162,9.7552,1310,2890.59
17389,1.6915,3.5362,9.8258,1309,2890.59
17394,1.1851,2.6169,10.896,1306,2890.59
17399,-1.6975,-1.306,12.5959,1302,2890.59
17404,-4.1156,0.8092,10.2771,1311,2890.59
17409,1.3001,3.1999,9.5014,1303,2890.59
17414,1.8854,3.1448,10.6255,1306,2890.59
17419,-1.4449,-0.7362,12.4989,1307,2890.59
17424,-4.3946,0.1113,10.9104,1306,2890.59
17429,0.7482,2.891,9.2093,1303,2890.45
17434,2.0482,3.6667,10.4435,1311,2890.45
17439,-1.5143,-0.0084,12.3206,1307,2890.45
17444,-4.3048,-0.4178,11.5173,1307,2890.45
17449,0.018,2.6779,9.0728,1309,2890.73
17454,1.9764,4.0067,10.3202,1307,2890.73
17459,-1.7885,0.7362,12.0919,1305,2890.73
17464,-3.8307,-0.9685,12.0129,1308,2890.73
17469,-0.8859,2.3583,8.9579,1307,2890.59
17474,1.9609,4.0606,10.1825,1305,2890.59
17479,-1.5754,1.2091,11.728,1309,2890.59
17484,-3.2178,-1.4234,12.3206,1311,2890.59
17489,-1.9213,2.065,9.1267,1308,2890.31
17494,1.8783,3.8786,10.0844,1303,2890.31
17499,-0.8033,1.6843,11.4036,1309,2890.31
17504,-2.6288,-1.7286,12.5336,1317,2890.31
17509,-2.9868,1.6532,9.42,1311,2890.31
17514,1.719,3.638,9.9096,1307,2890.31
17519,0.3627,2.2314,11.145,1319,2890.31
17524,-2.059,-1.6005,12.5684,1301,2890.31
17529,-3.7984,1.2246,9.9515,1309,2890.31
17534,1.506,3.4058,9.6941,1311,2890.31
17539,1.4569,2.8718,10.7955,1311,2890.31
17544,-1.6197,-1.136,12.5851,1305,2890.31
17549,-4.3012,0.6716,10.5393,1316,2890.31
17554,1.1325,3.1496,9.4308,1305,2890.73
17559,2.0303,3.3914,10.5321,1309,2890.73
17564,-1.4389,-0.3903,12.548,1305,2890.73
17569,-4.3383,-0.0299,11.1187,1309,2890.73
17574,0.5363,2.8826,9.2069,1316,2890.59
17579,2.1009,3.7565,10.3621,1311,2890.59
17584,-1.5371,0.2526,12.214,1307,2890.59
17589,-4.1108,-0.741,11.6993,1307,2890.59
17594,-0.3017,2.5678,9.0776,1301,2890.87
17599,1.9249,3.9923,10.2687,1307,2890.87
17604,-1.7023,0.8859,11.9914,1315,2890.87
17609,-3.7098,-1.1839,12.0764,1308,2890.87
17614,-1.2737,2.2924,8.9304,1307,2890.59
17619,1.8387,4.0247,10.1406,1312,2890.59
17624,-1.403,1.4305,11.5975,1307,2890.59
17629,-3.0921,-1.5012,12.3852,1308,2890.59
17634,-2.3535,1.9477,9.2165,1309,2890.73
17639,1.7909,3.8858,10.0533,1315,2890.73
17644,-0.3579,1.8663,11.2934,1307,2890.73
17649,-2.405,-1.6544,12.5504,1315,2890.73
17654,-3.3387,1.5323,9.499,1311,2890.73
17659,1.6867,3.6164,9.7779,1307,2890.73
17664,0.8799,2.4038,10.987,1315,2890.73
17669,-1.8794,-1.5179,12.6222,1307,2890.73
17674,-4.0247,0.9637,10.1766,1317,2890.73
17679,1.3791,3.2406,9.5397,1305,2890.73
17684,1.7202,3.0466,10.7069,1307,2890.73
17689,-1.5048,-0.923,12.5636,1307,2890.73
17694,-4.3898,0.4429,10.7811,1305,2890.73
17699,0.8954,2.9904,9.2847,1305,2891.15
17704,2.0734,3.5554,10.5824,1309,2891.15
17709,-1.5227,-0.1975,12.3936,1308,2891.15
17714,-4.3024,-0.1724,11.3677,1304,2891.15
17719,0.2801,2.7007,9.086,1307,2891.15
17724,2.1272,3.8954,10.3058,1308,2891.15
17729,-1.7466,0.5004,12.1218,1304,2891.15
17734,-3.9756,-0.8104,11.8705,1316,2891.15
17739,-0.5674,2.4565,9.0225,1309,2890.87
17744,1.98,3.9923,10.2113,1309,2890.87
17749,-1.6939,1.0618,11.8501,1303,2890.87
17754,-3.4776,-1.3443,12.2044,1311,2890.87
17759,-1.6089,2.1608,9.0345,1309,2891.01
17764,1.8866,3.9409,10.1011,1315,2891.01
17769,-1.1432,1.5622,11.5604,1307,2891.01
17774,-2.9102,-1.6927,12.4594,1317,2891.01
17779,-2.7019,1.8148,9.3422,1303,2891.01
17784,1.7597,3.7397,10.0197,1309,2891.01
17789,-0.0251,2.0901,11.1941,1317,2891.01
17794,-2.2637,-1.664,12.5791,1301,2891.01
17799,-3.6129,1.3611,9.742,1308,2891.01
17804,1.6161,3.5183,9.7779,1317,2890.87
17809,1.2127,2.6528,10.8996,1311,2890.87
17814,-1.7538,-1.2785,12.6414,1302,2890.87
17819,-4.1875,0.7997,10.307,1310,2890.87
17824,1.2941,3.1939,9.5313,1306,2891.01
17829,1.968,3.1735,10.6147,1305,2891.01
17834,-1.4377,-0.7111,12.4953,1309,2891.01
17839,-4.3144,0.097,10.9283,1307,2891.01
17844,0.729,2.9173,9.2153,1293,2891.29
17849,2.0842,3.6476,10.4686,1309,2891.29
17854,-1.506,0.0227,12.3481,1309,2891.29
17859,-4.2737,-0.4669,11.5125,1311,2891.29
17864,-0.0275,2.6695,9.0249,1310,2891.71
17869,2.0123,3.978,10.3226,1309,2891.71
17874,-1.7789,0.6452,12.05,1305,2891.71
17879,-3.8738,-0.9732,11.9926,1304,2891.71
17884,-0.9481,2.411,9.0118,1307,2891.71
17889,1.9082,4.0785,10.1921,1311,2891.71
17894,-1.6173,1.2163,11.7651,1307,2891.71
17899,-3.2453,-1.4162,12.2811,1308,2891.71
17904,-1.9321,2.0435,9.1051,1311,2891.57
17909,1.901,3.9373,10.0209,1315,2891.57
17914,-0.7626,1.6915,11.4455,1307,2891.57
17919,-2.6995,-1.7083,12.5121,1317,2891.57
17924,-2.9652,1.7047,9.4547,1310,2891.57
17929,1.7801,3.6524,9.906,1305,2891.57
17934,0.3603,2.2853,11.1654,1317,2891.57
17939,-2.0686,-1.6592,12.6354,1307,2891.57
17944,-3.7733,1.2222,9.8234,1307,2891.57
17949,1.5131,3.3531,9.6426,1307,2891.43
17954,1.47,2.8527,10.8386,1307,2891.43
17959,-1.6532,-1.1971,12.5935,1306,2891.43
17964,-4.2748,0.6812,10.4279,1310,2891.43
17969,1.1528,3.1304,9.4044,1307,2891.71
17974,2.0399,3.4141,10.6063,1320,2891.71
17979,-1.488,-0.4537,12.475,1307,2891.71
17984,-4.3958,-0.0024,11.1175,1309,2891.71
17989,0.577,2.8563,9.1913,1315,2891.43
17994,2.1296,3.7589,10.4543,1306,2891.43
17999,-1.5754,0.2322,12.287,1305,2891.43
18004,-4.1168,-0.6189,11.6933,1310,2891.43
18009,-0.2322,2.5941,8.9878,1306,2891.84
18014,1.9728,3.9935,10.2604,1307,2891.84
18019,-1.719,0.8763,11.9531,1312,2891.84
18024,-3.6631,-1.1516,12.1374,1307,2891.84
18029,-1.1827,2.3104,8.9615,1309,2891.84
18034,1.8974,3.9875,10.1945,1309,2891.84
18039,-1.4401,1.3791,11.6406,1307,2891.84
18044,-3.1663,-1.5107,12.4032,1306,2891.84
18049,-2.2984,1.9836,9.1447,1310,2891.98
18054,1.8064,3.8834,10.0245,1311,2891.98
18059,-0.4597,1.834,11.3389,1307,2891.98
18064,-2.4792,-1.67,12.6031,1315,2891.98
18069,-3.2717,1.5634,9.5636,1325,2892.26
18074,1.6735,3.6224,9.8186,1307,2892.26
18079,0.8152,2.399,10.9726,1317,2892.26
18084,-1.9094,-1.4605,12.5696,1307,2892.26
18089,-3.984,1.0726,10.0784,1317,2892.26
18094,1.4509,3.304,9.6103,1307,2892.54
18099,1.7166,2.9497,10.7464,1308,2892.54
18104,-1.5203,-1.0151,12.5672,1309,2892.54
18109,-4.3898,0.4836,10.6698,1306,2892.54
18114,0.978,2.9928,9.3027,1304,2892.68
18119,2.0818,3.4824,10.495,1307,2892.68
18124,-1.5048,-0.2981,12.4103,1307,2892.68
18129,-4.367,-0.1077,11.2013,1307,2892.68
18134,0.3783,2.7916,9.1087,1311,2892.82
18139,2.0746,3.8463,10.3621,1309,2892.82
18144,-1.6867,0.4166,12.2715,1285,2892.82
18149,-4.0941,-0.6943,11.7388,1319,2892.82
18154,-0.4645,2.5079,8.9292,1309,2892.4
18159,1.9752,4.0211,10.2137,1308,2892.4
18164,-1.7633,0.9948,11.965,1311,2892.4
18169,-3.5829,-1.2282,12.2092,1311,2892.4
18174,-1.476,2.2505,9.0621,1309,2891.98
18179,1.8914,3.9804,10.094,1317,2891.98
18184,-1.2246,1.5,11.6358,1309,2891.98
18189,-2.9652,-1.6233,12.4091,1315,2891.98
18194,-2.4696,1.8747,9.256,1315,2891.57
18199,1.7825,3.7278,10.003,1310,2891.57
18204,-0.2155,1.9417,11.3186,1316,2891.57
18209,-2.3583,-1.7035,12.6031,1304,2891.57
18214,-3.4836,1.421,9.6833,1308,2891.43
18219,1.6472,3.5721,9.8114,1311,2891.43
18224,1.0008,2.563,10.9487,1308,2891.43
18229,-1.828,-1.3898,12.621,1306,2891.43
18234,-4.0857,0.9457,10.2316,1309,2891.43
18239,1.3779,3.2477,9.5612,1305,2891.43
18244,1.8495,3.1388,10.7105,1306,2891.43
18249,-1.5287,-0.7913,12.4941,1309,2891.43
18254,-4.361,0.3232,10.8553,1307,2891.43
18259,0.8559,2.9987,9.2261,1303,2891.43
18264,2.1308,3.632,10.483,1312,2891.43
18269,-1.4952,-0.0323,12.3445,1309,2891.43
18274,-4.2641,-0.3531,11.3964,1304,2891.43
18279,0.1484,2.6336,9.0285,1311,2891.43
18284,2.0303,3.9205,10.3262,1305,2891.43
18289,-1.652,0.5758,12.1206,1307,2891.43
18294,-3.96,-0.8942,11.9483,1312,2891.43
18299,-0.7649,2.4588,8.9735,1309,2891.71
18304,1.9357,4.0282,10.1921,1307,2891.71
18309,-1.7023,1.1253,11.7879,1309,2891.71
18314,-3.4429,-1.3491,12.3014,1309,2891.71
18319,-1.8244,2.1344,9.0668,1307,2891.84
18324,1.8591,3.9301,10.076,1309,2891.84
18329,-0.9613,1.6005,11.4886,1305,2891.84
18334,-2.7749,-1.5993,12.4546,1309,2891.84
18339,-2.8084,1.81,9.3446,1308,2891.57
18344,1.822,3.7158,9.9288,1306,2891.57
18349,0.2622,2.138,11.1905,1319,2891.57
18354,-2.1751,-1.6915,12.5995,1305,2891.57
18359,-3.6571,1.3072,9.7683,1305,2891.57
18364,1.5897,3.4081,9.7552,1305,2891.15
18369,1.3024,2.7031,10.8661,1316,2891.15
18374,-1.6628,-1.3408,12.633,1303,2891.15
18379,-4.2425,0.7266,10.3394,1312,2891.15
18384,1.2055,3.1448,9.5002,1305,2891.43
18389,1.9573,3.2944,10.5896,1307,2891.43
18394,-1.5048,-0.583,12.5049,1305,2891.43
18399,-4.4221,0.1233,10.9642,1308,2891.43
18404,0.6859,2.8922,9.1985,1315,2890.87
18409,2.0842,3.7326,10.3693,1306,2890.87
18414,-1.6221,0.146,12.3122,1305,2890.87
18419,-4.1815,-0.48,11.5999,1310,2890.87
18424,-0.0946,2.6659,9.0812,1305,2890.87
18429,1.9896,3.984,10.2843,1309,2890.87
18434,-1.737,0.8033,11.9794,1318,2890.87
18439,-3.7565,-1.0846,11.9938,1309,2890.87
18444,-1.063,2.3523,8.9088,1307,2891.15
18449,1.9046,4.0103,10.1251,1318,2891.15
18454,-1.4832,1.2665,11.6179,1309,2891.15
18459,-3.207,-1.4557,12.3074,1309,2891.15
18464,-2.0842,2.0099,9.2057,1310,2890.87
18469,1.7921,3.8858,10.1023,1315,2890.87
18474,-0.6716,1.7334,11.4036,1305,2890.87
18479,-2.5821,-1.6831,12.5229,1311,2890.87
18484,-3.1508,1.5933,9.4954,1309,2891.43
18489,1.7119,3.6356,9.8809,1303,2891.43
18494,0.5938,2.3595,11.0636,1308,2891.43
18499,-1.9908,-1.506,12.6402,1309,2891.43
18504,-3.9133,1.1444,10.0533,1316,2891.43
18509,1.4688,3.3579,9.6343,1304,2891.15
18514,1.6484,2.9066,10.7667,1301,2891.15
18519,-1.5598,-1.063,12.4965,1308,2891.15
18524,-4.3479,0.5291,10.5884,1305,2891.15
18529,1.0714,2.9963,9.3158,1305,2891.57
18534,2.1057,3.4512,10.586,1307,2891.57
18539,-1.4664,-0.3807,12.4558,1311,2891.57
18544,-4.3323,-0.1233,11.1941,1309,2891.57
18549,0.4058,2.7569,9.1375,1315,2891.01
18554,2.0351,3.814,10.386,1311,2891.01
18559,-1.634,0.3148,12.202,1307,2891.01
18564,-4.1168,-0.6716,11.7376,1317,2891.01
18569,-0.4178,2.5319,9.0309,1310,2890.45
18574,1.9597,4.0701,10.2627,1310,2890.45
18579,-1.7933,0.9828,11.9423,1311,2890.45
18584,-3.6129,-1.1887,12.123,1311,2890.45
18589,-1.4257,2.2434,9.0513,1309,2890.31
18594,1.8747,4.0115,10.1742,1315,2890.31
18599,-1.2905,1.4449,11.5472,1311,2890.31
18604,-2.9616,-1.5514,12.4451,1319,2890.31
18609,-2.4816,1.8783,9.2548,1307,2890.03
18614,1.8423,3.8044,9.9946,1307,2890.03
18619,-0.1688,1.9537,11.2755,1311,2890.03
18624,-2.2984,-1.6676,12.5492,1305,2890.03
18629,-3.4345,1.391,9.645,1311,2890.03
18634,1.6364,3.48,9.8366,1316,2890.03
18639,0.9708,2.5223,10.8601,1317,2890.03
18644,-1.8256,-1.4186,12.6414,1305,2890.03
18649,-4.1132,0.8954,10.2364,1319,2890.03
18654,1.3036,3.2561,9.5876,1305,2890.17
18659,1.7897,3.158,10.6757,1311,2890.17
18664,-1.5347,-0.8009,12.548,1311,2890.17
18669,-4.3874,0.3316,10.8864,1309,2890.17
18674,0.893,2.9712,9.2979,1309,2890.31
18679,2.1392,3.6428,10.4495,1317,2890.31
18684,-1.5347,-0.0611,12.3864,1311,2890.31
18689,-4.2162,-0.3747,11.4383,1311,2890.31
18694,0.1532,2.6875,8.9986,1315,2890.45
18699,2.0734,3.9157,10.3106,1315,2890.45
18704,-1.6975,0.5638,12.0704,1307,2890.45
18709,-3.9301,-0.9325,11.9171,1315,2890.45
18714,-0.8021,2.3774,8.9651,1305,2890.73
18719,1.8794,4.0043,10.1897,1311,2890.73
18724,-1.6484,1.136,11.8705,1312,2890.73
18729,-3.4201,-1.3874,12.2751,1309,2890.73
18734,-1.7789,2.144,9.0561,1311,2890.73
18739,1.7933,3.9169,10.064,1319,2890.73
18744,-1.0187,1.6628,11.5628,1307,2890.73
18749,-2.7402,-1.6149,12.4726,1319,2890.73
18754,-2.8467,1.798,9.3518,1318,2889.9
18759,1.7406,3.7038,9.9766,1307,2889.9
18764,0.2873,2.1691,11.1259,1323,2889.9
18769,-2.1045,-1.6029,12.5336,1309,2889.9
18774,-3.6883,1.2773,9.7983,1309,2889.9
18779,1.5682,3.4153,9.7252,1311,2891.15
18784,1.4234,2.745,10.8386,1310,2891.15
18789,-1.6496,-1.2617,12.5791,1307,2891.15
18794,-4.2485,0.6404,10.422,1317,2891.15
18799,1.1636,3.1232,9.4379,1320,2890.59
18804,1.9393,3.3124,10.6135,1307,2890.59
18809,-1.4557,-0.5854,12.4858,1305,2890.59
18814,-4.4065,0.0431,11.0109,1311,2890.59
18819,0.5962,2.8706,9.2261,1319,2890.73
18824,2.071,3.7948,10.4315,1309,2890.73
18829,-1.6257,0.2119,12.2823,1306,2890.73
18834,-4.1994,-0.4908,11.57,1311,2890.73
18839,-0.1305,2.6456,8.9998,1309,2890.59
18844,1.98,4.0175,10.2292,1305,2890.59
18849,-1.7825,0.7961,11.977,1315,2890.59
18854,-3.6847,-1.081,12.0883,1315,2890.59
18859,-1.0918,2.32,9.0142,1309,2890.73
18864,1.9273,4.0019,10.143,1317,2890.73
18869,-1.4317,1.3024,11.6095,1311,2890.73
18874,-3.0694,-1.5718,12.3289,1309,2890.73
18879,-2.1787,1.9632,9.1051,1317,2890.45
18884,1.798,3.8475,10.0533,1315,2890.45
18889,-0.5495,1.7585,11.3353,1311,2890.45
18894,-2.5606,-1.6759,12.5588,1311,2890.45
18899,-3.2058,1.5826,9.5589,1311,2890.31
18904,1.64,3.5865,9.8629,1309,2890.31
18909,0.65,2.4026,11.06,1311,2890.31
18914,-1.9932,-1.5179,12.6282,1304,2890.31
18919,-3.9325,1.1229,10.0185,1317,2890.31
18924,1.4676,3.3351,9.5936,1311,2891.43
18929,1.7202,2.9796,10.7476,1306,2891.43
18934,-1.5167,-0.978,12.5755,1308,2891.43
18939,-4.3562,0.5112,10.6518,1310,2891.43
18944,1.0199,2.9928,9.3278,1309,2890.87
18949,2.15,3.4668,10.4651,1311,2890.87
18954,-1.4222,-0.3017,12.4558,1309,2890.87
18959,-4.3,-0.1867,11.2073,1309,2890.87
18964,0.3627,2.709,9.1123,1316,2890.73
18969,2.0506,3.8116,10.3549,1308,2890.73
18974,-1.6448,0.3687,12.2236,1302,2890.73
18979,-4.0797,-0.7721,11.746,1315,2890.73
18984,-0.5363,2.5055,9.0046,1311,2890.59
18989,1.8926,4.0462,10.2268,1311,2890.59
18994,-1.7633,1.0271,11.9782,1317,2890.59
18999,-3.5386,-1.2629,12.1602,1308,2890.59
19004,-1.5036,2.2685,9.0285,1311,2890.31
19009,1.8783,4.0378,10.137,1315,2890.31
19014,-1.1732,1.4976,11.582,1315,2890.31
19019,-2.8623,-1.5526,12.3864,1318,2890.31
19024,-2.5666,1.8471,9.2081,1317,2889.9
19029,1.8232,3.7625,10.0341,1305,2889.9
19034,-0.0826,1.98,11.1989,1323,2889.9
19039,-2.2386,-1.7035,12.5636,1307,2889.9
19044,-3.5063,1.3503,9.6594,1311,2889.9
19049,1.6041,3.5171,9.7743,1311,2891.15
19054,1.0798,2.5474,10.8996,1321,2891.15
19059,-1.8208,-1.4293,12.5564,1307,2891.15
19064,-4.1384,0.8499,10.2412,1317,2891.15
19069,1.2689,3.2094,9.5792,1308,2890.45
19074,1.7478,3.1939,10.7344,1309,2890.45
19079,-1.549,-0.7829,12.5552,1310,2890.45
19084,-4.3658,0.2909,10.89,1311,2890.45
19089,0.7757,2.9257,9.2596,1319,2890.45
19094,2.0782,3.717,10.4651,1311,2890.45
19099,-1.5311,-0.0012,12.3074,1305,2890.45
19104,-4.2066,-0.3316,11.4742,1309,2890.45
19109,0.1041,2.7007,9.0333,1307,2890.59
19114,2.0686,3.9444,10.2639,1311,2890.59
19119,-1.6819,0.6225,12.0799,1319,2890.59
19124,-3.8056,-0.9744,11.8776,1306,2890.59
19129,-0.8404,2.3451,8.9208,1308,2890.73
19134,1.9429,3.978,10.1981,1317,2890.73
19139,-1.6257,1.2115,11.8166,1311,2890.73
19144,-3.3627,-1.4006,12.2978,1309,2890.73
19149,-1.913,2.0411,9.0656,1315,2890.31
19154,1.7538,3.9229,10.0533,1312,2890.31
19159,-0.917,1.7573,11.5377,1312,2890.31
19164,-2.7629,-1.6652,12.4522,1311,2890.31
19169,-2.9521,1.7107,9.3458,1317,2891.43
19174,1.7059,3.7134,9.8964,1308,2891.43
19179,0.3244,2.2649,11.2324,1319,2891.43
19184,-2.0626,-1.5431,12.548,1307,2891.43
19189,-3.7876,1.2629,9.8545,1316,2891.43
19194,1.5598,3.3854,9.6965,1310,2891.01
19199,1.4832,2.8299,10.8745,1309,2891.01
19204,-1.561,-1.1732,12.5911,1304,2891.01
19209,-4.2629,0.6033,10.3418,1304,2891.01
19214,1.1516,3.0634,9.3757,1309,2891.29
19219,2.0063,3.3423,10.6961,1308,2891.29
19224,-1.4545,-0.5148,12.4906,1310,2891.29
19229,-4.4161,0.0096,11.0504,1311,2891.29
19234,0.498,2.8036,9.1794,1315,2891.29
19239,1.992,3.7673,10.4088,1315,2891.29
19244,-1.6544,0.2251,12.3242,1305,2891.29
19249,-4.1539,-0.5818,11.6047,1316,2891.29
19254,-0.2562,2.6145,9.0082,1315,2891.43
19259,1.9824,4.033,10.2795,1309,2891.43
19264,-1.7681,0.9278,12.0632,1311,2891.43
19269,-3.6464,-1.069,12.0859,1311,2891.43
19274,-1.1684,2.2625,8.9423,1309,2891.43
19279,1.9632,4.0318,10.1263,1315,2891.43
19284,-1.4712,1.3623,11.7244,1311,2891.43
19289,-3.0574,-1.5095,12.4091,1315,2891.43
19294,-2.2482,1.9225,9.1327,1317,2891.29
19299,1.8244,3.7888,9.9886,1311,2891.29
19304,-0.5255,1.8004,11.4275,1319,2891.29
19309,-2.478,-1.719,12.4989,1307,2891.29
19314,-3.2657,1.5263,9.5301,1315,2891.29
19319,1.6484,3.5554,9.7791,1317,2891.29
19324,0.6608,2.4529,11.139,1311,2891.29
19329,-1.9489,-1.5538,12.5935,1305,2891.29
19334,-3.9923,1.0822,10.0341,1315,2891.29
19339,1.397,3.31,9.5409,1312,2891.43
19344,1.7059,3.0502,10.8098,1305,2891.43
19349,-1.5455,-0.972,12.5456,1309,2891.43
19354,-4.312,0.4992,10.665,1308,2891.43
19359,1.0259,3.0047,9.2847,1307,2891.84
19364,2.15,3.5721,10.5644,1309,2891.84
19369,-1.4365,-0.3232,12.4654,1309,2891.84
19374,-4.2737,-0.2035,11.2108,1311,2891.84
19379,0.3843,2.7198,9.0297,1312,2891.71
19384,2.0782,3.8415,10.3777,1311,2891.71
19389,-1.64,0.4118,12.2846,1305,2891.71
19394,-4.0558,-0.7805,11.7687,1312,2891.71
19399,-0.5064,2.4768,8.9615,1307,2891.71
19404,1.8818,4.0366,10.2747,1309,2891.71
19409,-1.7992,1.0127,12.0141,1309,2891.71
19414,-3.5781,-1.2785,12.1613,1308,2891.71
19419,-1.4916,2.2098,8.9483,1309,2891.84
19424,1.822,3.9648,10.1059,1311,2891.84
19429,-1.2222,1.5359,11.6849,1309,2891.84
19434,-2.8946,-1.5706,12.4798,1319,2891.84
19439,-2.5486,1.8735,9.1854,1311,2891.84
19444,1.8304,3.802,9.9707,1304,2891.84
19449,-0.1053,1.9848,11.2683,1320,2891.84
19454,-2.1991,-1.7107,12.4798,1307,2891.84
19459,-3.4656,1.3575,9.6211,1307,2891.84
19464,1.6855,3.4967,9.7899,1311,2891.98
19469,1.081,2.5426,11.0373,1317,2891.98
19474,-1.7741,-1.4329,12.6294,1305,2891.98
19479,-4.1204,0.8547,10.2472,1317,2891.98
19484,1.3252,3.1999,9.4499,1307,2891.84
19489,1.7921,3.1484,10.7679,1307,2891.84
19494,-1.5167,-0.8356,12.5301,1305,2891.84
19499,-4.3551,0.3196,10.8529,1307,2891.84
19504,0.7949,2.9078,9.2368,1312,2891.84
19509,2.0758,3.699,10.574,1309,2891.84
19514,-1.5311,-0.0371,12.4403,1305,2891.84
19519,-4.2629,-0.2717,11.4706,1309,2891.84
19524,0.1568,2.6815,8.9926,1309,2892.4
19529,2.1165,3.9528,10.2615,1307,2892.4
19534,-1.7346,0.6261,12.147,1315,2892.4
19539,-3.869,-0.8679,11.8992,1309,2892.4
19544,-0.7254,2.3894,8.8885,1309,2892.54
19549,1.9261,3.9612,10.1658,1318,2892.54
19554,-1.6879,1.1768,11.9507,1309,2892.54
19559,-3.3519,-1.4006,12.1242,1307,2892.54
19564,-1.804,2.0506,9.0597,1311,2892.12
19569,1.8232,3.8678,10.0952,1317,2892.12
19574,-0.9744,1.6496,11.564,1312,2892.12
19579,-2.8695,-1.6747,12.475,1315,2892.12
19584,-2.794,1.7885,9.3661,1316,2892.96
19589,1.7406,3.6907,9.9132,1300,2892.96
19594,0.1832,2.2386,11.3042,1318,2892.96
19599,-2.2098,-1.5562,12.5133,1310,2892.96
19604,-3.6823,1.2989,9.7659,1309,2892.96
19609,1.5862,3.4249,9.7336,1309,2892.82
19614,1.3431,2.7557,10.9319,1309,2892.82
19619,-1.5945,-1.2246,12.5552,1307,2892.82
19624,-4.2353,0.7314,10.3046,1311,2892.82
19629,1.2258,3.1591,9.4475,1309,2892.96
19634,1.9704,3.2992,10.6434,1309,2892.96
19639,-1.3982,-0.6153,12.5073,1305,2892.96
19644,-4.3814,0.0778,10.9619,1307,2892.96
19649,0.6752,2.8407,9.2021,1318,2892.68
19654,2.0446,3.7194,10.4758,1311,2892.68
19659,-1.5622,0.1233,12.3086,1303,2892.68
19664,-4.2593,-0.4944,11.5951,1315,2892.68
19669,-0.0754,2.5881,9.0142,1311,2892.54
19674,1.9788,3.9828,10.2568,1305,2892.54
19679,-1.7669,0.7733,12.0799,1315,2892.54
19684,-3.8427,-0.9469,12.0321,1311,2892.54
19689,-0.9864,2.3511,8.9112,1311,2892.82
19694,1.974,4.0618,10.2017,1319,2892.82
19699,-1.579,1.2522,11.8226,1309,2892.82
19704,-3.2274,-1.4389,12.311,1311,2892.82
19709,-1.9932,2.0231,9.0788,1318,2892.82
19714,1.8998,3.887,10.0461,1311,2892.82
19719,-0.7554,1.7657,11.4706,1315,2892.82
19724,-2.6133,-1.7095,12.5289,1309,2892.82
19729,-2.9999,1.6221,9.4044,1315,2893.1
19734,1.6999,3.5997,9.8174,1308,2893.1
19739,0.4202,2.3008,11.1965,1311,2893.1
19744,-2.0865,-1.6496,12.5121,1307,2893.1
19749,-3.8439,1.2115,9.8749,1308,2893.1
19754,1.5407,3.3818,9.6462,1307,2893.1
19759,1.4593,2.9209,10.975,1309,2893.1
19764,-1.6065,-1.16,12.5528,1309,2893.1
19769,-4.2569,0.6692,10.5309,1309,2893.1
19774,1.1732,3.1101,9.3613,1307,2893.1
19779,2.0279,3.4429,10.6219,1310,2893.1
19784,-1.4676,-0.4645,12.5109,1311,2893.1
19789,-4.3742,0.0144,11.0576,1310,2893.1
19794,0.5614,2.8587,9.1171,1303,2893.52
19799,2.1296,3.7757,10.392,1309,2893.52
19804,-1.5718,0.2717,12.3409,1305,2893.52
19809,-4.1575,-0.6177,11.5592,1311,2893.52
19814,-0.2095,2.5666,8.9795,1311,2893.8
19819,1.9884,3.9863,10.2639,1315,2893.8
19824,-1.7154,0.8368,12.135,1317,2893.8
19829,-3.7924,-1.16,12.0345,1311,2893.8
19834,-1.1624,2.3224,8.9292,1309,2893.94
19839,1.8519,4.0259,10.2137,1309,2893.94
19844,-1.4868,1.3707,11.8166,1310,2893.94
19849,-3.1879,-1.5323,12.3888,1311,2893.94
19854,-2.2134,1.9836,9.1183,1315,2893.8
19859,1.8471,3.8738,10.0461,1310,2893.8
19864,-0.5519,1.8435,11.473,1321,2893.8
19869,-2.5307,-1.6532,12.5516,1305,2893.8
19874,-3.1687,1.6412,9.4715,1312,2893.8
19879,1.7561,3.6176,9.8019,1319,2893.38
19884,0.668,2.3619,11.1498,1319,2893.38
19889,-1.9345,-1.5275,12.5672,1304,2893.38
19894,-3.9169,1.1205,9.9671,1319,2893.38
19899,1.5083,3.2717,9.6343,1309,2893.38
19904,1.6113,2.891,10.902,1307,2893.38
19909,-1.5419,-1.0894,12.5791,1309,2893.38
19914,-4.3407,0.5411,10.5991,1309,2893.38
19919,1.0247,3.0311,9.3122,1309,2892.96
19924,1.998,3.4584,10.6482,1311,2892.96
19929,-1.4868,-0.3687,12.4151,1311,2892.96
19934,-4.3898,-0.0467,11.1833,1310,2892.96
19939,0.4142,2.7569,9.0956,1316,2892.82
19944,2.0806,3.8595,10.422,1315,2892.82
19949,-1.6544,0.3675,12.2703,1307,2892.82
19954,-4.1013,-0.6081,11.7831,1316,2892.82
19959,-0.3675,2.5127,8.9184,1315,2892.82
19964,2.0147,4.0103,10.2316,1307,2892.82
19969,-1.7669,0.9792,12.0105,1311,2892.82
19974,-3.5566,-1.2294,12.1171,1303,2892.82
19979,-1.3132,2.2051,8.904,1310,2893.38
19984,1.8711,3.9014,10.1382,1315,2893.38
19989,-1.3443,1.4425,11.6981,1308,2893.38
19994,-3.037,-1.5814,12.3194,1317,2893.38
19999,-2.3774,1.9022,9.2165,1305,2893.66
20004,1.7849,3.7625,10.0628,1309,2893.66
20009,-0.3041,1.9393,11.473,1326,2893.66
20014,-2.4828,-1.7226,12.566,1305,2893.66
20019,-3.3674,1.5203,9.56,1309,2893.66
20024,1.6771,3.6009,9.821,1312,2894.5
20029,0.8691,2.4972,11.0528,1315,2894.5
20034,-1.8735,-1.4126,12.6055,1307,2894.5
20039,-4.0294,1.0187,10.0808,1319,2894.5
20044,1.4581,3.2896,9.6043,1309,2894.36
20049,1.7454,3.0167,10.7595,1307,2894.36
20054,-1.4916,-0.9301,12.5348,1312,2894.36
20059,-4.3682,0.4214,10.6853,1311,2894.36
20064,0.9732,2.988,9.2703,1311,2894.36
20069,2.1368,3.5099,10.5572,1310,2894.36
20074,-1.4605,-0.2442,12.4008,1309,2894.36
20079,-4.3323,-0.2239,11.2827,1311,2894.36
20084,0.2969,2.6899,9.0261,1309,2894.36
20089,2.0339,3.8834,10.3226,1309,2894.36
20094,-1.719,0.3938,12.2356,1305,2894.36
20099,-4.063,-0.7685,11.7531,1308,2894.36
20104,-0.5351,2.4313,8.8873,1311,2894.64
20109,1.9944,4.0282,10.2101,1315,2894.64
20114,-1.7837,1.0283,12.0009,1310,2894.64
20119,-3.5841,-1.2103,12.2439,1307,2894.64
20124,-1.4545,2.2242,8.9579,1305,2894.64
20129,1.9381,4.0019,10.0987,1315,2894.64
20134,-1.3096,1.5287,11.6873,1311,2894.64
20139,-2.9281,-1.5909,12.3912,1319,2894.64
20144,-2.4888,1.8962,9.2177,1316,2894.64
20149,1.8579,3.7769,9.9551,1308,2894.64
20154,-0.1939,2.0231,11.4144,1321,2894.64
20159,-2.381,-1.6676,12.5025,1309,2894.64
20164,-3.4046,1.4222,9.5696,1311,2894.64
20169,1.6903,3.4919,9.7217,1331,2894.5
20174,0.9685,2.5474,11.0935,1319,2894.5
20179,-1.8675,-1.5203,12.56,1307,2894.5
20184,-4.112,0.9278,10.1131,1309,2894.5
20189,1.3862,3.213,9.5565,1311,2894.5
20194,1.7538,3.1077,10.7955,1309,2894.5
20199,-1.5371,-0.8739,12.5947,1304,2894.5
20204,-4.3826,0.4381,10.744,1311,2894.5
20209,0.9541,2.9844,9.3051,1318,2894.5
20214,2.1117,3.5997,10.5022,1303,2894.5
20219,-1.494,-0.1688,12.4319,1305,2894.5
20224,-4.3263,-0.2346,11.3437,1311,2894.5
20229,0.2933,2.7222,9.0644,1307,2894.91
20234,2.0794,3.9025,10.3322,1311,2894.91
20239,-1.6891,0.5112,12.2439,1317,2894.91
20244,-4.0007,-0.8404,11.8022,1310,2894.91
20249,-0.595,2.4337,8.8873,1309,2894.64
20254,1.9656,4.0043,10.2137,1312,2894.64
20259,-1.6999,1.0582,11.9219,1315,2894.64
20264,-3.565,-1.3252,12.2332,1307,2894.64
20269,-1.6305,2.217,8.9771,1315,2894.77
20274,1.8256,3.9792,10.149,1317,2894.77
20279,-1.2258,1.5335,11.6418,1307,2894.77
20284,-2.9365,-1.6029,12.4463,1320,2894.77
20289,-2.6396,1.8771,9.1997,1318,2894.64
20294,1.816,3.8116,9.9659,1311,2894.64
20299,-0.1173,2.0051,11.3557,1321,2894.64
20304,-2.247,-1.5909,12.5887,1308,2894.64
20309,-3.5087,1.4712,9.6845,1311,2894.64
20314,1.6915,3.5374,9.6833,1309,2894.36
20319,1.1109,2.5738,11.0241,1310,2894.36
20324,-1.7753,-1.3946,12.5444,1319,2894.36
20329,-4.0881,0.9373,10.1742,1312,2894.36
20334,1.3803,3.1723,9.4595,1311,2894.64
20339,1.8531,3.0945,10.7715,1315,2894.64
20344,-1.5024,-0.8763,12.5372,1307,2894.64
20349,-4.3826,0.2873,10.7739,1315,2894.64
20354,0.8392,2.9221,9.1506,1317,2894.22
20359,2.059,3.6284,10.5117,1309,2894.22
20364,-1.5479,-0.0826,12.384,1305,2894.22
20369,-4.367,-0.2682,11.3629,1311,2894.22
20374,0.2155,2.6887,8.995,1311,2894.22
20379,2.0351,3.9349,10.2831,1309,2894.22
20384,-1.7298,0.5782,12.2703,1312,2894.22
20389,-3.9804,-0.8428,11.8609,1315,2894.22
20394,-0.6967,2.4924,8.9196,1309,2893.94
20399,1.9752,4.0558,10.1813,1319,2893.94
20404,-1.7298,1.148,12.0261,1317,2893.94
20409,-3.3902,-1.3503,12.2212,1307,2893.94
20414,-1.6723,2.1308,8.9435,1317,2894.08
20419,1.8651,3.8774,10.0676,1315,2894.08
20424,-1.0738,1.5897,11.5724,1316,2894.08
20429,-2.8192,-1.6831,12.3672,1315,2894.08
20434,-2.7497,1.7142,9.2524,1319,2894.22
20439,1.7573,3.6871,9.9527,1311,2894.22
20444,0.0838,2.0937,11.3246,1317,2894.22
20449,-2.2541,-1.6723,12.572,1310,2894.22
20454,-3.6081,1.3396,9.742,1315,2894.22
20459,1.6352,3.4752,9.815,1310,2894.22
20464,1.1432,2.66,11.0085,1309,2894.22
20469,-1.7657,-1.3204,12.5863,1305,2894.22
20474,-4.1958,0.8715,10.3358,1309,2894.22
20479,1.3168,3.1951,9.4332,1307,2894.64
20484,1.9249,3.2214,10.7631,1311,2894.64
20489,-1.4557,-0.7015,12.5157,1311,2894.64
20494,-4.3922,0.2179,10.8793,1315,2894.64
20499,0.7997,2.8982,9.0848,1318,2894.64
20504,2.1632,3.6571,10.5093,1309,2894.64
20509,-1.5107,-0.0335,12.3529,1307,2894.64
20514,-4.306,-0.3998,11.4503,1312,2894.64
20519,0.085,2.6013,8.9962,1315,2894.08
20524,2.0267,3.8894,10.3382,1309,2894.08
20529,-1.7298,0.6141,12.2176,1304,2894.08
20534,-3.9672,-0.8906,11.8788,1311,2894.08
20539,-0.8296,2.3846,8.9148,1315,2894.77
20544,1.9644,4.0666,10.1766,1321,2894.77
20549,-1.7154,1.2234,11.9459,1309,2894.77
20554,-3.4465,-1.3204,12.287,1311,2894.77
20559,-1.7968,2.138,8.9711,1315,2894.36
20564,1.9477,3.9708,10.0365,1317,2894.36
20569,-0.9972,1.6735,11.5951,1317,2894.36
20574,-2.7545,-1.6305,12.4211,1311,2894.36
20579,-2.8132,1.7897,9.2883,1318,2894.64
20584,1.8208,3.723,9.8869,1309,2894.64
20589,0.2143,2.1715,11.3485,1315,2894.64
20594,-2.1739,-1.6843,12.5755,1307,2894.64
20599,-3.6524,1.3001,9.7025,1319,2894.64
20604,1.6005,3.3986,9.6953,1309,2894.64
20609,1.2486,2.7114,11.0049,1309,2894.64
20614,-1.7214,-1.336,12.5887,1318,2894.64
20619,-4.2629,0.7661,10.2759,1309,2894.64
20624,1.2809,3.1723,9.4559,1311,2894.5
20629,1.9166,3.2848,10.7009,1307,2894.5
20634,-1.5359,-0.656,12.4965,1308,2894.5
20639,-4.3958,0.2011,10.8888,1311,2894.5
20644,0.741,2.9281,9.2057,1319,2894.64
20649,2.1249,3.6955,10.4866,1309,2894.64
20654,-1.6077,0.0814,12.3864,1305,2894.64
20659,-4.2222,-0.3903,11.4898,1320,2894.64
20664,0.0539,2.6157,8.9435,1317,2894.77
20669,2.1153,3.9349,10.2987,1312,2894.77
20674,-1.7262,0.6883,12.1446,1307,2894.77
20679,-3.8283,-0.9948,11.898,1311,2894.77
20684,-0.8619,2.3343,8.8466,1311,2895.05
20689,1.962,3.9624,10.167,1317,2895.05
20694,-1.6281,1.1887,11.8776,1311,2895.05
20699,-3.401,-1.4413,12.2595,1316,2895.05
20704,-1.9429,2.0925,9.0106,1315,2895.47
20709,1.828,3.9193,10.0509,1311,2895.47
20714,-0.9445,1.6867,11.5855,1317,2895.47
20719,-2.7713,-1.6652,12.4917,1309,2895.47
20724,-2.8934,1.7861,9.3925,1315,2895.05
20729,1.7933,3.711,9.9096,1312,2895.05
20734,0.2562,2.1883,11.3342,1309,2895.05
20739,-2.156,-1.6089,12.5899,1308,2895.05
20744,-3.6859,1.3048,9.7755,1319,2895.05
20749,1.6113,3.3842,9.59,1309,2896.17
20754,1.4365,2.733,11.0061,1306,2896.17
20759,-1.6652,-1.2498,12.5696,1315,2896.17
20764,-4.1779,0.7254,10.3872,1310,2896.17
20769,1.2426,3.0478,9.4116,1307,2895.33
20774,1.986,3.2477,10.7536,1316,2895.33
20779,-1.4401,-0.6907,12.5061,1309,2895.33
20784,-4.4101,0.1389,10.8864,1310,2895.33
20789,0.6404,2.8216,9.1482,1316,2895.19
20794,2.0578,3.723,10.489,1311,2895.19
20799,-1.6029,0.0455,12.408,1303,2895.19
20804,-4.2916,-0.4034,11.5341,1317,2895.19
20809,-0.0048,2.6576,8.9735,1318,2895.61
20814,2.0183,4.0462,10.3082,1311,2895.61
20819,-1.7669,0.7673,12.1769,1317,2895.61
20824,-3.8451,-0.9242,11.9662,1317,2895.61
20829,-0.893,2.3727,8.8693,1311,2895.75
20834,1.9836,4.045,10.1825,1312,2895.75
20839,-1.5838,1.2617,11.8884,1316,2895.75
20844,-3.2657,-1.4269,12.3002,1316,2895.75
20849,-1.8998,2.0566,9.0321,1317,2895.61
20854,1.919,3.8666,10.1155,1311,2895.61
20859,-0.7889,1.6735,11.4982,1323,2895.61
20864,-2.6731,-1.7442,12.4546,1305,2895.61
20869,-2.9365,1.579,9.3099,1317,2895.61
20874,1.7561,3.6021,9.9683,1317,2895.47
20879,0.2586,2.2051,11.2551,1319,2895.47
20884,-2.2003,-1.6532,12.5779,1305,2895.47
20889,-3.7804,1.2737,9.8641,1319,2895.47
20894,1.5742,3.4058,9.6726,1309,2895.47
20899,1.33,2.8048,10.9559,1301,2895.47
20904,-1.7011,-1.2186,12.5468,1315,2895.47
20909,-4.2772,0.7685,10.3789,1309,2895.47
20914,1.239,3.1053,9.4068,1309,2895.61
20919,2.059,3.3351,10.6686,1311,2895.61
20924,-1.4377,-0.6177,12.5181,1311,2895.61
20929,-4.3946,0.1472,10.9822,1303,2895.61
20934,0.741,2.8,9.1327,1317,2896.17
20939,2.2122,3.6943,10.422,1309,2896.17
20944,-1.5131,0.0814,12.3565,1305,2896.17
20949,-4.2665,-0.5291,11.552,1317,2896.17
20954,-0.0611,2.5845,8.9591,1317,2896.03
20959,2.0171,3.8726,10.2723,1311,2896.03
20964,-1.7573,0.6716,12.22,1317,2896.03
20969,-3.9768,-0.9589,11.9602,1315,2896.03
20974,-0.9637,2.3451,8.9136,1311,2896.03
20979,1.9058,4.0007,10.1897,1315,2896.03
20984,-1.6352,1.2845,11.9734,1312,2896.03
20989,-3.3746,-1.3982,12.3038,1320,2896.03
20994,-1.9489,2.0842,9.0166,1315,2895.47
20999,1.9118,3.9157,10.0305,1311,2895.47
21004,-0.832,1.7142,11.5748,1321,2895.47
21009,-2.6839,-1.6616,12.4953,1309,2895.47
21014,-2.9197,1.7095,9.2883,1317,2895.47
21019,1.8364,3.6619,9.8964,1318,2896.31
21024,0.3831,2.1452,11.2252,1320,2896.31
21029,-2.1153,-1.658,12.5624,1307,2896.31
21034,-3.7589,1.2366,9.754,1323,2896.31
21039,1.5921,3.3375,9.651,1310,2895.75
21044,1.385,2.7258,10.9547,1309,2895.75
21049,-1.7573,-1.2989,12.5947,1309,2895.75
21054,-4.2976,0.7314,10.3992,1311,2895.75
21059,1.233,3.1196,9.4391,1305,2895.89
21064,1.9225,3.3722,10.6865,1315,2895.89
21069,-1.5323,-0.5602,12.536,1309,2895.89
21074,-4.4448,0.158,10.9882,1317,2895.89
21079,0.7063,2.8862,9.1315,1315,2895.75
21084,2.1679,3.796,10.4998,1316,2895.75
21089,-1.6017,0.17,12.3565,1308,2895.75
21094,-4.282,-0.407,11.5389,1319,2895.75
21099,0.0263,2.6276,8.9316,1311,2896.03
21104,2.1021,3.9756,10.319,1311,2896.03
21109,-1.7478,0.7422,12.0883,1311,2896.03
21114,-3.8152,-1.0415,11.9255,1326,2896.03
21119,-0.9625,2.2793,8.8286,1317,2895.89
21124,1.9417,3.966,10.1837,1309,2895.89
21129,-1.6017,1.2115,11.9088,1311,2895.89
21134,-3.3662,-1.4688,12.3002,1321,2895.89
21139,-1.9345,2.0782,9.0357,1305,2896.03
21144,1.8387,3.8511,10.0604,1311,2896.03
21149,-0.9637,1.7226,11.6131,1323,2896.03
21154,-2.7497,-1.6735,12.475,1307,2896.03
21159,-2.9808,1.7178,9.3613,1315,2896.03
21164,1.7681,3.6978,9.9204,1317,2895.89
21169,0.3292,2.2362,11.3138,1319,2895.89
21174,-2.1344,-1.5622,12.5995,1305,2895.89
21179,-3.717,1.2797,9.8138,1322,2895.89
21184,1.6759,3.3818,9.651,1311,2895.75
21189,1.47,2.7761,10.9343,1309,2895.75
21194,-1.6173,-1.2558,12.5277,1311,2895.75
21199,-4.2353,0.6692,10.386,1320,2895.75
21204,1.2127,3.0837,9.4188,1310,2896.31
21209,1.9728,3.2406,10.6781,1315,2896.31
21214,-1.4497,-0.6273,12.5348,1310,2896.31
21219,-4.446,0.0754,10.9104,1315,2896.31
21224,0.6728,2.8539,9.1363,1319,2896.31
21229,2.0997,3.7302,10.5129,1311,2896.31
21234,-1.6101,0.1269,12.4594,1309,2896.31
21239,-4.3515,-0.4214,11.558,1320,2896.31
21244,-0.0539,2.6145,9.0046,1316,2896.45
21249,2.0135,3.9959,10.3418,1311,2896.45
21254,-1.816,0.7626,12.1649,1316,2896.45
21259,-3.8762,-0.9194,12.0081,1315,2896.45
21264,-0.9074,2.3822,8.9388,1315,2896.31
21269,1.9752,4.0426,10.1897,1311,2896.31
21274,-1.6149,1.227,11.8405,1311,2896.31
21279,-3.2669,-1.4257,12.2942,1319,2896.31
21284,-1.8986,2.0518,9.001,1316,2896.45
21289,1.9477,3.8702,10.0377,1311,2896.45
21294,-0.7961,1.7035,11.5293,1323,2896.45
21299,-2.7629,-1.7561,12.4762,1311,2896.45
21304,-2.9532,1.6975,9.3757,1317,2896.45
21309,1.7526,3.6524,9.9012,1317,2896.17
21314,0.2765,2.217,11.2707,1318,2896.17
21319,-2.211,-1.664,12.5732,1305,2896.17
21324,-3.7541,1.2953,9.8641,1319,2896.17
21329,1.5754,3.4201,9.6498,1307,2896.31
21334,1.3336,2.8264,11.0109,1308,2896.31
21339,-1.7119,-1.2582,12.5815,1311,2896.31
21344,-4.2605,0.8092,10.3813,1311,2896.31
21349,1.2689,3.1196,9.3769,1311,2895.75
21354,2.065,3.3148,10.6865,1317,2895.75
21359,-1.4413,-0.6129,12.4822,1311,2895.75
21364,-4.3946,0.1616,10.9188,1309,2895.75
21369,0.7614,2.8395,9.1135,1317,2895.75
21374,2.1679,3.7098,10.4483,1315,2895.75
21379,-1.476,0.1101,12.4487,1308,2895.75
21384,-4.2533,-0.51,11.497,1315,2895.75
21389,-0.067,2.5654,8.9459,1316,2895.89
21394,2.0147,3.9444,10.319,1309,2895.89
21399,-1.743,0.7075,12.1901,1315,2895.89
21404,-3.9241,-1.0139,11.9614,1312,2895.89
21409,-0.9134,2.4325,8.9519,1315,2896.03
21414,1.962,4.0546,10.252,1310,2896.03
21419,-1.6879,1.2653,11.8633,1315,2896.03
21424,-3.371,-1.4042,12.2858,1308,2896.03
21429,-1.9237,2.0818,8.9783,1317,2895.33
21434,1.9046,3.9504,10.0365,1310,2895.33
21439,-0.8464,1.6819,11.4838,1325,2895.33
21444,-1.8471,-1.5119,12.6139,1309,2895.33
21449,-2.9209,1.7334,9.347,1317,2895.33
21454,1.4629,3.3124,9.6355,1317,2895.33
21459,1.6676,2.9568,10.8469,1323,2895.33
21464,-1.5634,-1.0247,12.5444,1307,2895.33
21469,-4.3802,0.4764,10.5824,1320,2895.33
21474,1.0618,2.9772,9.3003,1311,2895.33
21479,2.0446,3.5003,10.5967,1307,2895.33
21484,-1.5574,-0.3077,12.4786,1309,2895.33
21489,-4.4113,-0.0706,11.23,1311,2895.33
21494,0.4298,2.7402,9.074,1308,2895.33
21499,2.0913,3.8882,10.3669,1317,2895.33
21504,-1.6807,0.4154,12.2392,1309,2895.33
21509,-4.1204,-0.6512,11.7747,1315,2895.33
21514,-0.4094,2.5079,8.8921,1317,2895.47
21519,2.0638,4.0007,10.228,1315,2895.47
21524,-1.7945,0.9816,12.0847,1311,2895.47
21529,-3.6452,-1.1588,12.1051,1317,2895.47
21534,-1.3132,2.2146,8.9268,1316,2895.19
21539,1.9034,3.9229,10.1011,1317,2895.19
21544,-1.397,1.4329,11.716,1311,2895.19
21549,-3.0789,-1.6101,12.3792,1299,2895.19
21554,-2.3954,1.8986,9.1746,1317,2894.64
21559,1.8016,3.7721,10.0233,1319,2894.64
21564,-0.413,1.9225,11.5329,1311,2894.64
21569,-2.5175,-1.6688,12.5085,1320,2894.64
21574,-3.3375,1.5634,9.5313,1317,2893.94
21579,1.6484,3.5542,9.7923,1308,2893.94
21584,0.8416,2.5043,11.1426,1323,2893.94
21589,-1.8735,-1.4832,12.5612,1308,2893.94
21594,-4.0091,1.0247,10.0473,1309,2893.94
21599,1.4688,3.2633,9.5026,1319,2893.38
21604,1.7789,2.9796,10.8146,1315,2893.38
21609,-1.5024,-0.9625,12.5779,1309,2893.38
21614,-4.3359,0.4322,10.5656,1317,2893.38
21619,1.008,2.9748,9.2237,1311,2893.66
21624,2.0865,3.5207,10.5117,1308,2893.66
21629,-1.4988,-0.2538,12.4558,1311,2893.66
21634,-4.3383,-0.2191,11.2456,1311,2893.66
21639,0.2933,2.6923,9.0656,1317,2893.52
21644,2.0087,3.8475,10.4267,1311,2893.52
21649,-1.6867,0.4549,12.2463,1309,2893.52
21654,-4.0761,-0.7626,11.7831,1312,2893.52
21659,-0.5279,2.4864,8.9663,1311,2893.52
21664,1.9668,4.0378,10.2687,1315,2893.52
21669,-1.749,1.075,11.9722,1321,2893.52
21674,-3.5901,-1.245,12.1901,1311,2893.52
21679,-1.5083,2.1632,9.0034,1308,2893.8
21684,1.9537,3.9756,10.1394,1317,2893.8
21689,-1.2462,1.4617,11.6514,1311,2893.8
21694,-2.9173,-1.6137,12.4139,1311,2893.8
21699,-2.5295,1.8232,9.2165,1315,2893.66
21704,1.8304,3.7673,9.9587,1320,2893.66
21709,-0.1245,1.9932,11.3581,1311,2893.66
21714,-2.2889,-1.7262,12.5708,1319,2893.66
21719,-3.4668,1.4102,9.6235,1319,2893.66
21724,1.6855,3.4536,9.7767,1311,2893.66
21729,1.0726,2.5738,11.0636,1321,2893.66
21734,-1.8591,-1.4593,12.5827,1309,2893.66
21739,-4.0905,0.9816,10.2424,1315,2893.66
21744,1.3647,3.2202,9.499,1315,2893.8
21749,1.8292,3.1795,10.7739,1330,2893.8
21754,-1.5251,-0.8428,12.4894,1307,2893.8
21759,-4.3503,0.3986,10.7775,1321,2893.8
21764,0.9421,2.9425,9.2428,1311,2893.94
21769,2.1524,3.6009,10.4758,1309,2893.94
21774,-1.4844,-0.1413,12.4678,1307,2893.94
21779,-4.2952,-0.2502,11.3689,1311,2893.94
21784,0.2729,2.7031,8.9974,1317,2893.66
21789,2.1715,3.869,10.3334,1318,2893.66
21794,-1.6927,0.5543,12.2332,1309,2893.66
21799,-3.9756,-0.8428,11.7998,1323,2893.66
21804,-0.6297,2.4337,8.9112,1307,2893.38
21809,1.8938,3.9792,10.2101,1311,2893.38
21814,-1.7418,1.1037,12.0704,1323,2893.38
21819,-3.462,-1.3384,12.1721,1315,2893.38
21824,-1.6807,2.1404,8.9759,1315,2893.66
21829,1.8543,3.9528,10.064,1320,2893.66
21834,-1.1253,1.6364,11.6598,1309,2893.66
21839,-2.8647,-1.6137,12.4115,1315,2893.66
21844,-2.6983,1.8268,9.2548,1319,2892.96
21849,1.8806,3.7948,9.973,1319,2892.96
21854,0.0419,2.0973,11.2958,1317,2892.96
21859,-2.2254,-1.6544,12.5672,1321,2892.96
21864,-3.5542,1.3539,9.6498,1315,2892.54
21869,1.6604,3.4692,9.6786,1309,2892.54
21874,1.2139,2.648,10.9882,1319,2892.54
21879,-1.719,-1.3635,12.5468,1309,2892.54
21884,-4.1671,0.7937,10.2939,1318,2892.54
21889,1.3096,3.1556,9.4439,1305,2892.4
21894,1.9453,3.2585,10.7476,1309,2892.4
21899,-1.4904,-0.7554,12.5061,1309,2892.4
21904,-4.3838,0.2203,10.9235,1310,2892.4
21909,0.8009,2.8587,9.1901,1309,2893.1
21914,2.0722,3.711,10.5153,1311,2893.1
21919,-1.5239,0.0311,12.3924,1312,2893.1
21924,-4.3287,-0.3124,11.4802,1311,2893.1
21929,0.0467,2.6875,9.013,1311,2893.1
21934,2.0949,3.9313,10.2879,1317,2893.1
21939,-1.798,0.7003,12.153,1309,2893.1
21944,-3.9061,-0.9026,11.9483,1321,2893.1
21949,-0.8619,2.3643,8.928,1319,2892.96
21954,1.9513,4.0079,10.1526,1316,2892.96
21959,-1.6544,1.2462,11.8477,1321,2892.96
21964,-3.3507,-1.3898,12.2499,1317,2892.96
21969,-1.883,2.0027,9.0154,1310,2892.68
21974,1.8639,3.8547,10.0281,1317,2892.68
21979,-0.9122,1.6867,11.5568,1316,2892.68
21984,-2.7318,-1.7238,12.4582,1317,2892.68
21989,-2.9078,1.7083,9.3338,1316,2892.82
21994,1.7454,3.6476,9.9347,1317,2892.82
21999,0.2502,2.2122,11.236,1321,2892.82
22004,-2.15,-1.6281,12.5612,1309,2892.82
22009,-3.7673,1.2845,9.7779,1311,2892.26
22014,1.5407,3.4081,9.6857,1318,2892.26
22019,1.3767,2.8276,10.9104,1321,2892.26
22024,-1.6891,-1.2079,12.6354,1309,2892.26
22029,-4.2401,0.7063,10.3932,1319,2892.26
22034,1.2139,3.1328,9.4475,1311,2894.22
22039,1.9848,3.2956,10.671,1307,2894.22
22044,-1.4425,-0.5722,12.4894,1315,2894.22
22049,-4.4029,0.073,11.0181,1311,2894.22
22054,0.6704,2.8479,9.1614,1309,2893.8
22059,2.1404,3.7493,10.4387,1316,2893.8
22064,-1.585,0.1329,12.3565,1311,2893.8
22069,-4.203,-0.516,11.5412,1316,2893.8
22074,-0.1089,2.5786,8.9447,1319,2893.8
22079,1.9776,3.9193,10.3142,1315,2893.8
22084,-1.7813,0.7219,12.0428,1311,2893.8
22089,-3.8666,-1.0151,11.9914,1316,2893.8
22094,-1.081,2.326,8.9483,1317,2893.66
22099,1.8914,4.039,10.2065,1316,2893.66
22104,-1.5814,1.3192,11.8681,1317,2893.66
22109,-3.2645,-1.4461,12.3038,1315,2893.66
22114,-2.071,2.0279,9.0836,1317,2893.66
22119,1.9022,3.9061,10.0054,1315,2893.66
22124,-0.7254,1.7741,11.5412,1311,2893.66
22129,-2.624,-1.6759,12.4858,1324,2893.66
22134,-3.0622,1.6245,9.4427,1315,2893.52
22139,1.7897,3.6571,9.839,1308,2893.52
22144,0.5519,2.3343,11.2396,1323,2893.52
22149,-2.0063,-1.6448,12.4977,1307,2893.52
22154,-3.8379,1.1768,9.9467,1309,2893.52
22159,1.5359,3.3076,9.5888,1319,2893.24
22164,1.5419,2.8587,10.896,1317,2893.24
22169,-1.6819,-1.2115,12.5468,1307,2893.24
22174,-4.3096,0.6608,10.4986,1321,2893.24
22179,1.1325,3.0765,9.3577,1311,2893.52
22184,2.0566,3.4237,10.7045,1308,2893.52
22189,-1.5143,-0.4752,12.4642,1309,2893.52
22194,-4.3981,0.0036,11.078,1307,2893.52
22199,0.5339,2.7677,9.0932,1307,2893.38
22204,2.1368,3.8283,10.3777,1317,2893.38
22209,-1.6783,0.3148,12.3254,1312,2893.38
22214,-4.1432,-0.6093,11.6562,1315,2893.38
22219,-0.2334,2.5606,8.9555,1317,2893.38
22224,2.0195,3.9636,10.2843,1315,2893.38
22229,-1.7717,0.8751,12.0428,1311,2893.38
22234,-3.6943,-1.1049,12.0428,1317,2893.38
22239,-1.1959,2.2434,8.989,1311,2892.68
22244,1.8866,3.9456,10.2304,1315,2892.68
22249,-1.4605,1.3192,11.7172,1315,2892.68
22254,-3.1591,-1.5143,12.3505,1311,2892.68
22259,-2.2541,1.9549,9.147,1317,2892.4
22264,1.8411,3.8283,10.0317,1321,2892.4
22269,-0.4968,1.8747,11.4311,1311,2892.4
22274,-2.5247,-1.7011,12.4953,1321,2892.4
22279,-3.231,1.5574,9.5217,1318,2892.54
22284,1.7585,3.5949,9.8126,1310,2892.54
22289,0.723,2.3858,11.1414,1321,2892.54
22294,-1.8747,-1.5083,12.5432,1309,2892.54
22299,-3.948,1.0989,10.0329,1311,2892.54
22304,1.482,3.2944,9.6079,1318,2892.4
22309,1.7238,3.0095,10.8362,1317,2892.4
22314,-1.5407,-1.0139,12.5073,1308,2892.4
22319,-4.3431,0.4717,10.6686,1319,2892.4
22324,0.978,2.9724,9.3434,1309,2892.82
22329,2.0937,3.4776,10.5752,1311,2892.82
22334,-1.4832,-0.3196,12.3601,1309,2892.82
22339,-4.391,-0.1353,11.1917,1312,2892.82
22344,0.3747,2.7043,9.0561,1317,2892.68
22349,2.0818,3.8379,10.3142,1311,2892.68
22354,-1.7083,0.4082,12.2727,1309,2892.68
22359,-4.118,-0.7051,11.7615,1319,2892.68
22364,-0.4693,2.4912,8.9304,1311,2892.68
22369,1.998,4.0019,10.2316,1317,2892.68
22374,-1.7945,1.0403,12.044,1321,2892.68
22379,-3.5973,-1.1995,12.1171,1315,2892.68
22384,-1.4641,2.1979,9.0034,1310,2892.82
22389,1.9429,3.9444,10.143,1319,2892.82
22394,-1.3108,1.5275,11.7412,1317,2892.82
22399,-2.9568,-1.5778,12.3852,1316,2892.82
22404,-2.4648,1.8124,9.1435,1319,2891.98
22409,1.8375,3.7326,9.9778,1311,2891.98
22414,-0.1915,1.9333,11.3497,1311,2891.98
22419,-2.3774,-1.7549,12.4906,1311,2891.98
22424,-3.4237,1.4712,9.6247,1317,2893.24
22429,1.664,3.4728,9.8246,1311,2893.24
22434,0.9301,2.5343,11.072,1322,2893.24
22439,-1.8483,-1.4341,12.5779,1311,2893.24
22444,-4.0917,0.9301,10.1083,1319,2893.24
22449,1.3719,3.2286,9.5002,1311,2892.68
22454,1.7968,3.1041,10.7655,1309,2892.68
22459,-1.5323,-0.82,12.5791,1307,2892.68
22464,-4.391,0.3567,10.8182,1309,2892.68
22469,0.9529,2.9688,9.2093,1311,2893.1
22474,2.1512,3.632,10.5429,1312,2893.1
22479,-1.4796,-0.1281,12.3301,1311,2893.1
22484,-4.3012,-0.3005,11.3222,1303,2893.1
22489,0.2227,2.6923,9.0034,1319,2893.1
22494,2.1189,3.9085,10.3825,1315,2893.1
22499,-1.7047,0.498,12.159,1308,2893.1
22504,-4.0007,-0.8356,11.8537,1319,2893.1
22509,-0.7135,2.3667,8.922,1319,2893.1
22514,1.9166,4.0426,10.2161,1309,2893.1
22519,-1.7178,1.1157,11.8944,1319,2893.1
22524,-3.4836,-1.3192,12.1793,1317,2893.1
22529,-1.7621,2.1572,8.989,1317,2893.1
22534,1.8591,3.9504,10.0784,1319,2893.1
22539,-1.1468,1.5909,11.6538,1311,2893.1
22544,-2.8874,-1.5897,12.4415,1315,2893.1
22549,-2.7402,1.8112,9.2285,1317,2893.38
22554,1.828,3.7553,9.8976,1315,2893.38
22559,0.0527,2.0961,11.2731,1319,2893.38
22564,-2.1668,-1.6771,12.5636,1309,2893.38
22569,-3.6081,1.3587,9.6498,1315,2892.82
22574,1.6484,3.4069,9.6726,1311,2892.82
22579,1.2462,2.6336,11.0672,1311,2892.82
22584,-1.7394,-1.3898,12.6067,1307,2892.82
22589,-4.2102,0.838,10.2232,1321,2892.82
22594,1.2821,3.1687,9.4774,1309,2893.38
22599,1.9046,3.2202,10.7488,1307,2893.38
22604,-1.4736,-0.7506,12.5061,1311,2893.38
22609,-4.4508,0.255,10.902,1310,2893.38
22614,0.7661,2.9066,9.1758,1308,2892.12
22619,2.0746,3.6895,10.4818,1319,2892.12
22624,-1.5814,0.0658,12.3936,1312,2892.12
22629,-4.306,-0.3304,11.4898,1310,2892.12
22634,0.067,2.6528,9.0154,1309,2892.68
22639,2.1009,3.9444,10.3082,1311,2892.68
22644,-1.7693,0.7099,12.1434,1309,2892.68
22649,-3.8954,-0.9529,11.9183,1317,2892.68
22654,-0.8248,2.3727,8.8454,1317,2892.4
22659,1.9812,3.9576,10.2041,1317,2892.4
22664,-1.67,1.2198,11.8034,1319,2892.4
22669,-3.3112,-1.3958,12.2918,1311,2892.4
22674,-1.919,2.0195,9.074,1320,2892.26
22679,1.8639,3.8571,10.0952,1317,2892.26
22684,-0.905,1.664,11.4838,1312,2892.26
22689,-2.727,-1.6664,12.4391,1320,2892.26
22694,-2.9856,1.6891,9.3625,1317,2892.12
22699,1.7813,3.6715,9.8988,1310,2892.12
22704,0.3089,2.1931,11.2324,1327,2892.12
22709,-2.1284,-1.5742,12.5636,1311,2892.12
22714,-3.7577,1.2737,9.8641,1310,2892.12
22719,1.573,3.3818,9.6582,1321,2892.4
22724,1.4497,2.7797,10.9188,1318,2892.4
22729,-1.5742,-1.1947,12.5157,1308,2892.4
22734,-4.2401,0.7003,10.3837,1319,2892.4
22739,1.2234,3.0514,9.323,1317,2892.82
22744,2.1093,3.3291,10.6518,1311,2892.82
22749,-1.4437,-0.5267,12.5073,1311,2892.82
22754,-4.3586,0.0646,11.054,1312,2892.82
22759,0.6105,2.7869,9.1099,1311,2892.96
22764,2.1584,3.7218,10.4579,1319,2892.96
22769,-1.5802,0.1281,12.3254,1312,2892.96
22774,-4.2114,-0.5758,11.5568,1315,2892.96
22779,-0.2035,2.5714,8.9531,1316,2892.68
22784,1.9716,3.9768,10.3166,1314,2892.68
22789,-1.8004,0.8188,12.1494,1315,2892.68
22794,-3.8259,-1.0606,11.9842,1309,2892.68
22799,-1.1121,2.326,8.8717,1317,2892.26
22804,1.9561,3.9911,10.1801,1315,2892.26
22809,-1.5754,1.3467,11.8429,1315,2892.26
22814,-3.1496,-1.4832,12.293,1309,2892.26
22819,-2.1548,1.9692,9.0417,1317,2892.26
22824,1.9225,3.8463,10.0269,1319,2892.26
22829,-0.5567,1.8064,11.4239,1311,2892.26
22834,-2.5367,-1.6891,12.4606,1320,2892.26
22839,-3.1256,1.6101,9.3649,1317,2892.26
22844,1.7382,3.5386,9.8617,1309,2892.26
22849,0.5806,2.3248,11.163,1321,2892.26
22854,-1.9405,-1.646,12.5959,1307,2892.26
22859,-3.9145,1.1181,9.918,1311,2892.26
22864,1.47,3.3004,9.6235,1311,2892.54
22869,1.5,2.9389,10.8888,1319,2892.54
22874,-1.5945,-1.0774,12.5001,1309,2892.54
22879,-4.3754,0.5926,10.5776,1320,2892.54
22884,1.0666,3.0598,9.3506,1312,2892.4
22889,2.0961,3.5039,10.6506,1311,2892.4
22894,-1.4868,-0.3136,12.408,1303,2892.4
22899,-4.3371,-0.0275,11.157,1312,2892.4
22904,0.5267,2.7928,9.08,1321,2892.4
22909,2.1715,3.8463,10.392,1312,2892.4
22914,-1.6137,0.3472,12.2727,1309,2892.4
22919,-4.1001,-0.6764,11.6825,1318,2892.4
22924,-0.3519,2.5199,8.9495,1315,2892.26
22929,1.9644,3.948,10.2568,1309,2892.26
22934,-1.7621,0.9146,11.9973,1319,2892.26
22939,-3.6631,-1.1959,12.0895,1317,2892.26
22944,-1.3982,2.2134,8.9124,1314,2892.68
22949,1.8735,3.9349,10.1023,1320,2892.68
22954,-1.3707,1.4533,11.7855,1331,2892.68
22959,-3.128,-1.5574,12.3756,1309,2892.68
22964,-2.4349,1.9441,9.1734,1319,2892.54
22969,1.8603,3.8104,9.9539,1319,2892.54
22974,-0.3172,1.9537,11.4359,1315,2892.54
22979,-2.3846,-1.6628,12.4582,1317,2892.54
22984,-3.3447,1.573,9.584,1319,2892.4
22989,1.7585,3.5482,9.73,1308,2892.4
22994,0.9541,2.4995,11.0887,1320,2892.4
22999,-1.7957,-1.4928,12.5899,1310,2892.4
23004,-4.0558,0.9433,10.0975,1319,2892.4
23009,1.4186,3.207,9.5229,1309,2892.54
23014,1.8136,3.0071,10.7607,1309,2892.54
23019,-1.4868,-0.9349,12.572,1311,2892.54
23024,-4.3658,0.3723,10.6267,1308,2892.54
23029,0.9182,2.9736,9.2572,1311,2892.82
23034,2.0291,3.5769,10.5716,1303,2892.82
23039,-1.5538,-0.1879,12.4606,1317,2892.82
23044,-4.3491,-0.1748,11.2791,1311,2892.82
23049,0.3017,2.7198,9.0058,1319,2892.82
23054,2.0949,3.9516,10.3992,1315,2892.82
23059,-1.7825,0.5195,12.1865,1306,2892.82
23064,-3.9816,-0.7566,11.8513,1320,2892.82
23069,-0.5662,2.4924,8.9459,1319,2892.96
23074,2.0195,4.063,10.2532,1311,2892.96
23079,-1.7286,1.093,11.9112,1319,2892.96
23084,-3.5087,-1.2725,12.1937,1317,2892.96
23089,-1.5838,2.1189,8.9411,1317,2893.1
23094,1.9369,3.9636,10.1311,1317,2893.1
23099,-1.1372,1.5383,11.6155,1315,2893.1
23104,-2.8862,-1.6364,12.4355,1321,2893.1
23109,-2.6456,1.8148,9.2404,1319,2893.38
23114,1.7885,3.6966,9.9395,1317,2893.38
23119,-0.0706,2.0267,11.3018,1321,2893.38
23124,-2.3296,-1.6939,12.5564,1309,2893.38
23129,-3.541,1.3898,9.6833,1316,2893.52
23134,1.6508,3.4716,9.7037,1322,2893.52
23139,1.1085,2.6336,11.0337,1316,2893.52
23144,-1.7909,-1.3563,12.5564,1309,2893.52
23149,-4.1408,0.9349,10.2627,1311,2893.52
23154,1.3599,3.2262,9.4332,1309,2893.52
23159,1.9285,3.1819,10.7619,1310,2893.52
23164,-1.4497,-0.7757,12.5073,1317,2893.52
23169,-4.3682,0.2765,10.8086,1303,2893.52
23174,0.8475,2.909,9.1997,1309,2893.24
23179,2.2015,3.6176,10.5381,1319,2893.24
23184,-1.4856,-0.0551,12.4355,1311,2893.24
23189,-4.2557,-0.3591,11.3677,1315,2893.24
23194,0.1197,2.6671,8.9938,1317,2893.1
23199,2.0063,3.9444,10.3214,1312,2893.1
23204,-1.7083,0.6129,12.1841,1309,2893.1
23209,-3.9959,-0.8643,11.8513,1317,2893.1
23214,-0.8068,2.405,8.9399,1316,2893.1
23219,1.9166,4.0067,10.2448,1311,2893.1
23224,-1.7047,1.1815,11.9602,1319,2893.1
23229,-3.4141,-1.2965,12.2128,1316,2893.1
23234,-1.7849,2.1416,8.9328,1320,2893.1
23239,1.9417,3.9564,10.0808,1311,2893.1
23244,-0.9768,1.6376,11.552,1317,2893.1
23249,-2.7773,-1.658,12.3996,1323,2893.1
23254,-2.806,1.7238,9.2596,1311,2893.24
23259,1.8292,3.7122,9.912,1311,2893.24
23264,0.1616,2.0782,11.2719,1325,2893.24
23269,-2.1811,-1.664,12.5265,1309,2893.24
23274,-3.7062,1.2761,9.7348,1321,2893.24
23279,1.6185,3.401,9.7229,1321,2892.82
23284,1.2629,2.7234,11.0145,1317,2892.82
23289,-1.7095,-1.3312,12.5576,1310,2892.82
23294,-4.2856,0.7889,10.3358,1319,2892.82
23299,1.2462,3.1603,9.4308,1315,2893.24
23304,1.901,3.3076,10.726,1312,2893.24
23309,-1.5131,-0.644,12.5324,1311,2893.24
23314,-4.4101,0.2334,10.9571,1317,2893.24
23319,0.6979,2.8886,9.153,1312,2892.82
23324,2.1823,3.7721,10.5357,1316,2892.82
23329,-1.5826,0.1377,12.323,1322,2892.82
23334,-4.2174,-0.3879,11.5077,1317,2892.82
23339,0.0024,2.5845,8.9292,1311,2892.68
23344,2.1452,3.9313,10.2963,1315,2892.68
23349,-1.7466,0.7003,12.0907,1315,2892.68
23354,-3.8391,-0.9864,11.9447,1307,2892.68
23359,-0.9577,2.3355,8.9364,1315,2893.1
23364,1.883,3.9636,10.1586,1315,2893.1
23369,-1.5754,1.2342,11.8848,1312,2893.1
23374,-3.3375,-1.4461,12.2655,1311,2893.1
23379,-2.0494,2.0614,9.013,1315,2892.4
23384,1.8459,3.8487,10.0102,1319,2892.4
23389,-0.7961,1.7765,11.5484,1317,2892.4
23394,-2.709,-1.6269,12.4654,1321,2892.4
23399,-3.0059,1.7238,9.4284,1321,2893.38
23404,1.7561,3.632,9.8509,1309,2893.38
23409,0.4262,2.2769,11.2516,1325,2893.38
23414,-1.9908,-1.5622,12.554,1310,2893.38
23419,-3.7757,1.2139,9.8462,1311,2893.38
23424,1.5718,3.395,9.6223,1311,2892.96
23429,1.5347,2.824,10.9283,1315,2892.96
23434,-1.5766,-1.1528,12.6534,1311,2892.96
23439,-4.3132,0.6069,10.3825,1317,2892.96
23444,1.1612,3.0634,9.3386,1311,2892.68
23449,2.0075,3.371,10.6817,1307,2892.68
23454,-1.4581,-0.4932,12.4199,1311,2892.68
23459,-4.3981,0.012,11.078,1312,2892.68
23464,0.5495,2.8108,9.1387,1319,2892.82
23469,2.0387,3.7792,10.501,1309,2892.82
23474,-1.6508,0.2167,12.3026,1307,2892.82
23479,-4.1958,-0.5183,11.6155,1311,2892.82
23484,-0.2143,2.5845,8.9447,1311,2892.54
23489,2.0578,4.0761,10.2939,1309,2892.54
23494,-1.7873,0.8847,12.05,1321,2892.54
23499,-3.7278,-1.0451,12.0512,1315,2892.54
23504,-1.2103,2.2673,8.9232,1311,2892.26
23509,1.9776,3.9959,10.1574,1319,2892.26
23514,-1.4617,1.3838,11.7268,1316,2892.26
23519,-3.1029,-1.4916,12.3146,1315,2892.26
23524,-2.2254,1.9273,9.0824,1321,2891.98
23529,1.8543,3.796,10.003,1319,2891.98
23534,-0.5351,1.822,11.4132,1317,2891.98
23539,-2.5402,-1.7406,12.5145,1317,2891.98
23544,-3.2501,1.5562,9.4882,1320,2891.84
23549,1.6783,3.5303,9.7767,1311,2891.84
23554,0.662,2.393,11.1486,1320,2891.84
23559,-2.0111,-1.5275,12.5313,1315,2891.84
23564,-3.9564,1.0894,9.9958,1319,2891.84
23569,1.4521,3.3088,9.5804,1312,2893.24
23574,1.6628,3.0143,10.805,1311,2893.24
23579,-1.555,-0.9984,12.5073,1309,2893.24
23584,-4.3251,0.5483,10.58,1309,2893.24
23589,1.0534,3.0107,9.3099,1309,2892.54
23594,2.1261,3.5039,10.586,1311,2892.54
23599,-1.4425,-0.267,12.4678,1315,2892.54
23604,-4.3898,-0.1077,11.1845,1307,2892.54
23609,0.401,2.7569,9.0417,1320,2892.54
23614,2.0674,3.8235,10.4076,1312,2892.54
23619,-1.6831,0.395,12.2703,1309,2892.54
23624,-4.0977,-0.7721,11.6502,1320,2892.54
23629,-0.4788,2.4924,8.8992,1316,2892.26
23634,1.9932,3.9947,10.2448,1303,2892.26
23639,-1.7813,0.9936,12.0428,1321,2892.26
23644,-3.644,-1.2438,12.1218,1318,2892.26
23649,-1.4557,2.2134,8.9112,1311,2892.26
23654,1.9345,3.9923,10.173,1319,2892.26
23659,-1.3408,1.4425,11.6526,1319,2892.26
23664,-2.9796,-1.5323,12.4008,1317,2892.26
23669,-2.4792,1.8615,9.1686,1321,2892.12
23674,1.8687,3.8283,10.0161,1317,2892.12
23679,-0.243,1.9058,11.3198,1317,2892.12
23684,-2.3188,-1.6867,12.5324,1309,2892.12
23689,-3.4321,1.4162,9.5684,1317,2891.71
23694,1.7131,3.5243,9.7839,1319,2891.71
23699,0.996,2.5462,11.0445,1315,2891.71
23704,-1.7957,-1.4664,12.5552,1309,2891.71
23709,-4.0893,0.9313,10.1622,1319,2891.71
23714,1.4102,3.2382,9.5493,1306,2891.29
23719,1.7681,3.1412,10.7907,1309,2891.29
23724,-1.5071,-0.8667,12.5145,1315,2891.29
23729,-4.3838,0.3903,10.7703,1315,2891.29
23734,0.8882,2.9269,9.1901,1311,2890.87
23739,2.0746,3.6428,10.5046,1319,2890.87
23744,-1.5311,-0.1173,12.3601,1314,2890.87
23749,-4.3239,-0.2215,11.3605,1311,2890.87
23754,0.1999,2.7043,9.001,1319,2890.87
23759,2.1009,3.9672,10.3166,1315,2890.87
23764,-1.7526,0.6309,12.1841,1309,2890.87
23769,-3.9313,-0.8679,11.8537,1317,2890.87
23774,-0.7207,2.4301,8.8885,1317,2890.73
23779,1.9537,3.9995,10.1526,1315,2890.73
23784,-1.7035,1.136,11.9159,1317,2890.73
23789,-3.4536,-1.3575,12.2164,1311,2890.73
23794,-1.7789,2.1201,9.0214,1319,2890.59
23799,1.8124,3.8702,10.1095,1318,2890.59
23804,-1.0331,1.6233,11.6119,1317,2890.59
23809,-2.812,-1.6652,12.3828,1321,2890.59
23814,-2.806,1.743,9.2632,1318,2890.73
23819,1.7885,3.6667,9.912,1312,2890.73
23824,0.176,2.1249,11.2611,1325,2890.73
23829,-2.1691,-1.6281,12.5899,1311,2890.73
23834,-3.7026,1.324,9.7875,1312,2890.73
23839,1.5981,3.4153,9.6582,1315,2890.87
23844,1.3288,2.7605,10.9331,1317,2890.87
23849,-1.6328,-1.2115,12.5444,1309,2890.87
23854,-4.2078,0.7135,10.3118,1319,2890.87
23859,1.2198,3.1316,9.4619,1321,2890.73
23864,1.9752,3.2968,10.6793,1311,2890.73
23869,-1.4557,-0.5674,12.451,1307,2890.73
23874,-4.4125,0.0982,10.9642,1317,2890.73
23879,0.6632,2.8443,9.1375,1318,2890.45
23884,2.0865,3.735,10.4866,1311,2890.45
23889,-1.6293,0.1939,12.2954,1311,2890.45
23894,-4.203,-0.5614,11.5736,1318,2890.45
23899,-0.1879,2.5642,8.9759,1317,2889.9
23904,1.9776,4.0127,10.3573,1312,2889.9
23909,-1.7957,0.8021,12.0656,1322,2889.9
23914,-3.7685,-1.0271,12.0357,1319,2889.9
23919,-1.1181,2.3451,8.9519,1319,2890.31
23924,1.9441,4.0235,10.1945,1322,2890.31
23929,-1.5766,1.3204,11.7579,1317,2890.31
23934,-3.1891,-1.4509,12.2954,1311,2890.31
23939,-2.162,1.9453,9.1303,1308,2890.17
23944,1.9022,3.8283,10.0221,1317,2890.17
23949,-0.6165,1.7633,11.3976,1318,2890.17
23954,-2.4912,-1.6568,12.5013,1315,2890.17
23959,-3.1915,1.5574,9.5265,1323,2890.31
23964,1.7358,3.5638,9.8593,1311,2890.31
23969,0.6524,2.3762,11.1139,1320,2890.31
23974,-1.9632,-1.6053,12.5265,1309,2890.31
23979,-3.9145,1.0786,9.991,1323,2890.31
23984,1.494,3.2884,9.6403,1309,2890.87
23989,1.6412,2.9748,10.8362,1307,2890.87
23994,-1.5634,-1.057,12.645,1315,2890.87
23999,-4.306,0.5279,10.6195,1315,2890.87
24004,1.0534,3.0263,9.3458,1309,2891.01
24009,2.0626,3.5386,10.5824,1315,2891.01
24014,-1.4509,-0.2933,12.4582,1311,2891.01
24019,-4.3479,-0.1197,11.1678,1311,2891.01
24024,0.4178,2.7569,9.092,1319,2891.15
24029,2.1081,3.8678,10.3944,1315,2891.15
24034,-1.6771,0.4322,12.1901,1309,2891.15
24039,-4.0546,-0.741,11.6657,1320,2891.15
24044,-0.4286,2.5127,8.9064,1319,2891.01
24049,1.9632,3.9768,10.2759,1315,2891.01
24054,-1.6867,1.008,11.9842,1321,2891.01
24059,-3.6069,-1.227,12.1003,1315,2891.01
24064,-1.4976,2.1751,8.916,1307,2890.87
24069,1.8435,3.9097,10.2161,1320,2890.87
24074,-1.2809,1.4964,11.6598,1316,2890.87
24079,-2.9832,-1.5957,12.4187,1323,2890.87
24084,-2.551,1.9046,9.1806,1317,2890.45
24089,1.8555,3.8116,9.979,1309,2890.45
24094,-0.2059,2.0207,11.3581,1317,2890.45
24099,-2.2781,-1.6484,12.5324,1308,2890.45
24104,-3.4608,1.4305,9.5792,1317,2890.45
24109,1.7119,3.4884,9.8102,1319,2890.17
24114,1.069,2.6037,11.0109,1319,2890.17
24119,-1.7514,-1.3527,12.5468,1309,2890.17
24124,-4.1108,0.8835,10.1801,1322,2890.17
24129,1.3695,3.1843,9.4667,1317,2890.45
24134,1.8316,3.1304,10.7512,1309,2890.45
24139,-1.4605,-0.82,12.4606,1309,2890.45
24144,-4.4065,0.2801,10.799,1309,2890.45
24149,0.7841,2.8946,9.2644,1315,2890.59
24154,2.0303,3.6332,10.5357,1308,2890.59
24159,-1.5634,-0.0431,12.3469,1309,2890.59
24164,-4.3299,-0.2801,11.376,1312,2890.59
24169,0.1161,2.6875,9.0022,1309,2890.31
24174,2.0686,3.984,10.3741,1317,2890.31
24179,-1.7693,0.6788,12.1506,1321,2890.31
24184,-3.8714,-0.8607,11.8525,1316,2890.31
24189,-0.7506,2.4002,8.9962,1311,2890.73
24194,1.9992,4.0151,10.1766,1311,2890.73
24199,-1.664,1.2522,11.8836,1315,2890.73
24204,-3.3327,-1.3647,12.1961,1309,2890.73
24209,-1.8148,2.1021,8.9771,1315,2890.73
24214,1.8651,3.8188,10.0545,1310,2890.73
24219,-0.9146,1.664,11.5401,1317,2890.73
24224,-2.7402,-1.6927,12.5013,1321,2890.73
24229,-2.9125,1.6688,9.3494,1317,2890.59
24234,1.7166,3.6033,9.9168,1309,2890.59
24239,0.2586,2.1847,11.1833,1323,2890.59
24244,-2.1392,-1.6496,12.5648,1308,2890.59
24249,-3.7876,1.2282,9.8007,1317,2890.59
24254,1.5634,3.3926,9.7348,1311,2891.01
24259,1.3779,2.8192,10.9104,1311,2891.01
24264,-1.6496,-1.1145,12.5779,1311,2891.01
24269,-4.2329,0.6967,10.4232,1308,2891.01
24274,1.2246,3.1113,9.4212,1311,2890.59
24279,2.0411,3.3758,10.671,1311,2890.59
24284,-1.4222,-0.4681,12.4618,1309,2890.59
24289,-4.385,0.0599,11.0169,1311,2890.59
24294,0.589,2.8431,9.1638,1320,2890.59
24299,2.077,3.7864,10.4854,1311,2890.59
24304,-1.5598,0.2382,12.287,1305,2890.59
24309,-4.1587,-0.5734,11.5831,1323,2890.59
24314,-0.2298,2.5259,8.9591,1309,2890.59
24319,1.9776,4.0043,10.2735,1309,2890.59
24324,-1.7705,0.8164,12.0787,1319,2890.59
24329,-3.7864,-1.0654,12.0632,1317,2890.59
24334,-1.2139,2.3176,8.9735,1311,2890.59
24339,1.8986,4.0618,10.173,1311,2890.59
24344,-1.5227,1.3946,11.722,1315,2890.59
24349,-3.158,-1.4664,12.3337,1321,2890.59
24354,-2.2625,1.9776,9.1542,1320,2890.73
24359,1.889,3.8391,9.9874,1315,2890.73
24364,-0.5124,1.8615,11.4503,1322,2890.73
24369,-2.4816,-1.6556,12.5049,1311,2890.73
24374,-3.1819,1.567,9.4727,1319,2890.73
24379,1.7621,3.5542,9.7396,1317,2890.73
24384,0.6931,2.3655,11.1043,1316,2890.73
24389,-1.8962,-1.5909,12.5253,1311,2890.73
24394,-3.9612,0.996,9.9958,1321,2890.73
24399,1.403,3.225,9.6187,1310,2891.57
24404,1.6197,2.9676,10.8457,1308,2891.57
24409,-1.5718,-1.0379,12.5899,1316,2891.57
24414,-4.3802,0.4896,10.6147,1315,2891.57
24419,0.9948,3.0299,9.2991,1309,2891.01
24424,2.0494,3.5578,10.5548,1315,2891.01
24429,-1.506,-0.2574,12.4522,1311,2891.01
24434,-4.3407,-0.1245,11.1917,1317,2891.01
24439,0.3867,2.7964,9.1099,1307,2890.87
24444,2.0674,3.9157,10.3741,1311,2890.87
24449,-1.6831,0.4932,12.2775,1310,2890.87
24454,-3.9768,-0.7219,11.746,1319,2890.87
24459,-0.5195,2.5319,8.9124,1317,2891.15
24464,1.992,4.0007,10.3094,1316,2891.15
24469,-1.7286,1.008,11.971,1309,2891.15
24474,-3.5398,-1.3096,12.1578,1311,2891.15
24479,-1.5598,2.1751,8.9304,1317,2891.29
24484,1.8567,3.8918,10.1694,1319,2891.29
24489,-1.2366,1.4988,11.6394,1315,2891.29
24494,-2.9293,-1.5862,12.4091,1323,2891.29
24499,-2.6635,1.8184,9.2189,1316,2891.29
24504,1.8004,3.7745,10.0257,1307,2891.29
24509,-0.1305,2.0494,11.327,1323,2891.29
24514,-2.3032,-1.6436,12.5708,1309,2891.29
24519,-3.5171,1.4461,9.6618,1309,2891.29
24524,1.6867,3.5027,9.7612,1309,2891.43
24529,1.087,2.6121,11.0492,1315,2891.43
24534,-1.7011,-1.3467,12.5121,1309,2891.43
24539,-4.1204,0.9002,10.1993,1319,2891.43
24544,1.318,3.1927,9.4439,1311,2891.29
24549,1.889,3.1771,10.7823,1309,2891.29
24554,-1.4293,-0.7721,12.4786,1315,2891.29
24559,-4.4053,0.2358,10.8302,1307,2891.29
24564,0.8188,2.8299,9.2021,1318,2891.71
24569,2.1177,3.6045,10.4938,1311,2891.71
24574,-1.5251,-0.0467,12.3517,1311,2891.71
24579,-4.3622,-0.3472,11.4419,1315,2891.71
24584,0.0491,2.6528,9.0549,1317,2891.43
24589,1.9896,3.9385,10.3825,1311,2891.43
24594,-1.7897,0.6692,12.1673,1321,2891.43
24599,-3.8822,-0.8906,11.898,1311,2891.43
24604,-0.8212,2.3846,8.934,1315,2891.01
24609,2.0099,4.0606,10.1442,1321,2891.01
24614,-1.6664,1.2115,11.8992,1311,2891.01
24619,-3.3052,-1.3587,12.2595,1311,2891.01
24624,-1.8292,2.0985,9.019,1319,2890.87
24629,1.9261,3.887,10.0173,1317,2890.87
24634,-0.905,1.7059,11.5508,1317,2890.87
24639,-2.6707,-1.6604,12.4475,1319,2890.87
24644,-2.8778,1.6688,9.3434,1319,2890.59
24649,1.7681,3.5949,9.9252,1311,2890.59
24654,0.2753,2.2027,11.2456,1321,2890.59
24659,-2.0662,-1.652,12.6127,1312,2890.59
24664,-3.7745,1.2067,9.8497,1323,2890.59
24669,1.5514,3.3926,9.6762,1313,2890.45
24674,1.3431,2.8204,10.9128,1310,2890.45
24679,-1.6735,-1.2151,12.6055,1317,2890.45
24684,-4.3084,0.7219,10.337,1317,2890.45
24689,1.1959,3.146,9.4152,1309,2890.87
24694,1.9692,3.4141,10.6338,1311,2890.87
24699,-1.4724,-0.4717,12.4882,1316,2890.87
24704,-4.3574,0.0658,11.0181,1311,2890.87
24709,0.6416,2.8479,9.0968,1321,2891.01
24714,2.1332,3.7469,10.4124,1317,2891.01
24719,-1.5538,0.2382,12.2715,1305,2891.01
24724,-4.1276,-0.6057,11.5831,1323,2891.01
24729,-0.2298,2.5654,8.9112,1319,2891.57
24734,2.0303,3.9899,10.2951,1317,2891.57
24739,-1.7621,0.8332,12.05,1320,2891.57
24744,-3.7457,-1.1349,12.0548,1319,2891.57
24749,-1.2139,2.2625,8.9411,1317,2891.84
24754,1.8639,4.0079,10.1981,1311,2891.84
24759,-1.5383,1.3503,11.7795,1318,2891.84
24764,-3.2238,-1.4425,12.3577,1321,2891.84
24769,-2.2853,2.0291,9.1638,1317,2891.71
24774,1.895,3.8511,9.9982,1319,2891.71
24779,-0.6021,1.8256,11.4598,1325,2891.71
24784,-2.5211,-1.6221,12.4894,1312,2891.71
24789,-3.1639,1.5862,9.4355,1319,2891.71
24794,1.7921,3.553,9.8402,1320,2891.57
24799,0.6931,2.3798,11.1558,1322,2891.57
24804,-1.8902,-1.5514,12.5803,1309,2891.57
24809,-3.9301,1.0463,9.9862,1321,2891.57
24814,1.4569,3.2429,9.5852,1311,2891.84
24819,1.6017,2.9556,10.8828,1311,2891.84
24824,-1.5383,-1.0977,12.5576,1315,2891.84
24829,-4.3826,0.4729,10.58,1311,2891.84
24834,0.9828,2.9868,9.3577,1310,2892.4
24839,2.0087,3.5147,10.5644,1317,2892.4
24844,-1.4796,-0.2765,12.4906,1317,2892.4
24849,-4.3694,-0.0371,11.1546,1315,2892.4
24854,0.4094,2.7916,9.092,1315,2892.68
24859,2.0566,3.9097,10.4351,1315,2892.68
24864,-1.6735,0.425,12.3026,1311,2892.68
24869,-4.039,-0.6572,11.7148,1316,2892.68
24874,-0.4046,2.4995,8.9268,1319,2892.26
24879,2.0219,4.0019,10.2448,1315,2892.26
24884,-1.7573,0.9948,11.9578,1312,2892.26
24889,-3.5434,-1.2342,12.1099,1315,2892.26
24894,-1.4401,2.1751,8.9124,1319,2891.84
24899,1.8699,3.9133,10.1754,1319,2891.84
24904,-1.3264,1.4425,11.6813,1317,2891.84
24909,-2.9939,-1.6185,12.4008,1315,2891.84
24914,-2.545,1.8471,9.1267,1308,2891.84
24919,1.7729,3.7326,9.973,1311,2891.84
24924,-0.2622,1.9776,11.3784,1325,2891.84
24929,-2.4217,-1.64,12.5061,1309,2891.84
24934,-3.4656,1.5107,9.5612,1317,2891.84
24939,1.6712,3.5326,9.7791,1311,2892.12
24944,0.9313,2.5426,11.0959,1321,2892.12
24949,-1.8124,-1.3719,12.6115,1301,2892.12
24954,-4.0725,0.9936,10.1359,1317,2892.12
24959,1.3886,3.213,9.4104,1311,2892.26
24964,1.8818,3.1304,10.7835,1309,2892.26
24969,-1.4581,-0.7925,12.4989,1309,2892.26
24974,-4.3407,0.3005,10.7751,1320,2892.26
24979,0.8511,2.903,9.2201,1318,2892.12
24984,2.0949,3.5781,10.5213,1309,2892.12
24989,-1.4976,-0.1616,12.4223,1309,2892.12
24994,-4.3251,-0.3232,11.3114,1319,2892.12
24999,0.1317,2.6324,9.0046,1311,2891.71
25004,1.9932,3.9241,10.3561,1315,2891.71
25009,-1.7609,0.583,12.2009,1323,2891.71
25014,-3.9983,-0.8368,11.825,1315,2891.71
25019,-0.7374,2.4397,8.9064,1311,2892.68
25024,1.9333,4.0007,10.2556,1321,2892.68
25029,-1.743,1.1384,11.9159,1315,2892.68
25034,-3.4261,-1.3228,12.1949,1315,2892.68
25039,-1.6759,2.1165,8.9998,1317,2891.84
25044,1.9632,3.9756,10.1299,1319,2891.84
25049,-1.0139,1.6496,11.6215,1316,2891.84
25054,-2.7833,-1.6376,12.4594,1316,2891.84
25059,-2.7509,1.7849,9.2835,1318,2892.82
25064,1.8196,3.6763,9.9563,1311,2892.82
25069,0.085,2.1261,11.2719,1321,2892.82
25074,-2.1356,-1.6807,12.5552,1312,2892.82
25079,-3.6284,1.2402,9.6929,1317,2892.82
25084,1.5814,3.3962,9.7217,1309,2891.98
25089,1.1408,2.6779,10.9547,1311,2891.98
25094,-1.7071,-1.3204,12.6139,1311,2891.98
25099,-4.2748,0.8021,10.3477,1309,2891.98
25104,1.3108,3.1735,9.4068,1315,2892.26
25109,1.9501,3.2848,10.6889,1307,2892.26
25114,-1.4844,-0.6416,12.5049,1315,2892.26
25119,-4.4125,0.1999,10.9295,1311,2892.26
25124,0.7506,2.9006,9.1698,1321,2892.26
25129,2.1799,3.7266,10.5022,1311,2892.26
25134,-1.5443,0.0994,12.3301,1311,2892.26
25139,-4.1659,-0.413,11.5017,1319,2892.26
25144,0.0168,2.5917,8.934,1317,2892.12
25149,2.0973,3.8618,10.2699,1310,2892.12
25154,-1.7645,0.6476,12.1159,1316,2892.12
25159,-3.8451,-1.0523,11.9602,1317,2892.12
25164,-0.9457,2.314,8.9423,1315,2892.54
25169,1.8974,3.9492,10.1969,1319,2892.54
25174,-1.6436,1.2354,11.8238,1315,2892.54
25179,-3.3447,-1.403,12.2272,1330,2892.54
25184,-2.0016,2.0782,9.092,1319,2892.12
25189,1.8232,3.9337,10.0401,1315,2892.12
25194,-0.8428,1.7466,11.5784,1321,2892.12
25199,-2.6564,-1.5874,12.4894,1317,2892.12
25204,-3.0275,1.7011,9.3913,1319,2891.98
25209,1.7825,3.6655,9.8581,1314,2891.98
25214,0.4501,2.2625,11.2408,1311,2891.98
25219,-2.0123,-1.5634,12.5289,1311,2891.98
25224,-3.8032,1.1875,9.8845,1321,2891.98
25229,1.5419,3.3064,9.59,1304,2891.98
25234,1.4617,2.8096,10.9259,1303,2891.98
25239,-1.549,-1.2103,12.5803,1321,2891.98
25244,-4.3012,0.5626,10.422,1315,2891.98
25249,1.1504,3.0347,9.3649,1309,2891.57
25254,1.9249,3.4058,10.6805,1326,2891.57
25259,-1.5012,-0.492,12.4882,1311,2891.57
25264,-4.4041,0.0132,11.084,1319,2891.57
25269,0.5327,2.8335,9.1447,1316,2891.84
25274,2.0171,3.8223,10.4603,1317,2891.84
25279,-1.6305,0.2658,12.3218,1309,2891.84
25284,-4.1575,-0.516,11.6358,1319,2891.84
25289,-0.2227,2.551,8.9687,1321,2891.84
25294,2.083,3.9768,10.3298,1312,2891.84
25299,-1.7621,0.8835,12.0201,1316,2891.84
25304,-3.6691,-1.0702,12.0464,1320,2891.84
25309,-1.2151,2.2805,8.9495,1308,2891.98
25314,1.9573,4.0127,10.2137,1317,2891.98
25319,-1.4198,1.3491,11.6741,1305,2891.98
25324,-3.0969,-1.5131,12.2942,1321,2891.98
25329,-2.3056,1.901,9.0656,1315,2891.57
25334,1.8495,3.7505,10.0748,1317,2891.57
25339,-0.4717,1.8603,11.4874,1325,2891.57
25344,-2.5127,-1.6855,12.5396,1311,2891.57
25349,-3.292,1.5897,9.5505,1309,2891.57
25354,1.7394,3.5374,9.7791,1311,2892.54
25359,0.7135,2.4181,11.139,1319,2892.54
25364,-2.0075,-1.4976,12.5815,1309,2892.54
25369,-4.0007,1.069,10.0904,1319,2892.54
25374,1.4593,3.2501,9.5361,1315,2892.4
25379,1.7035,2.9939,10.896,1309,2892.4
25384,-1.5586,-0.9074,12.5348,1319,2892.4
25389,-4.3084,0.5279,10.6039,1312,2892.4
25394,1.0738,2.9748,9.2201,1315,2892.4
25399,2.1284,3.4967,10.568,1315,2892.4
25404,-1.4054,-0.2993,12.4678,1321,2892.4
25409,-4.3299,-0.1867,11.2563,1316,2892.4
25414,0.328,2.6887,9.086,1311,2892.4
25419,2.0279,3.8427,10.3837,1316,2892.4
25424,-1.6759,0.407,12.2751,1317,2892.4
25429,-4.0953,-0.7326,11.6933,1309,2892.4
25434,-0.4896,2.5067,8.9807,1317,2892.26
25439,1.9285,4.0163,10.2699,1321,2892.26
25444,-1.7801,1.0427,12.0105,1315,2892.26
25449,-3.5829,-1.2115,12.1661,1323,2892.26
25454,-1.494,2.2613,8.9818,1316,2892.4
25459,1.907,4.0175,10.155,1320,2892.4
25464,-1.2127,1.4964,11.6358,1317,2892.4
25469,-2.9042,-1.5574,12.3744,1319,2892.4
25474,-2.5091,1.8651,9.1866,1319,2892.82
25479,1.9201,3.8068,9.9695,1310,2892.82
25484,-0.1832,1.9573,11.3533,1327,2892.82
25489,-2.2817,-1.6747,12.5277,1311,2892.82
25494,-3.4596,1.4174,9.5708,1327,2892.82
25499,1.6747,3.4812,9.7827,1309,2892.82
25504,0.9493,2.5055,11.0409,1319,2892.82
25509,-1.8411,-1.4605,12.6162,1305,2892.82
25514,-4.1503,0.9373,10.1754,1319,2892.82
25519,1.3515,3.2286,9.4655,1310,2892.68
25524,1.7597,3.1735,10.7835,1315,2892.68
25529,-1.5383,-0.8464,12.5516,1308,2892.68
25534,-4.3718,0.3579,10.8038,1315,2892.68
25539,0.8894,2.9353,9.2225,1325,2892.68
25544,2.144,3.6296,10.5321,1311,2892.68
25549,-1.5419,-0.1125,12.3864,1307,2892.68
25554,-4.2916,-0.2466,11.394,1317,2892.68
25559,0.2035,2.6659,9.0333,1319,2892.54
25564,2.1237,3.9121,10.3477,1311,2892.54
25569,-1.7442,0.6009,12.2559,1319,2892.54
25574,-3.9253,-0.8787,11.8716,1309,2892.54
25579,-0.7111,2.4074,8.8933,1317,2892.54
25584,1.9764,3.9612,10.1909,1325,2892.54
25589,-1.7286,1.0906,11.9746,1312,2892.54
25594,-3.4872,-1.3503,12.1697,1315,2892.54
25599,-1.6891,2.1572,8.9567,1321,2892.82
25604,1.834,3.8618,10.1119,1311,2892.82
25609,-1.0822,1.6029,11.6717,1333,2892.82
25614,-2.8922,-1.6293,12.3924,1321,2892.82
25619,-2.7821,1.8232,9.2907,1320,2892.68
25624,1.822,3.7385,9.9826,1315,2892.68
25629,0.0634,2.0985,11.3713,1319,2892.68
25634,-2.1835,-1.6197,12.5301,1308,2892.68
25639,-3.638,1.3755,9.7157,1321,2892.68
25644,1.6041,3.4117,9.7133,1310,2892.96
25649,1.2773,2.63,10.9882,1311,2892.96
25654,-1.658,-1.306,12.5743,1316,2892.96
25659,-4.1851,0.7733,10.2639,1309,2892.96
25664,1.2737,3.1328,9.4403,1309,2892.96
25669,1.8986,3.2142,10.6901,1311,2892.96
25674,-1.4485,-0.7063,12.5755,1312,2892.96
25679,-4.4293,0.1784,10.908,1315,2892.96
25684,0.7482,2.8706,9.1578,1320,2893.24
25689,2.0853,3.6883,10.5369,1315,2893.24
25694,-1.6149,0.0587,12.3625,1309,2893.24
25699,-4.294,-0.3759,11.5089,1318,2893.24
25704,-0.0227,2.6324,8.9555,1317,2893.1
25709,2.0446,3.9696,10.41,1310,2893.1
25714,-1.7849,0.6979,12.1242,1318,2893.1
25719,-3.8307,-0.9218,11.9243,1315,2893.1
25724,-0.8942,2.3583,8.843,1316,2893.1
25729,2.0159,4.0402,10.2592,1319,2893.1
25734,-1.6316,1.2091,11.825,1317,2893.1
25739,-3.2956,-1.3491,12.3242,1317,2893.1
25744,-1.9333,2.0566,9.0501,1317,2893.1
25749,1.8842,3.887,10.0305,1305,2893.1
25754,-0.8715,1.6652,11.5568,1323,2893.1
25759,-2.721,-1.6867,12.4642,1307,2893.1
25764,-2.9796,1.6556,9.3805,1317,2892.82
25769,1.7334,3.5901,9.8749,1319,2892.82
25774,0.3531,2.2446,11.2599,1319,2892.82
25779,-2.1296,-1.6305,12.5324,1309,2892.82
25784,-3.7876,1.2833,9.8569,1322,2892.82
25789,1.5718,3.3495,9.6067,1311,2892.96
25794,1.4365,2.8563,10.9774,1309,2892.96
25799,-1.6867,-1.1887,12.5492,1315,2892.96
25804,-4.3012,0.7147,10.4148,1311,2892.96
25809,1.2091,3.0921,9.3948,1311,2892.82
25814,2.0135,3.371,10.6985,1318,2892.82
25819,-1.4712,-0.5339,12.463,1315,2892.82
25824,-4.3562,0.0491,10.9583,1315,2892.82
25829,0.6189,2.812,9.1123,1317,2892.54
25834,2.0794,3.8044,10.392,1319,2892.54
25839,-1.5742,0.1915,12.3876,1311,2892.54
25844,-4.2234,-0.5674,11.5556,1319,2892.54
25849,-0.1748,2.5798,8.9687,1318,2892.26
25854,1.9896,3.9792,10.2951,1316,2892.26
25859,-1.7837,0.8045,12.068,1319,2892.26
25864,-3.7757,-1.069,11.983,1316,2892.26
25869,-1.1217,2.314,8.922,1316,2891.98
25874,1.8986,4.0378,10.2436,1317,2891.98
25879,-1.5407,1.3384,11.8393,1315,2891.98
25884,-3.1603,-1.4772,12.39,1320,2891.98
25889,-2.2063,2.0219,9.0704,1319,2892.12
25894,1.8986,3.8798,10.0377,1315,2892.12
25899,-0.6129,1.798,11.3832,1325,2892.12
25904,-2.5067,-1.634,12.4594,1309,2892.12
25909,-3.1795,1.6137,9.4379,1311,2892.12
25914,1.7813,3.6009,9.8785,1319,2891.98
25919,0.6357,2.3331,11.1486,1319,2891.98
25924,-1.9154,-1.5526,12.5612,1307,2891.98
25929,-3.9456,1.0558,9.9503,1321,2891.98
25934,1.4928,3.2848,9.5924,1309,2892.12
25939,1.5838,2.9293,10.8589,1310,2892.12
25944,-1.5574,-1.0882,12.5684,1311,2892.12
25949,-4.3742,0.5327,10.5896,1311,2892.12
25954,1.0762,2.9916,9.329,1317,2892.4
25959,2.0458,3.4907,10.5764,1311,2892.4
25964,-1.5179,-0.3663,12.4594,1310,2892.4
25969,-4.3407,-0.006,11.1785,1311,2892.4
25974,0.4549,2.7533,9.0585,1309,2892.4
25979,2.1189,3.8774,10.4567,1311,2892.4
25984,-1.6867,0.3699,12.3421,1316,2892.4
25989,-4.0797,-0.6273,11.7029,1311,2892.4
25994,-0.3711,2.5259,8.8633,1312,2892.82
25999,2.0195,4.0438,10.2029,1315,2892.82
26004,-1.7873,0.9649,12.0572,1317,2892.82
26009,-3.6105,-1.1875,12.0237,1310,2892.82
26014,-1.3707,2.2134,8.934,1311,2892.68
26019,1.8495,3.9169,10.1502,1320,2892.68
26024,-1.3324,1.4377,11.7591,1317,2892.68
26029,-3.0454,-1.5897,12.3708,1319,2892.68
26034,-2.4385,1.9333,9.1267,1315,2892.68
26039,1.8435,3.729,10.0257,1311,2892.68
26044,-0.3268,1.9142,11.3808,1324,2892.68
26049,-2.4062,-1.6664,12.5324,1315,2892.68
26054,-3.3674,1.5119,9.5565,1315,2892.68
26059,1.6963,3.5267,9.833,1311,2892.26
26064,0.8763,2.5031,11.0911,1319,2892.26
26069,-1.8292,-1.385,12.5983,1307,2892.26
26074,-4.0546,0.9924,10.0449,1315,2892.26
26079,1.415,3.2358,9.5505,1311,2892.4
26084,1.7885,3.0394,10.7967,1311,2892.4
26089,-1.5024,-0.8631,12.5277,1310,2892.4
26094,-4.3826,0.3448,10.6734,1317,2892.4
26099,0.9182,2.9832,9.2835,1321,2892.54
26104,2.071,3.5087,10.5309,1312,2892.54
26109,-1.4892,-0.2023,12.4032,1308,2892.54
26114,-4.3359,-0.2885,11.236,1320,2892.54
26119,0.2574,2.6911,9.0046,1317,2892.68
26124,2.0458,3.8918,10.3609,1315,2892.68
26129,-1.7238,0.5219,12.2044,1317,2892.68
26134,-4.0247,-0.7745,11.819,1315,2892.68
26139,-0.6536,2.4553,8.9208,1316,2892.82
26144,1.974,4.063,10.2747,1321,2892.82
26149,-1.7418,1.0953,11.9219,1315,2892.82
26154,-3.5075,-1.2641,12.1937,1311,2892.82
26159,-1.6508,2.1679,9.0357,1319,2892.68
26164,1.9573,3.972,10.143,1317,2892.68
26169,-1.1325,1.5933,11.6681,1319,2892.68
26174,-2.8503,-1.6305,12.4606,1319,2892.68
26179,-2.6181,1.8064,9.2021,1319,2893.94
26184,1.8842,3.7242,9.8773,1309,2893.94
26189,0.0012,2.0794,11.3138,1319,2893.94
26194,-2.2649,-1.7154,12.5133,1311,2893.94
26199,-3.5853,1.3599,9.7157,1321,2893.94
26204,1.6364,3.3758,9.7085,1315,2893.24
26209,1.1061,2.6264,11.0564,1308,2893.24
26214,-1.7753,-1.4042,12.5492,1315,2893.24
26219,-4.1851,0.8942,10.2448,1311,2893.24
26224,1.385,3.1807,9.5026,1311,2892.96
26229,1.8519,3.219,10.7787,1316,2892.96
26234,-1.5658,-0.747,12.5827,1316,2892.96
26239,-4.4161,0.3065,10.9188,1311,2892.96
26244,0.8332,2.9592,9.2285,1321,2892.82
26249,2.1093,3.6895,10.5034,1312,2892.82
26254,-1.5071,-0.0108,12.4391,1309,2892.82
26259,-4.2246,-0.3484,11.3294,1319,2892.82
26264,0.1113,2.6552,8.989,1319,2892.54
26269,2.071,3.8762,10.3549,1310,2892.54
26274,-1.7394,0.6285,12.2356,1317,2892.54
26279,-3.8834,-0.9445,11.892,1319,2892.54
26284,-0.8356,2.3631,8.8933,1305,2892.82
26289,1.9417,4.0163,10.2304,1311,2892.82
26294,-1.6939,1.1576,11.8525,1315,2892.82
26299,-3.3818,-1.3934,12.2547,1315,2892.82
26304,-1.8914,2.1548,8.9711,1315,2892.68
26309,1.9166,3.9468,10.1071,1315,2892.68
26314,-1.0008,1.6376,11.5712,1323,2892.68
26319,-2.6815,-1.585,12.5013,1307,2892.68
26324,-2.8695,1.7406,9.2799,1321,2892.68
26329,1.8483,3.7038,9.906,1321,2892.68
26334,0.261,2.1536,11.218,1325,2892.68
26339,-2.1452,-1.6029,12.5552,1306,2892.68
26344,-3.7062,1.3132,9.7648,1320,2892.68
26349,1.6628,3.371,9.6941,1315,2892.82
26354,1.3348,2.727,10.9774,1315,2892.82
26359,-1.6819,-1.2821,12.5181,1311,2892.82
26364,-4.2437,0.6991,10.3633,1311,2892.82
26369,1.1887,3.0742,9.4092,1311,2892.82
26374,1.968,3.2944,10.6973,1319,2892.82
26379,-1.4976,-0.6297,12.4977,1311,2892.82
26384,-4.4233,0.1508,11.0229,1317,2892.82
26389,0.68,2.8311,9.1506,1319,2892.82
26394,2.1045,3.7876,10.4507,1311,2892.82
26399,-1.6161,0.1341,12.3493,1309,2892.82
26404,-4.2222,-0.4453,11.4874,1317,2892.82
26409,-0.0479,2.6097,9.0022,1320,2892.96
26414,2.059,3.9684,10.3453,1315,2892.96
26419,-1.8232,0.7865,12.1685,1311,2892.96
26424,-3.7673,-0.9888,11.9279,1319,2892.96
26429,-0.9876,2.3595,8.8645,1314,2892.96
26434,1.9537,4.0031,10.1502,1320,2892.96
26439,-1.5526,1.2965,11.813,1319,2892.96
26444,-3.2046,-1.4712,12.1997,1322,2892.96
26449,-2.0423,1.9908,9.0046,1319,2892.68
26454,1.8651,3.8427,10.0497,1309,2892.68
26459,-0.7039,1.7226,11.4838,1323,2892.68
26464,-2.6181,-1.7107,12.4475,1311,2892.68
26469,-3.0622,1.6508,9.3685,1311,2892.68
26474,1.7669,3.5937,9.9264,1319,2892.96
26479,0.4489,2.2948,11.2192,1320,2892.96
26484,-2.0363,-1.5443,12.5133,1310,2892.96
26489,-3.875,1.2115,9.8869,1319,2892.96
26494,1.5443,3.3351,9.6379,1317,2892.54
26499,1.5299,2.8407,10.92,1311,2892.54
26504,-1.5933,-1.0666,12.5324,1311,2892.54
26509,-4.3108,0.6692,10.4435,1310,2892.54
26514,1.1815,3.0215,9.3613,1320,2892.26
26519,2.047,3.4273,10.6207,1311,2892.26
26524,-1.4569,-0.4142,12.4546,1309,2892.26
26529,-4.3551,-0.018,11.1366,1317,2892.26
26534,0.5136,2.7473,9.0549,1309,2891.98
26539,2.0901,3.7816,10.4387,1311,2891.98
26544,-1.6352,0.267,12.2811,1321,2891.98
26549,-4.1647,-0.6381,11.655,1311,2891.98
26554,-0.2981,2.4888,8.904,1316,2891.71
26559,1.9237,3.9804,10.1227,1319,2891.71
26564,-1.8148,0.8871,12.1147,1316,2891.71
26569,-2.891,-1.5622,12.4307,1311,2891.71
26574,-1.2809,2.2637,8.9399,1317,2891.15
26579,1.8519,3.7326,9.8928,1321,2891.15
26584,-1.482,1.3838,11.728,1310,2891.15
26589,-2.2529,-1.6305,12.5025,1321,2891.15
26594,-3.5721,1.3587,9.6953,1320,2891.43
26599,1.6568,3.4369,9.6714,1311,2891.43
26604,1.227,2.6635,10.9894,1327,2891.43
26609,-1.7585,-1.3815,12.536,1311,2891.43
26614,-4.1899,0.8152,10.2508,1319,2891.43
26619,1.2905,3.1017,9.4703,1311,2891.01
26624,1.889,3.2645,10.7272,1309,2891.01
26629,-1.5455,-0.6584,12.5121,1308,2891.01
26634,-4.4281,0.2107,10.8733,1309,2891.01
26639,0.7566,2.8814,9.1782,1315,2891.01
26644,2.0554,3.7445,10.4926,1311,2891.01
26649,-1.5921,0.079,12.396,1315,2891.01
26654,-4.2306,-0.3663,11.4287,1311,2891.01
26659,0.0682,2.6121,8.9878,1319,2890.87
26664,2.1009,3.9744,10.319,1306,2890.87
26669,-1.7849,0.7171,12.1218,1310,2890.87
26674,-3.8116,-0.9349,11.8944,1325,2890.87
26679,-0.9337,2.4014,8.8729,1318,2890.87
26684,1.9309,3.9504,10.2244,1311,2890.87
26689,-1.634,1.221,11.7747,1319,2890.87
26694,-3.2621,-1.4605,12.2571,1309,2890.87
26699,-1.9788,1.9968,9.0118,1317,2890.73
26704,1.8352,3.8475,10.1191,1317,2890.73
26709,-0.8332,1.6927,11.5137,1315,2890.73
26714,-2.7114,-1.6987,12.4726,1318,2890.73
26719,-2.9939,1.6975,9.432,1319,2890.87
26724,1.7849,3.6464,9.9515,1309,2890.87
26729,0.4142,2.2446,11.169,1315,2890.87
26734,-2.0315,-1.5203,12.5121,1311,2890.87
26739,-3.7972,1.1851,9.9407,1315,2890.87
26744,1.579,3.3615,9.6462,1321,2890.45
26749,1.4653,2.8503,10.914,1319,2890.45
26754,-1.5443,-1.1181,12.548,1311,2890.45
26759,-4.3036,0.5878,10.4495,1321,2890.45
26764,1.1648,3.0562,9.3015,1311,2890.87
26769,2.0518,3.4141,10.6291,1311,2890.87
26774,-1.4605,-0.4729,12.4355,1312,2890.87
26779,-4.3946,-0.0742,11.0935,1311,2890.87
26784,0.498,2.7557,9.1195,1304,2891.15
26789,2.0039,3.79,10.4411,1319,2891.15
26794,-1.6795,0.2298,12.3122,1315,2891.15
26799,-4.1731,-0.5914,11.6622,1311,2891.15
26804,-0.3208,2.5283,8.9435,1317,2891.29
26809,1.9812,4.0091,10.2771,1316,2891.29
26814,-1.7825,0.9038,12.0764,1315,2891.29
26819,-3.7242,-1.1025,12.1338,1311,2891.29
26824,-1.257,2.2733,8.9471,1317,2891.57
26829,1.9597,3.9995,10.1299,1311,2891.57
26834,-1.4246,1.409,11.7567,1317,2891.57
26839,-3.0598,-1.5383,12.299,1311,2891.57
26844,-2.296,1.9154,9.147,1319,2891.43
26849,1.8806,3.7864,9.9647,1320,2891.43
26854,-0.4226,1.8854,11.4287,1311,2891.43
26859,-2.4181,-1.6831,12.4941,1319,2891.43
26864,-3.2968,1.5095,9.499,1319,2890.87
26869,1.731,3.4979,9.8497,1308,2890.87
26874,0.7745,2.4169,11.0816,1324,2890.87
26879,-1.9094,-1.5131,12.5313,1310,2890.87
26884,-4.0701,1.0032,10.0473,1311,2890.87
26889,1.4126,3.2358,9.6127,1319,2890.73
26894,1.6484,3.0909,10.7943,1317,2890.73
26899,-1.5526,-0.899,12.5815,1307,2890.73
26904,-4.373,0.4669,10.671,1319,2890.73
26909,0.99,2.9784,9.2883,1315,2890.59
26914,2.138,3.6152,10.6099,1317,2890.59
26919,-1.4856,-0.1353,12.4666,1307,2890.59
26924,-4.3275,-0.2358,11.3342,1315,2890.59
26929,0.3112,2.7246,9.0381,1321,2891.01
26934,2.0734,3.8918,10.4136,1315,2891.01
26939,-1.7358,0.4776,12.1518,1304,2891.01
26944,-4.0175,-0.7913,11.7388,1317,2891.01
26949,-0.5866,2.405,8.8861,1311,2891.43
26954,1.98,3.9504,10.2663,1315,2891.43
26959,-1.7813,1.0008,11.9183,1319,2891.43
26964,-3.5291,-1.2797,12.2056,1315,2891.43
26969,-1.6532,2.1464,8.995,1315,2891.57
26974,1.9046,3.9456,10.1406,1320,2891.57
26979,-1.1887,1.5179,11.5963,1311,2891.57
26984,-2.9018,-1.5467,12.4151,1311,2891.57
26989,-2.7126,1.889,9.3063,1319,2891.84
26994,1.8256,3.7828,9.9383,1319,2891.84
26999,0.0096,2.0686,11.333,1317,2891.84
27004,-2.2326,-1.6185,12.5444,1317,2891.84
27009,-3.5721,1.4078,9.6307,1317,2891.71
27014,1.7274,3.4572,9.6726,1311,2891.71
27019,1.2007,2.6133,11.0002,1315,2891.71
27024,-1.7322,-1.3467,12.5552,1311,2891.71
27029,-4.1922,0.838,10.258,1323,2891.71
27034,1.3288,3.1256,9.4715,1310,2891.98
27039,1.8747,3.2465,10.7488,1309,2891.98
27044,-1.5371,-0.7254,12.4786,1315,2891.98
27049,-4.4424,0.2406,10.8685,1306,2891.98
27054,0.7482,2.8671,9.2225,1310,2891.98
27059,2.0435,3.6943,10.5453,1307,2891.98
27064,-1.6041,0.0215,12.4199,1311,2891.98
27069,-4.306,-0.3974,11.4347,1309,2891.98
27074,0.091,2.6719,9.0333,1321,2891.98
27079,2.0794,3.9612,10.3226,1311,2891.98
27084,-1.7825,0.7015,12.1578,1309,2891.98
27089,-3.8559,-0.929,11.9243,1319,2891.98
27094,-0.8344,2.3487,8.8873,1319,2892.12
27099,2.0219,4.0031,10.2352,1315,2892.12
27104,-1.6951,1.2079,11.898,1318,2892.12
27109,-3.31,-1.4138,12.2439,1309,2892.12
27114,-1.8759,2.0518,9.0094,1317,2891.98
27119,1.8591,3.8547,10.1335,1316,2891.98
27124,-0.9218,1.6891,11.5113,1317,2891.98
27129,-2.733,-1.6424,12.4654,1319,2891.98
27134,-2.9509,1.7107,9.3865,1319,2891.84
27139,1.7825,3.6368,9.9407,1317,2891.84
27144,0.249,2.2122,11.2312,1321,2891.84
27149,-2.1524,-1.5479,12.5432,1309,2891.84
27154,-3.7804,1.2629,9.8474,1319,2891.84
27159,1.6029,3.383,9.6618,1321,2891.71
27164,1.3982,2.8168,11.0133,1322,2891.71
27169,-1.664,-1.1851,12.5588,1309,2891.71
27174,-4.2784,0.6823,10.4866,1323,2891.71
27179,1.2055,3.1029,9.3302,1310,2891.71
27184,2.0375,3.3447,10.6662,1309,2891.71
27189,-1.4569,-0.5231,12.4391,1315,2891.71
27194,-4.3491,0.0287,11.0097,1317,2891.71
27199,0.6081,2.7426,9.0477,1311,2891.71
27204,2.0925,3.7769,10.392,1321,2891.71
27209,-1.6532,0.2035,12.3289,1311,2891.71
27214,-4.2018,-0.5698,11.6514,1315,2891.71
27219,-0.1676,2.5845,8.9124,1317,2891.98
27224,1.9345,3.9804,10.2975,1317,2891.98
27229,-1.8723,0.8116,12.0596,1311,2891.98
27234,-3.7685,-1.1025,12.056,1317,2891.98
27239,-1.1779,2.3308,8.9495,1317,2891.98
27244,1.9201,4.0342,10.1634,1311,2891.98
27249,-1.4664,1.3635,11.7819,1311,2891.98
27254,-3.14,-1.4916,12.2954,1315,2891.98
27259,-2.217,1.9597,9.0728,1319,2892.12
27264,1.9393,3.8104,10.1119,1319,2892.12
27269,-0.5279,1.8112,11.4263,1311,2892.12
27274,-2.4421,-1.6688,12.4654,1323,2892.12
27279,-3.1831,1.5754,9.4236,1317,2891.98
27284,1.7669,3.5518,9.8162,1316,2891.98
27289,0.65,2.3679,11.1318,1323,2891.98
27294,-1.9644,-1.5167,12.5504,1309,2891.98
27299,-3.9648,1.0965,9.9371,1309,2891.98
27304,1.482,3.2729,9.6175,1320,2891.84
27309,1.6101,2.9592,10.8529,1316,2891.84
27314,-1.6113,-1.0259,12.5241,1311,2891.84
27319,-4.3395,0.5171,10.5632,1319,2891.84
27324,1.075,3.0179,9.3314,1315,2892.26
27329,2.053,3.4991,10.6255,1308,2892.26
27334,-1.5443,-0.322,12.3768,1309,2892.26
27339,-4.3634,-0.0886,11.1809,1317,2892.26
27344,0.4429,2.733,9.0309,1318,2892.54
27349,2.1225,3.8379,10.4208,1311,2892.54
27354,-1.6867,0.3771,12.22,1309,2892.54
27359,-4.0677,-0.6812,11.7795,1309,2892.54
27364,-0.4274,2.5163,8.8921,1312,2892.4
27369,2.0207,3.9899,10.2699,1311,2892.4
27374,-1.7885,0.9589,11.9926,1321,2892.4
27379,-3.6224,-1.1899,12.1135,1311,2892.4
27384,-1.4305,2.1895,8.922,1322,2893.1
27389,1.9321,3.9409,10.1754,1319,2893.1
27394,-1.3372,1.4293,11.7627,1315,2893.1
27399,-3.0777,-1.5371,12.4211,1309,2893.1
27404,-2.4517,1.9046,9.2057,1320,2892.12
27409,1.8232,3.7649,9.9407,1321,2892.12
27414,-0.249,1.9393,11.3964,1317,2892.12
27419,-2.411,-1.6269,12.487,1317,2892.12
27424,-3.4093,1.5048,9.5768,1319,2893.94
27429,1.7478,3.4465,9.7971,1311,2893.94
27434,0.9732,2.5007,11.1019,1321,2893.94
27439,-1.804,-1.397,12.536,1309,2893.94
27444,-4.0342,0.9744,10.0221,1319,2893.94
27449,1.4461,3.2022,9.4906,1311,2893.1
27454,1.7765,3.0777,10.7763,1309,2893.1
27459,-1.5359,-0.8535,12.5348,1311,2893.1
27464,-4.4101,0.3759,10.7117,1315,2893.1
27469,0.9074,2.9532,9.262,1315,2893.66
27474,2.0387,3.638,10.5572,1311,2893.66
27479,-1.5622,-0.1329,12.3816,1308,2893.66
27484,-4.3694,-0.1987,11.2647,1308,2893.66
27489,0.2454,2.7043,9.0082,1323,2893.52
27494,2.0602,3.8954,10.4339,1319,2893.52
27499,-1.7717,0.5339,12.2571,1305,2893.52
27504,-4.0342,-0.7853,11.8118,1319,2893.52
27509,-0.5866,2.4361,8.9447,1319,2893.66
27514,2.065,4.0199,10.2592,1307,2893.66
27519,-1.7442,1.0798,11.9243,1320,2893.66
27524,-3.4979,-1.2773,12.1913,1317,2893.66
27529,-1.6101,2.1847,8.9471,1319,2893.8
27534,1.9178,3.9385,10.1849,1321,2893.8
27539,-1.1899,1.585,11.5831,1317,2893.8
27544,-2.8742,-1.6029,12.4247,1317,2893.8
27549,-2.6803,1.7897,9.2261,1321,2893.94
27554,1.8543,3.6966,9.9814,1321,2893.94
27559,-0.0874,2.0387,11.2994,1317,2893.94
27564,-2.3272,-1.658,12.536,1319,2893.94
27569,-3.5925,1.4114,9.6833,1323,2894.22
27574,1.6807,3.4488,9.7324,1311,2894.22
27579,1.0953,2.6121,11.0792,1319,2894.22
27584,-1.7801,-1.3623,12.5564,1315,2894.22
27589,-4.1958,0.8847,10.2125,1321,2894.22
27594,1.385,3.1639,9.4176,1312,2894.22
27599,1.8962,3.1568,10.7476,1311,2894.22
27604,-1.5119,-0.759,12.5815,1315,2894.22
27609,-4.4305,0.3256,10.8326,1311,2894.22
27614,0.8643,2.9125,9.2045,1315,2894.08
27619,2.1141,3.6476,10.507,1317,2894.08
27624,-1.5467,-0.0527,12.4654,1315,2894.08
27629,-4.3048,-0.3484,11.3437,1311,2894.08
27634,0.2131,2.6839,8.9854,1320,2894.08
27639,2.0255,3.9121,10.3394,1316,2894.08
27644,-1.798,0.5986,12.2751,1310,2894.08
27649,-3.9708,-0.8763,11.8896,1319,2894.08
27654,-0.7566,2.4648,8.922,1319,2894.22
27659,1.9441,3.9863,10.2412,1316,2894.22
27664,-1.7035,1.142,11.9722,1319,2894.22
27669,-3.4297,-1.3731,12.2188,1319,2894.22
27674,-1.7801,2.1368,8.9795,1319,2894.36
27679,1.9345,3.9097,10.1155,1319,2894.36
27684,-1.0127,1.5909,11.6634,1315,2894.36
27689,-2.8,-1.6137,12.4487,1318,2894.36
27694,-2.7521,1.8423,9.2344,1331,2894.36
27699,1.8926,3.7146,9.9491,1315,2894.36
27704,0.0443,2.0842,11.2635,1323,2894.36
27709,-2.1871,-1.6137,12.6222,1307,2894.36
27714,-3.6751,1.2905,9.6774,1316,2894.22
27719,1.6915,3.4213,9.7001,1317,2894.22
27724,1.2246,2.6145,10.969,1315,2894.22
27729,-1.7549,-1.3096,12.5432,1307,2894.22
27734,-4.2306,0.82,10.252,1326,2894.22
27739,1.3719,3.1041,9.4774,1310,2894.5
27744,1.8974,3.2118,10.738,1315,2894.5
27749,-1.5287,-0.7099,12.5097,1310,2894.5
27754,-4.4185,0.2849,10.8912,1311,2894.5
27759,0.8428,2.885,9.177,1309,2893.94
27764,2.1404,3.7086,10.4914,1319,2893.94
27769,-1.6269,-0.0036,12.3541,1317,2893.94
27774,-4.288,-0.2849,11.4922,1316,2893.94
27779,0.0527,2.6576,8.9699,1317,2894.77
27784,2.1428,3.9768,10.3777,1312,2894.77
27789,-1.8004,0.6261,12.1889,1311,2894.77
27794,-3.8642,-0.8583,11.9183,1323,2894.77
27799,-0.8068,2.3619,8.8873,1317,2894.5
27804,1.9872,3.9504,10.2173,1315,2894.5
27809,-1.6604,1.2067,11.8764,1320,2894.5
27814,-3.371,-1.3803,12.1853,1317,2894.5
27819,-1.8507,2.0662,9.0106,1316,2894.5
27824,1.8447,3.8475,10.0892,1319,2894.5
27829,-0.9517,1.6448,11.5831,1312,2894.5
27834,-2.7581,-1.6903,12.4008,1323,2894.5
27839,-2.8228,1.6987,9.2584,1315,2894.36
27844,1.8364,3.6595,9.9204,1301,2894.36
27849,0.2454,2.1751,11.2911,1321,2894.36
27854,-2.1644,-1.5886,12.5995,1311,2894.36
27859,-3.699,1.3515,9.8138,1317,2894.36
27864,1.6556,3.4129,9.7013,1322,2895.61
27869,1.3108,2.727,10.9559,1317,2895.61
27874,-1.6508,-1.233,12.5935,1307,2895.61
27879,-4.2186,0.7254,10.2975,1319,2895.61
27884,1.3144,3.1065,9.4056,1307,2895.47
27889,1.9513,3.2657,10.6745,1311,2895.47
27894,-1.488,-0.6129,12.5241,1318,2895.47
27899,-4.4065,0.1389,10.9032,1315,2895.47
27904,0.7506,2.8575,9.1315,1311,2895.61
27909,2.132,3.65,10.5369,1317,2895.61
27914,-1.5574,0.0515,12.3541,1317,2895.61
27919,-4.2713,-0.4513,11.4455,1310,2895.61
27924,0.0156,2.6121,8.934,1321,2895.61
27929,2.0614,3.9337,10.4172,1315,2895.61
27934,-1.8136,0.6847,12.1661,1309,2895.61
27939,-3.8882,-0.899,11.9866,1319,2895.61
27944,-0.893,2.3571,8.8921,1317,2895.61
27949,2.0195,4.0127,10.2256,1311,2895.61
27954,-1.6628,1.2246,11.8621,1318,2895.61
27959,-3.3447,-1.3527,12.2835,1311,2895.61
27964,-1.8986,2.0626,8.9938,1316,2895.89
27969,1.9261,3.9073,10.0832,1311,2895.89
27974,-0.9218,1.6592,11.5831,1311,2895.89
27979,-2.7497,-1.6688,12.4355,1319,2895.89
27984,-2.9042,1.6963,9.268,1316,2895.61
27989,1.8878,3.5961,9.8545,1309,2895.61
27994,0.249,2.1536,11.2767,1323,2895.61
27999,-2.1727,-1.6688,12.5803,1307,2895.61
28004,-3.717,1.2941,9.8186,1316,2895.61
28009,1.6125,3.3315,9.6582,1321,2895.61
28014,1.3204,2.7665,11.0265,1319,2895.61
28019,-1.7286,-1.2486,12.5935,1307,2895.61
28024,-4.2605,0.7757,10.3705,1320,2895.61
28029,1.2665,3.1089,9.3374,1311,2895.33
28034,1.9453,3.3267,10.7296,1309,2895.33
28039,-1.5239,-0.5902,12.5995,1311,2895.33
28044,-4.3754,0.1796,10.9487,1315,2895.33
28049,0.7817,2.8766,9.1183,1309,2895.33
28054,2.1536,3.717,10.4986,1319,2895.33
28059,-1.5886,0.0826,12.4175,1316,2895.33
28064,-4.2533,-0.4896,11.4072,1317,2895.33
28069,0.0443,2.6121,8.9016,1316,2895.61
28074,2.071,3.9624,10.4016,1317,2895.61
28079,-1.7968,0.6931,12.2044,1305,2895.61
28084,-3.8642,-1.0319,11.9231,1319,2895.61
28089,-0.9517,2.3451,8.8753,1319,2895.61
28094,1.9309,3.9923,10.2113,1309,2895.61
28099,-1.646,1.1863,11.8585,1317,2895.61
28104,-3.3878,-1.3755,12.2679,1318,2895.61
28109,-1.9585,2.0937,9.0369,1317,2895.75
28114,1.9525,3.9217,10.1167,1317,2895.75
28119,-0.8763,1.67,11.6143,1316,2895.75
