timestamp_ms,ax,ay,az,acs_adc,rpm
12274,-1.634,-1.1983,12.1566,1501,2815.05
12279,-3.9887,0.9254,10.2292,1497,2815.05
12284,0.5124,3.1077,9.8114,1531,2815.18
12289,2.2865,3.292,10.7775,1497,2815.18
12294,-1.4904,-0.176,12.1242,1493,2815.18
12299,-4.0414,0.097,11.0409,1511,2815.18
12304,-0.4968,2.7857,9.487,1559,2815.32
12309,2.1057,3.7721,10.3848,1499,2815.32
12314,-1.7262,0.8272,11.8034,1494,2815.32
12319,-3.3842,-0.7638,11.7519,1496,2815.32
12324,-2.0578,2.3212,9.396,1555,2815.05
12329,1.6388,3.7254,10.246,1496,2815.05
12334,-0.4034,1.5395,11.5329,1511,2815.05
12339,-2.4373,-1.3527,12.0752,1497,2815.05
12344,-3.4477,1.6137,9.6762,1497,2815.05
12349,1.1504,3.3507,10.0784,1519,2815.05
12354,1.7071,2.4936,11.1534,1491,2815.05
12359,-1.4186,-0.972,12.2116,1497,2815.05
12364,-4.294,0.7793,10.3358,1496,2815.05
12369,0.5243,3.055,9.7241,1550,2815.71
12374,2.5175,3.3782,10.6865,1498,2815.71
12379,-1.4437,0.0024,12.0237,1492,2815.71
12384,-4.2569,-0.1832,11.0959,1496,2815.71
12389,-0.7709,2.7054,9.4475,1557,2815.32
12394,2.0997,3.8283,10.3932,1507,2815.32
12399,-1.6843,0.9529,11.8429,1495,2815.32
12404,-3.4405,-0.9589,11.7208,1507,2815.32
12409,-2.4373,2.235,9.3649,1561,2815.05
12414,1.8328,3.7338,10.2508,1493,2815.05
12419,0.0467,1.7047,11.4838,1505,2815.05
12424,-2.211,-1.3431,12.0859,1497,2815.05
12429,-3.8403,1.4748,9.7612,1507,2815.05
12434,1.2079,3.2992,10.0916,1541,2815.18
12439,2.1272,2.6181,11.1127,1497,2815.18
12444,-1.3443,-0.8212,12.1458,1492,2815.18
12449,-4.5131,0.5746,10.4136,1493,2815.18
12454,0.3603,2.9736,9.7504,1545,2815.58
12459,2.4541,3.4812,10.6147,1507,2815.58
12464,-1.5933,0.2119,12.0787,1497,2815.58
12469,-4.2904,-0.2729,11.2348,1495,2815.58
12474,-1.0666,2.6935,9.4188,1555,2815.84
12479,2.1715,3.8894,10.386,1506,2815.84
12484,-1.5526,1.0367,11.7627,1495,2815.84
12489,-3.0478,-1.0379,11.8226,1507,2815.84
12494,-2.6109,2.0806,9.4212,1545,2816.11
12499,1.549,3.5518,10.1442,1491,2816.11
12504,0.3831,1.8004,11.4168,1495,2816.11
12509,-2.0147,-1.3934,12.1206,1511,2816.11
12514,-3.8164,1.3001,9.8892,1507,2816.11
12519,0.8751,3.2621,9.979,1532,2816.37
12524,2.0997,2.7749,10.9978,1501,2816.37
12529,-1.5802,-0.6907,12.1913,1497,2816.37
12534,-4.0725,0.5339,10.6063,1497,2816.37
12539,0.0395,2.958,9.681,1545,2816.37
12544,2.2039,3.5518,10.5105,1499,2816.37
12549,-1.6496,0.3352,12.0536,1500,2816.37
12554,-3.6212,-0.3124,11.4048,1499,2816.37
12559,-1.1791,2.5618,9.4104,1558,2816.37
12564,1.7657,3.7314,10.2556,1500,2816.37
12569,-1.3252,1.1372,11.8154,1493,2816.37
12574,-2.9185,-1.1253,11.8824,1507,2816.37
12579,-2.642,1.998,9.4918,1563,2816.37
12584,1.3072,3.5602,10.1382,1503,2816.37
12589,0.668,1.986,11.4239,1501,2816.37
12594,-1.962,-1.2246,12.1135,1495,2816.37
12599,-3.6978,1.2258,10.0209,1499,2816.37
12604,0.7111,3.1879,9.9252,1531,2815.84
12609,2.1464,2.903,10.9822,1507,2815.84
12614,-1.312,-0.5543,12.1362,1497,2815.84
12619,-4.0127,0.3663,10.7368,1495,2815.84
12624,-0.1748,2.8335,9.578,1547,2815.84
12629,2.1165,3.6176,10.4627,1497,2815.84
12634,-1.7538,0.4836,11.9519,1500,2815.84
12639,-3.6428,-0.48,11.5053,1497,2815.84
12644,-1.4509,2.5355,9.4164,1561,2815.71
12649,1.7561,3.8618,10.2304,1509,2815.71
12654,-1.0666,1.3132,11.6837,1499,2815.71
12659,-2.6851,-1.1612,12.0153,1497,2815.71
12664,-2.9185,1.8459,9.5589,1500,2815.71
12669,1.3324,3.4991,10.07,1527,2815.71
12674,1.1384,2.0985,11.2851,1501,2815.71
12679,-1.7717,-1.2175,12.1566,1497,2815.71
12684,-3.8618,1.0199,10.1311,1491,2815.71
12689,0.6117,3.067,9.8653,1528,2815.98
12694,2.2206,3.0658,10.8673,1501,2815.98
12699,-1.5383,-0.4058,12.1111,1493,2815.98
12704,-4.0486,0.231,10.8493,1503,2815.98
12709,-0.3603,2.8647,9.5265,1560,2816.11
12714,2.1392,3.7505,10.5034,1499,2816.11
12719,-1.8124,0.68,11.9758,1499,2816.11
12724,-3.3998,-0.5543,11.637,1495,2816.11
12729,-1.7442,2.3631,9.3134,1533,2815.71
12734,1.7154,3.7014,10.2376,1501,2815.71
12739,-0.6979,1.3719,11.6131,1509,2815.71
12744,-2.5426,-1.2893,12.0081,1493,2815.71
12749,-3.2046,1.6963,9.5756,1497,2815.71
12754,1.2067,3.4153,10.1382,1525,2816.64
12759,1.4126,2.3128,11.236,1496,2816.64
12764,-1.8196,-1.1648,12.1901,1501,2816.64
12769,-3.8978,0.9708,10.3262,1496,2816.64
12774,0.5411,3.0765,9.8078,1541,2816.37
12779,2.2529,3.2346,10.7895,1498,2816.37
12784,-1.3922,-0.2083,12.1123,1495,2816.37
12789,-4.0067,0.0838,11.0061,1501,2816.37
12794,-0.4549,2.7749,9.4116,1560,2816.5
12799,2.059,3.7397,10.4088,1499,2816.5
12804,-1.6161,0.747,11.9052,1491,2816.5
12809,-3.6943,-0.8224,11.6562,1496,2816.5
12814,-3.3615,1.8878,9.4822,1564,2816.9
12819,1.9501,3.7649,10.2627,1496,2816.9
12824,1.4054,2.2003,11.2432,1511,2816.9
12829,-1.6975,-1.1696,12.1937,1497,2816.9
12834,-4.3287,1.0235,10.0952,1507,2816.9
12839,0.8128,3.1053,9.839,1527,2816.9
12844,2.5379,3.1137,10.7835,1494,2816.9
12849,-1.4162,-0.3112,12.1649,1497,2816.9
12854,-4.3574,0.0826,10.8697,1497,2816.9
12859,-0.3938,2.806,9.4786,1548,2817.43
12864,2.2182,3.7074,10.3992,1500,2817.43
12869,-1.8232,0.6991,11.9806,1494,2817.43
12874,-3.5925,-0.6716,11.6095,1497,2817.43
12879,-1.8375,2.4253,9.3709,1559,2817.3
12884,1.7621,3.7781,10.2819,1509,2817.3
12889,-0.6153,1.4401,11.6346,1496,2817.3
12894,-2.5295,-1.3108,12.0009,1501,2817.3
12899,-3.3974,1.7502,9.56,1561,2817.43
12904,1.3072,3.3758,10.0748,1497,2817.43
12909,1.5874,2.2853,11.2767,1506,2817.43
12914,-1.6783,-1.2258,12.1075,1498,2817.43
12919,-4.0761,0.8619,10.1658,1507,2817.43
12924,0.5303,3.0502,9.8126,1533,2817.56
12929,2.3499,3.2573,10.8469,1496,2817.56
12934,-1.2546,-0.1508,12.1434,1491,2817.56
12939,-4.4353,0.0946,11.0073,1497,2817.56
12944,-0.4896,2.8503,9.4715,1551,2817.7
12949,2.3727,3.8487,10.4722,1501,2817.7
12954,-1.7621,0.832,11.8657,1495,2817.7
12959,-3.6356,-0.7697,11.6394,1493,2817.7
12964,-2.1332,2.3511,9.3206,1557,2817.3
12969,1.8783,3.7373,10.2699,1507,2817.3
12974,-0.3232,1.5311,11.5472,1495,2817.3
12979,-2.3918,-1.324,12.0548,1506,2817.3
12984,-3.4261,1.585,9.6426,1565,2817.17
12989,1.1205,3.3088,10.0317,1497,2817.17
12994,1.7382,2.4289,11.1857,1499,2817.17
12999,-1.6197,-1.0068,12.2284,1495,2817.17
13004,-4.1061,0.8368,10.3082,1507,2817.17
13009,0.425,3.0203,9.7947,1542,2816.9
13014,2.375,3.3495,10.7296,1496,2816.9
13019,-1.5431,0.0299,12.1661,1497,2816.9
13024,-3.9552,-0.0359,11.0995,1497,2816.9
13029,-0.735,2.7318,9.4643,1547,2816.37
13034,1.9297,3.7469,10.3118,1499,2816.37
13039,-1.664,0.9409,11.9399,1501,2816.37
13044,-3.2872,-0.8835,11.7986,1497,2816.37
13049,-2.217,2.2338,9.4128,1559,2816.37
13054,1.5646,3.6619,10.2496,1493,2816.37
13059,-0.0778,1.646,11.57,1498,2816.37
13064,-2.302,-1.2821,12.0764,1507,2816.37
13069,-3.48,1.5359,9.7492,1563,2816.24
13074,1.0116,3.3208,10.0161,1499,2816.24
13079,1.8723,2.5355,11.1546,1505,2816.24
13084,-1.4341,-0.8667,12.2056,1486,2816.24
13089,-4.1037,0.656,10.4028,1501,2816.24
13094,0.2083,3.0071,9.7324,1525,2816.24
13099,2.2745,3.4069,10.6506,1507,2816.24
13104,-1.6448,0.1269,12.074,1498,2816.24
13109,-3.9109,-0.1915,11.2863,1496,2816.24
13114,-0.9601,2.6576,9.4691,1519,2816.24
13119,1.919,3.7888,10.3298,1495,2816.24
13124,-1.573,1.0223,11.7986,1499,2816.24
13129,-3.0765,-0.9349,11.8393,1496,2816.24
13134,-2.472,2.1344,9.3984,1559,2816.64
13139,1.5419,3.6308,10.1718,1502,2816.64
13144,0.2969,1.7573,11.4682,1495,2816.64
13149,-2.0746,-1.3204,12.1326,1501,2816.64
13154,-3.6488,1.3216,9.8078,2623,2815.18
13159,0.8894,3.219,9.9335,1507,2815.18
13164,2.0722,2.6851,11.0301,1501,2815.18
13169,-1.5909,-0.7841,12.1386,1494,2815.18
13174,-3.9265,0.5758,10.5596,1495,2815.18
13179,0.067,2.9329,9.6606,1541,2818.62
13184,2.1739,3.5207,10.6662,1503,2818.62
13189,-1.6137,0.322,12.1278,1496,2818.62
13194,-3.8176,-0.2634,11.3497,1497,2818.62
13199,-1.1624,2.6228,9.3877,1542,2817.3
13204,1.9728,3.8199,10.3489,1491,2817.3
13209,-1.3228,1.0846,11.7831,1498,2817.3
13214,-3.1232,-1.1049,11.8776,1491,2817.3
13219,-2.8479,2.059,9.4056,1529,2817.56
13224,1.6484,3.571,10.2436,1501,2817.56
13229,0.6835,1.8866,11.4012,1502,2817.56
13234,-2.0842,-1.3108,12.1542,1491,2817.56
13239,-3.9157,1.2522,9.912,1497,2817.56
13244,0.9158,3.1843,9.9742,1529,2817.56
13249,2.3188,2.8623,10.9966,1499,2817.56
13254,-1.5095,-0.6177,12.1925,1497,2817.56
13259,-4.1719,0.4369,10.6757,1495,2817.56
13264,-0.0383,2.903,9.6031,1530,2817.7
13269,2.2889,3.6332,10.5465,1499,2817.7
13274,-1.7095,0.3663,11.9698,1495,2817.7
13279,-3.7936,-0.431,11.3629,1508,2817.7
13284,-1.3587,2.5618,9.3266,1558,2817.83
13289,1.8615,3.7685,10.2723,1498,2817.83
13294,-1.1947,1.2067,11.7088,1495,2817.83
13299,-2.8982,-1.1516,12.0093,1496,2817.83
13304,-2.8204,1.9656,9.487,1566,2818.09
13309,1.3743,3.5338,10.1251,1499,2818.09
13314,0.8835,1.992,11.3401,1509,2818.09
13319,-1.8507,-1.1911,12.1949,1495,2818.09
13324,-3.9193,1.2103,9.9288,1497,2818.09
13329,0.741,3.1867,9.9156,1525,2818.36
13334,2.3571,2.9353,10.969,1495,2818.36
13339,-1.4796,-0.5423,12.1937,1499,2818.36
13344,-4.1276,0.3328,10.6985,1499,2818.36
13349,-0.1245,2.7928,9.5577,1547,2819.02
13354,2.2098,3.6428,10.556,1499,2819.02
13359,-1.7645,0.4896,11.9746,1491,2819.02
13364,-3.6787,-0.4609,11.5748,1501,2819.02
13369,-1.4988,2.5546,9.3901,1562,2818.89
13374,1.8364,3.8583,10.3394,1507,2818.89
13379,-1.0283,1.2773,11.6921,1495,2818.89
13384,-2.8814,-1.2186,11.9566,1495,2818.89
13389,-2.8048,1.8866,9.5457,1567,2818.89
13394,1.2534,3.4393,10.0832,1491,2818.89
13399,0.9828,2.1177,11.3641,1511,2818.89
13404,-1.8387,-1.2857,12.1841,1499,2818.89
13409,-3.899,1.0906,10.07,1503,2818.89
13414,0.7171,3.134,9.9024,1517,2818.75
13419,2.2661,3.061,10.9439,1495,2818.75
13424,-1.5107,-0.4417,12.153,1497,2818.75
13429,-4.0426,0.2885,10.8433,1496,2818.75
13434,-0.2203,2.8862,9.5361,1543,2819.55
13439,2.1632,3.6955,10.4746,1498,2819.55
13444,-1.7274,0.6045,11.9997,1491,2819.55
13449,-3.6033,-0.5148,11.5831,1499,2819.55
13454,-1.5538,2.5079,9.2979,1559,2819.68
13459,1.7681,3.729,10.2508,1507,2819.68
13464,-0.9301,1.3336,11.6598,1495,2819.68
13469,-2.7737,-1.2115,11.9854,1497,2819.68
13474,-2.9628,1.822,9.5457,1557,2819.42
13479,1.1732,3.3806,10.1047,1497,2819.42
13484,1.1612,2.1871,11.376,1507,2819.42
13489,-1.7753,-1.172,12.1817,1499,2819.42
13494,-4.0091,1.0762,10.0987,1513,2819.42
13499,0.6596,3.134,9.827,1541,2819.68
13504,2.3607,3.0909,10.8433,1498,2819.68
13509,-1.5395,-0.3148,12.1326,1495,2819.68
13514,-4.0402,0.2203,10.8613,1495,2819.68
13519,-0.3184,2.8216,9.5505,1549,2819.15
13524,2.0961,3.6667,10.4411,1497,2819.15
13529,-1.6352,0.583,12.0021,1493,2819.15
13534,-3.6057,-0.674,11.5879,1493,2819.15
13539,-1.7597,2.4421,9.3853,1557,2819.02
13544,1.7957,3.7828,10.3142,1501,2819.02
13549,-0.759,1.397,11.6562,1495,2819.02
13554,-2.6983,-1.2115,12.0117,1503,2819.02
13559,-3.0574,1.8016,9.5804,1529,2818.89
13564,1.2151,3.4429,10.0497,1497,2818.89
13569,1.3587,2.1823,11.3042,1506,2818.89
13574,-1.7119,-1.1624,12.2164,1495,2818.89
13579,-3.9863,0.9948,10.1993,1511,2818.89
13584,0.5878,3.0694,9.8342,1542,2818.62
13589,2.3691,3.0873,10.8386,1495,2818.62
13594,-1.4892,-0.2825,12.0787,1500,2818.62
13599,-4.045,0.1832,10.9331,1493,2818.62
13604,-0.4238,2.8323,9.4703,1544,2818.36
13609,2.0746,3.7541,10.4543,1503,2818.36
13614,-1.7382,0.7817,11.9722,1494,2818.36
13619,-3.5338,-0.6668,11.6191,1493,2818.36
13624,-1.8232,2.3583,9.3637,1559,2818.22
13629,1.7154,3.6799,10.2101,1503,2818.22
13634,-0.5602,1.4748,11.5556,1495,2818.22
13639,-2.5618,-1.306,12.0225,1503,2818.22
13644,-3.2142,1.6388,9.6522,1546,2818.36
13649,1.1313,3.2932,10.0102,1496,2818.36
13654,1.585,2.3379,11.2659,1497,2818.36
13659,-1.6221,-1.0798,12.1913,1495,2818.36
13664,-4.1719,0.8811,10.1861,1507,2818.36
13669,0.5447,3.1077,9.7504,1532,2818.75
13674,2.4445,3.2801,10.7931,1498,2818.75
13679,-1.6029,-0.091,12.1578,1499,2818.75
13684,-4.0259,0.0455,10.9678,1497,2818.75
13689,-0.5375,2.7821,9.4152,1544,2818.89
13694,2.0662,3.7625,10.3777,1497,2818.89
13699,-1.646,0.7973,11.9459,1499,2818.89
13704,-3.4955,-0.8535,11.6622,1496,2818.89
13709,-2.0614,2.2865,9.3146,1560,2819.15
13714,1.7166,3.6715,10.2711,1485,2819.15
13719,-0.3065,1.5203,11.546,1496,2819.15
13724,-2.5522,-1.2773,12.0596,1503,2819.15
13729,-3.2908,1.6424,9.7025,1563,2819.28
13734,1.0858,3.3507,10.0748,1497,2819.28
13739,1.6712,2.4026,11.2551,1499,2819.28
13744,-1.6101,-0.9996,12.1949,1492,2819.28
13749,-3.9492,0.8464,10.2568,1507,2819.28
13754,0.3555,3.0478,9.7384,1533,2819.55
13759,2.3535,3.2609,10.6889,1499,2819.55
13764,-1.4676,-0.0587,12.0907,1497,2819.55
13769,-4.0259,-0.0215,11.145,1496,2819.55
13774,-0.6716,2.7186,9.4619,1530,2819.81
13779,2.0051,3.7792,10.3705,1511,2819.81
13784,-1.6903,0.8487,11.8405,1500,2819.81
13789,-3.4165,-0.8332,11.7651,1498,2819.81
13794,-2.1548,2.2063,9.3757,1560,2819.81
13799,1.6568,3.705,10.2388,1499,2819.81
13804,-0.1856,1.6029,11.552,1495,2819.81
13809,-2.326,-1.2941,12.1386,1508,2819.81
13814,-3.6536,1.5838,9.6403,1565,2819.95
13819,1.2115,3.3232,10.0305,1501,2819.95
13824,1.986,2.4373,11.1546,1501,2819.95
13829,-1.403,-1.0367,12.1721,1497,2819.95
13834,-4.5011,0.7159,10.258,1496,2819.95
13839,0.4872,2.9999,9.7671,1529,2819.55
13844,2.5702,3.3531,10.732,1509,2819.55
13849,-1.5143,-0.006,12.1063,1497,2819.55
13854,-4.367,-0.0694,11.1067,1498,2819.55
13859,-0.7195,2.7557,9.4128,1559,2819.42
13864,2.241,3.8271,10.4232,1497,2819.42
13869,-1.7131,0.905,11.8381,1501,2819.42
13874,-3.3124,-0.8296,11.7364,1497,2819.42
13879,-2.2374,2.2206,9.3422,1561,2819.15
13884,1.5945,3.6248,10.2556,1503,2819.15
13889,0.0539,1.6209,11.5041,1499,2819.15
13894,-2.3224,-1.3982,12.0428,1501,2819.15
13899,-3.5554,1.5024,9.6618,1541,2819.28
13904,1.0247,3.2633,10.0329,1505,2819.28
13909,1.9405,2.575,11.157,1510,2819.28
13914,-1.6628,-0.8978,12.1997,1495,2819.28
13919,-3.9851,0.7542,10.422,1494,2819.28
13924,0.2825,2.9916,9.7516,1533,2819.68
13929,2.3008,3.4273,10.6506,1503,2819.68
13934,-1.5036,0.1329,12.0883,1496,2819.68
13939,-4.0654,-0.182,11.2025,1496,2819.68
13944,-0.9002,2.6971,9.3757,1561,2819.55
13949,2.059,3.7828,10.386,1497,2819.55
13954,-1.5,0.9409,11.8214,1499,2819.55
13959,-3.3986,-1.0427,11.8429,1497,2819.55
13964,-2.5486,2.2098,9.2967,1563,2819.55
13969,1.7681,3.65,10.3142,1499,2819.55
13974,0.2538,1.7011,11.5987,1497,2819.55
13979,-2.2853,-1.2426,12.1613,1493,2819.55
13984,-3.5745,1.506,9.7576,1497,2819.55
13989,0.9445,3.286,9.9527,1531,2819.81
13994,2.0698,2.6073,11.1235,1502,2819.81
13999,-1.4892,-0.8033,12.135,1495,2819.81
14004,-4.1049,0.6273,10.4076,1495,2819.81
14009,0.1568,2.9532,9.6833,1527,2819.81
14014,2.2853,3.4261,10.7093,1501,2819.81
14019,-1.6245,0.1616,12.1171,1493,2819.81
14024,-3.875,-0.1472,11.2863,1511,2819.81
14029,-0.9613,2.6875,9.4332,1561,2819.95
14034,1.8016,3.7792,10.3394,1497,2819.95
14039,-1.5131,1.0523,11.8776,1495,2819.95
14044,-3.1388,-0.9469,11.8465,1493,2819.95
14049,-2.4062,2.1691,9.4044,1554,2819.95
14054,1.4724,3.5961,10.2244,1497,2819.95
14059,0.3699,1.7693,11.4994,1500,2819.95
14064,-2.1452,-1.3647,12.0728,1484,2819.95
14069,-3.6631,1.391,9.8067,1491,2819.95
14074,0.9301,3.1735,9.9419,1517,2820.21
14079,2.1189,2.6707,11.0349,1507,2820.21
14084,-1.4796,-0.7901,12.2116,1497,2820.21
14089,-4.1408,0.6045,10.5512,1493,2820.21
14094,0.1269,2.9604,9.6845,1525,2820.34
14099,2.3595,3.5434,10.5991,1495,2820.34
14104,-1.7442,0.2466,12.1147,1491,2820.34
14109,-3.8666,-0.2011,11.3162,1503,2820.34
14114,-1.0918,2.6456,9.3386,1555,2820.34
14119,1.907,3.7984,10.319,1496,2820.34
14124,-1.3874,1.0523,11.8058,1493,2820.34
14129,-3.0897,-1.0654,11.795,1493,2820.34
14134,-2.6707,2.0877,9.3494,1532,2819.95
14139,1.4724,3.5494,10.2496,1495,2819.95
14144,0.5231,1.7885,11.4215,1501,2819.95
14149,-2.0506,-1.3719,12.1063,1486,2819.95
14154,-3.869,1.3479,9.7504,1493,2819.95
14159,0.9876,3.2417,10.0042,1517,2820.87
14164,2.2841,2.7509,11.0672,1495,2820.87
14169,-1.5299,-0.6584,12.226,1497,2820.87
14174,-4.1863,0.5243,10.5836,1491,2820.87
14179,0.0778,2.9485,9.6295,1531,2820.08
14184,2.3523,3.5207,10.58,1497,2820.08
14189,-1.6927,0.2885,12.0357,1484,2820.08
14194,-3.9085,-0.3998,11.297,1501,2820.08
14199,-1.2677,2.6085,9.3565,1559,2819.28
14204,1.901,3.7733,10.3693,1493,2819.28
14209,-1.3372,1.0906,11.8764,1493,2819.28
14214,-3.1053,-1.0451,11.8776,1491,2819.28
14219,-2.6145,2.0614,9.4583,1533,2818.49
14224,1.4305,3.5805,10.1382,1493,2818.49
14229,0.6369,1.8364,11.4766,1503,2818.49
14234,-2.0171,-1.2558,12.1661,1502,2818.49
14239,-3.7002,1.3072,9.9431,1496,2818.49
14244,0.8284,3.1639,9.8988,1515,2817.96
14249,2.2206,2.788,10.9559,1493,2817.96
14254,-1.4114,-0.6728,12.1338,1495,2817.96
14259,-4.124,0.4609,10.7117,1493,2817.96
14264,-0.0515,2.9173,9.6259,1535,2817.83
14269,2.2218,3.6105,10.5908,1495,2817.83
14274,-1.7921,0.3998,12.1039,1491,2817.83
14279,-3.7649,-0.2969,11.4275,1493,2817.83
14284,-1.33,2.5367,9.3637,1555,2817.43
14289,1.9106,3.7984,10.2903,1501,2817.43
14294,-1.1528,1.2354,11.7436,1493,2817.43
14299,-2.8048,-1.1097,11.9339,1495,2817.43
14304,-2.9149,1.9501,9.4272,1550,2817.17
14309,1.4126,3.4836,10.1981,1487,2817.17
14314,0.9948,1.9357,11.3665,1503,2817.17
14319,-1.9333,-1.3204,12.1063,1491,2817.17
14324,-3.8846,1.142,9.9515,1507,2817.17
14329,0.735,3.1663,9.8904,1527,2816.9
14334,2.2649,2.9928,10.9786,1494,2816.9
14339,-1.4198,-0.492,12.1913,1491,2816.9
14344,-4.2102,0.419,10.7488,1493,2816.9
14349,-0.1173,2.8982,9.5684,1545,2816.9
14354,2.2817,3.6799,10.4639,1495,2816.9
14359,-1.6017,0.51,11.9973,1493,2816.9
14364,-3.9085,-0.5722,11.4898,1491,2816.9
14369,-1.5957,2.484,9.323,1555,2816.9
14374,1.9668,3.7697,10.3884,1499,2816.9
14379,-0.9756,1.2486,11.7041,1491,2816.9
14384,-2.8587,-1.2366,11.9614,1500,2816.9
14389,-3.237,1.9058,9.4248,1557,2816.9
14394,1.5251,3.4692,10.2364,1493,2816.9
14399,1.3408,2.0901,11.3617,1499,2816.9
14404,-1.7705,-1.154,12.2056,1494,2816.9
14409,-4.3251,1.1037,10.0173,1507,2816.9
14414,0.8428,3.1208,9.8821,1528,2816.9
14419,2.5881,3.0526,10.8673,1493,2816.9
14424,-1.5215,-0.3639,12.1218,1485,2816.9
14429,-4.2904,0.1999,10.8242,1487,2816.9
14434,-0.3089,2.8204,9.4619,1550,2817.43
14439,2.1488,3.6847,10.4938,1497,2817.43
14444,-1.6747,0.6404,12.0165,1495,2817.43
14449,-3.9014,-0.7027,11.5963,1493,2817.43
14454,-1.8435,2.5007,9.2811,1565,2817.83
14459,1.9501,3.8367,10.386,1497,2817.83
14464,-0.7075,1.3515,11.6849,1493,2817.83
14469,-2.6707,-1.2737,12.0117,1503,2817.83
14474,-3.4692,1.8352,9.5385,1555,2817.7
14479,1.5,3.4716,10.1502,1497,2817.7
14484,1.6712,2.1907,11.3066,1495,2817.7
14489,-1.6795,-1.1815,12.1494,1492,2817.7
14494,-4.4029,0.9445,10.0664,1501,2817.7
14499,0.7087,3.0574,9.7839,1523,2817.56
14504,2.545,3.1807,10.8529,1499,2817.56
14509,-1.6759,-0.2526,12.129,1495,2817.56
14514,-4.1551,0.1556,11.0038,1492,2817.56
14519,-0.4752,2.8287,9.4751,1527,2817.56
14524,2.0937,3.7481,10.4543,1493,2817.56
14529,-1.5957,0.7506,11.9411,1499,2817.56
14534,-3.6847,-0.7386,11.6179,1495,2817.56
14539,-2.0626,2.3846,9.2799,1557,2817.43
14544,1.9489,3.7038,10.3226,1497,2817.43
14549,-0.3831,1.4688,11.5544,1495,2817.43
14554,-2.4756,-1.3551,12.0512,1497,2817.43
14559,-3.5997,1.6843,9.5505,1547,2817.17
14564,1.3276,3.3327,10.1227,1498,2817.17
14569,1.828,2.3739,11.2623,1497,2817.17
14574,-1.5646,-1.0942,12.2104,1491,2817.17
14579,-4.5394,0.923,10.1837,1497,2817.17
14584,0.6345,3.0418,9.7743,1525,2818.22
14589,2.6444,3.3088,10.7332,1501,2818.22
14594,-1.737,-0.0946,12.1625,1491,2818.22
14599,-4.0725,0.0443,11.06,1493,2818.22
14604,-0.6512,2.7426,9.402,1555,2818.09
14609,2.047,3.7757,10.3968,1495,2818.09
14614,-1.5,0.82,11.9183,1494,2818.09
14619,-3.4477,-0.8655,11.649,1492,2818.09
14624,-2.0806,2.2853,9.3051,1557,2818.36
14629,1.5981,3.6655,10.2568,1500,2818.36
14634,-0.2203,1.567,11.6298,1496,2818.36
14639,-2.4624,-1.3288,12.0931,1495,2818.36
14644,-3.456,1.6221,9.6774,1496,2818.36
14649,1.1408,3.3267,10.0281,1527,2818.62
14654,1.8806,2.4768,11.2013,1498,2818.62
14659,-1.6472,-0.9445,12.1673,1487,2818.62
14664,-4.0677,0.8104,10.4076,1489,2818.62
14669,0.3496,3.0323,9.7013,1525,2819.15
14674,2.3691,3.3579,10.6865,1503,2819.15
14679,-1.4928,0.0072,12.1183,1486,2819.15
14684,-4.0737,-0.0862,11.1103,1500,2819.15
14689,-0.7829,2.727,9.4116,1558,2819.68
14694,2.0219,3.802,10.4184,1491,2819.68
14699,-1.6508,0.9218,11.8956,1495,2819.68
14704,-3.3315,-0.8392,11.7687,1495,2819.68
14709,-2.2541,2.2853,9.3889,1543,2820.21
14714,1.6472,3.7038,10.1933,1496,2820.21
14719,0.0862,1.6089,11.5185,1495,2820.21
14724,-2.3176,-1.3659,12.074,1485,2820.21
14729,-3.7373,1.5395,9.6546,1493,2820.21
14734,1.2186,3.3172,10.0712,1515,2820.08
14739,2.0698,2.5522,11.1151,1499,2820.08
14744,-1.3647,-0.9134,12.2715,1495,2820.08
14749,-4.6244,0.7123,10.2759,1493,2820.08
14754,0.4609,3.0418,9.7348,1515,2820.21
14759,2.5989,3.4273,10.6745,1497,2820.21
14764,-1.5993,0.097,12.1709,1486,2820.21
14769,-4.3934,-0.152,11.1546,1503,2820.21
14774,-0.8236,2.7198,9.3745,1546,2820.08
14779,2.2374,3.8535,10.4088,1493,2820.08
14784,-1.555,0.9529,11.8705,1491,2820.08
14789,-3.4608,-0.9529,11.716,1495,2820.08
14794,-2.5426,2.1991,9.268,1529,2820.21
14799,1.8088,3.6547,10.3322,1495,2820.21
14804,0.1664,1.6376,11.5891,1507,2820.21
14809,-2.2829,-1.3443,12.147,1485,2820.21
14814,-3.9516,1.5036,9.6139,1493,2820.21
14819,1.3001,3.3255,10.0832,1523,2820.87
14824,2.2266,2.5869,11.0875,1500,2820.87
14829,-1.4329,-0.8392,12.232,1503,2820.87
14834,-4.5657,0.6788,10.3286,1483,2820.87
14839,0.4262,2.9509,9.7037,1529,2821.27
14844,2.575,3.4333,10.7105,1495,2821.27
14849,-1.5957,0.1041,12.1123,1491,2821.27
14854,-4.2114,-0.2095,11.1151,1502,2821.27
14859,-0.9397,2.6588,9.3482,1547,2821.27
14864,2.1296,3.8427,10.4064,1493,2821.27
14869,-1.4832,0.9493,11.8525,1491,2821.27
14874,-3.4429,-1.0463,11.8178,1491,2821.27
14879,-2.6396,2.2063,9.2883,1564,2820.87
14884,1.7909,3.62,10.325,1497,2820.87
14889,0.3855,1.6628,11.4898,1499,2820.87
14894,-2.2577,-1.318,12.1099,1485,2820.87
14899,-3.9492,1.5048,9.6857,1493,2820.87
14904,1.2546,3.2765,10.0497,1519,2820.34
14909,2.2458,2.6085,11.0636,1493,2820.34
14914,-1.4724,-0.8356,12.2248,1500,2820.34
14919,-4.4628,0.6093,10.392,1494,2820.34
14924,0.2957,2.9209,9.6163,1529,2820.08
14929,2.478,3.4728,10.6745,1496,2820.08
14934,-1.7561,0.1293,12.0632,1491,2820.08
14939,-4.0689,-0.1867,11.236,1501,2820.08
14944,-1.0056,2.6755,9.3805,1556,2819.81
14949,2.0303,3.8571,10.392,1500,2819.81
14954,-1.4102,1.0427,11.8477,1490,2819.81
14959,-3.2741,-1.0163,11.8142,1497,2819.81
14964,-2.624,2.1703,9.262,1565,2819.95
14969,1.743,3.6559,10.2843,1493,2819.95
14974,0.4681,1.7526,11.4491,1503,2819.95
14979,-2.1296,-1.385,12.1793,1499,2819.95
14984,-3.8918,1.3827,9.7899,1497,2819.95
14989,1.0187,3.2058,9.9958,1519,2819.95
14994,2.2051,2.6396,11.0935,1493,2819.95
14999,-1.4066,-0.8452,12.1937,1495,2819.95
15004,-4.5107,0.6069,10.4603,1491,2819.95
15009,0.2729,2.958,9.6474,1543,2819.95
15014,2.5127,3.5303,10.659,1495,2819.95
15019,-1.8268,0.2107,12.0416,1487,2819.95
15024,-3.8583,-0.1879,11.3282,1493,2819.95
15029,-1.0906,2.6528,9.2715,1555,2819.42
15034,1.8842,3.8032,10.3178,1506,2819.42
15039,-1.2605,1.0822,11.7938,1495,2819.42
15044,-3.1819,-1.0977,11.8681,1496,2819.42
15049,-2.8228,2.1165,9.3099,1559,2819.55
15054,1.731,3.5781,10.2951,1493,2819.55
15059,0.674,1.8555,11.4431,1507,2819.55
15064,-2.0937,-1.3216,12.1613,1495,2819.55
15069,-4.1288,1.3551,9.7659,1507,2819.55
15074,1.1863,3.2645,9.9683,1519,2819.42
15079,2.3906,2.8084,10.993,1493,2819.42
15084,-1.3827,-0.6871,12.2284,1493,2819.42
15089,-4.5897,0.4764,10.495,1497,2819.42
15094,0.1688,2.964,9.6187,1543,2819.81
15099,2.4972,3.5745,10.6566,1497,2819.81
15104,-1.6735,0.2957,12.1374,1491,2819.81
15109,-4.1719,-0.3747,11.2492,1497,2819.81
15114,-1.2534,2.6348,9.2703,1553,2820.08
15119,2.0698,3.8247,10.3789,1504,2820.08
15124,-1.2474,1.0953,11.8274,1499,2820.08
15129,-3.1747,-1.1564,11.9004,1501,2820.08
15134,-2.9544,2.1428,9.3338,1555,2820.21
15139,1.7322,3.5901,10.252,1495,2820.21
15144,0.8392,1.8603,11.4754,1501,2820.21
15149,-2.0111,-1.3276,12.129,1496,2820.21
15154,-4.1659,1.3372,9.8031,1508,2820.21
15159,1.0726,3.2046,9.9754,1530,2820.34
15164,2.4014,2.8072,10.9798,1495,2820.34
15169,-1.5287,-0.6656,12.214,1491,2820.34
15174,-4.4089,0.4621,10.6051,1494,2820.34
15179,0.0024,2.909,9.56,1519,2820.48
15184,2.3583,3.5674,10.6243,1498,2820.48
15189,-1.5586,0.3986,12.1039,1495,2820.48
15194,-4.2306,-0.3915,11.3713,1491,2820.48
15199,-1.3515,2.6468,9.2847,1555,2820.08
15204,2.1763,3.881,10.4184,1501,2820.08
15209,-1.227,1.1456,11.7507,1495,2820.08
15214,-3.0442,-1.0918,11.886,1501,2820.08
15219,-2.8503,2.0135,9.3565,1527,2819.55
15224,1.5155,3.5219,10.1754,1491,2819.55
15229,0.8583,1.9058,11.3988,1503,2819.55
15234,-1.9393,-1.3192,12.238,1493,2819.55
15239,-4.0211,1.2163,9.8533,1509,2819.55
15244,0.8667,3.1711,9.9754,1523,2819.95
15249,2.3355,2.8539,10.9212,1496,2819.95
15254,-1.561,-0.5902,12.1829,1485,2819.95
15259,-4.0821,0.4274,10.6338,1495,2819.95
15264,-0.0898,2.9365,9.6187,1540,2819.81
15269,2.1548,3.6009,10.5405,1499,2819.81
15274,-1.6137,0.4453,12.1566,1494,2819.81
15279,-3.8068,-0.4513,11.4694,1495,2819.81
15284,-1.4138,2.6133,9.2955,1557,2820.21
15289,1.9417,3.8331,10.3154,1501,2820.21
15294,-1.0403,1.2234,11.7136,1491,2820.21
15299,-2.909,-1.2067,11.9435,1503,2820.21
15304,-3.0514,1.9644,9.4715,1529,2820.21
15309,1.4808,3.5051,10.1897,1491,2820.21
15314,1.0726,1.9704,11.4323,1495,2820.21
15319,-1.8806,-1.233,12.2128,1495,2820.21
15324,-4.1456,1.233,9.9252,1501,2820.21
15329,0.893,3.219,9.906,1524,2821.94
15334,2.4852,2.8982,10.9654,1498,2821.94
15339,-1.3611,-0.4705,12.226,1490,2821.94
15344,-4.5442,0.3112,10.7105,1489,2821.94
15349,-0.0527,2.9257,9.5565,1541,2821.54
15354,2.4445,3.644,10.5321,1501,2821.54
15359,-1.7083,0.4944,12.0141,1497,2821.54
15364,-4.0498,-0.504,11.388,1495,2821.54
15369,-1.5538,2.5331,9.2656,1557,2821.14
15374,2.0925,3.8403,10.3657,1497,2821.14
15379,-1.0391,1.1791,11.7196,1493,2821.14
15384,-2.9664,-1.1768,11.9902,1501,2821.14
15389,-3.1328,1.9537,9.3673,1563,2820.61
15394,1.6305,3.5362,10.1562,1492,2820.61
15399,1.1468,1.9836,11.3629,1495,2820.61
15404,-1.9477,-1.2246,12.1985,1485,2820.61
15409,-3.893,1.1516,9.9683,1497,2820.61
15414,0.668,3.1376,9.8294,1511,2820.34
15419,2.3343,2.9401,10.9523,1497,2820.34
15424,-1.4629,-0.5327,12.2104,1492,2820.34
15429,-4.2066,0.3831,10.8134,1495,2820.34
15434,-0.2514,2.8838,9.511,1531,2820.21
15439,2.1955,3.6907,10.5369,1499,2820.21
15444,-1.7765,0.4908,12.0081,1501,2820.21
15449,-3.559,-0.3867,11.5209,1499,2820.21
15454,-1.4198,2.4708,9.3553,1555,2820.34
15459,1.6316,3.7553,10.2675,1494,2820.34
15464,-0.9481,1.3216,11.6849,1495,2820.34
15469,-2.7629,-1.1648,11.9842,1501,2820.34
15474,-2.9209,1.8507,9.4882,1563,2820.61
15479,1.2474,3.4213,10.0975,1499,2820.61
15484,1.1313,2.0686,11.3725,1501,2820.61
15489,-1.8878,-1.2773,12.1434,1495,2820.61
15494,-3.9576,1.0834,10.1011,1501,2820.61
15499,0.6345,3.0921,9.8414,1527,2820.87
15504,2.2577,3.0394,10.9511,1503,2820.87
15509,-1.5407,-0.4405,12.1398,1498,2820.87
15514,-4.0857,0.2885,10.8481,1493,2820.87
15519,-0.2741,2.8671,9.4547,1528,2821.14
15524,2.2015,3.6907,10.5285,1497,2821.14
15529,-1.7346,0.5339,12.0021,1501,2821.14
15534,-3.5243,-0.4836,11.57,1500,2821.14
15539,-1.494,2.4253,9.3194,1559,2821.14
15544,1.6352,3.6607,10.1861,1493,2821.14
15549,-0.8631,1.2797,11.7112,1497,2821.14
15554,-2.7438,-1.2127,12.0656,1500,2821.14
15559,-3.0335,1.895,9.5074,1564,2820.87
15564,1.2749,3.4572,10.1191,1499,2820.87
15569,1.2809,2.1548,11.3808,1503,2820.87
15574,-1.8064,-1.1863,12.2212,1492,2820.87
15579,-3.9373,1.1085,10.0616,1499,2820.87
15584,0.6213,3.1328,9.7947,1527,2820.61
15589,2.3487,3.0394,10.8948,1507,2820.61
15594,-1.5933,-0.4178,12.1829,1495,2820.61
15599,-3.9097,0.3208,10.8637,1496,2820.61
15604,-0.3029,2.8264,9.5098,1516,2820.08
15609,1.9968,3.644,10.4686,1495,2820.08
15614,-1.6556,0.6153,12.0081,1498,2820.08
15619,-3.626,-0.5602,11.5401,1493,2820.08
15624,-1.7669,2.5271,9.3458,1559,2819.28
15629,1.8052,3.8451,10.3022,1502,2819.28
15634,-0.753,1.3743,11.7256,1493,2819.28
15639,-2.794,-1.1935,11.9435,1498,2819.28
15644,-2.9329,1.81,9.6474,1523,2818.89
15649,1.1516,3.3639,9.9719,1503,2818.89
15654,1.2737,2.162,11.2647,1507,2818.89
15659,-1.6005,-1.239,12.1625,1493,2818.89
15664,-4.1515,1.0187,10.1203,1496,2818.89
15669,0.5614,3.0933,9.8174,1527,2819.28
15674,2.4062,3.1436,10.8864,1505,2819.28
15679,-1.6556,-0.3352,12.2116,1491,2819.28
15684,-4.0869,0.2203,10.9487,1495,2819.28
15689,-0.4082,2.8407,9.5158,1559,2819.15
15694,2.1237,3.7278,10.398,1493,2819.15
15699,-1.7346,0.7542,11.9375,1499,2819.15
15704,-3.4584,-0.5531,11.6298,1495,2819.15
15709,-1.7047,2.4217,9.4068,1557,2819.55
15714,1.6328,3.6871,10.1849,1501,2819.55
15719,-0.5878,1.3671,11.6274,1495,2819.55
15724,-2.496,-1.3264,11.9973,1493,2819.55
15729,-3.2561,1.6939,9.5074,1495,2819.55
15734,1.2043,3.3591,10.07,1523,2819.55
15739,1.5526,2.2589,11.2923,1497,2819.55
15744,-1.9046,-1.1145,12.1853,1495,2819.55
15749,-3.9768,1.0032,10.2484,1492,2819.55
15754,0.5399,3.1041,9.7648,1527,2820.21
15759,2.3152,3.1831,10.7811,1501,2820.21
15764,-1.4784,-0.1879,12.2009,1496,2820.21
15769,-4.0175,0.1365,10.9068,1501,2820.21
15774,-0.516,2.7988,9.4451,1561,2820.21
15779,2.047,3.6883,10.392,1493,2820.21
15784,-1.67,0.7147,12.0105,1495,2820.21
15789,-3.4548,-0.7075,11.5748,1499,2820.21
15794,-1.828,2.3619,9.3661,1562,2820.61
15799,1.6041,3.7062,10.2149,1497,2820.61
15804,-0.4776,1.4102,11.6382,1498,2820.61
15809,-2.4948,-1.2917,12.1099,1491,2820.61
15814,-3.6966,1.7645,9.5816,1495,2820.61
15819,1.5335,3.48,10.1694,1525,2820.48
15824,1.8543,2.2996,11.2408,1499,2820.48
15829,-1.9118,-1.1349,12.1266,1497,2820.48
15834,-3.9337,0.917,10.1993,1491,2820.48
15839,0.4836,3.0251,9.73,1527,2820.48
15844,2.3188,3.1759,10.7835,1496,2820.48
15849,-1.4305,-0.1437,12.1673,1491,2820.48
15854,-4.0773,0.0634,11.0253,1506,2820.48
15859,-0.6165,2.7892,9.4487,1556,2820.34
15864,2.0806,3.7697,10.4303,1497,2820.34
15869,-1.7238,0.7733,11.9291,1495,2820.34
15874,-3.462,-0.7027,11.6873,1495,2820.34
15879,-2.0877,2.3535,9.3434,1542,2820.61
15884,1.7753,3.7781,10.3011,1497,2820.61
15889,-0.2622,1.5131,11.5951,1502,2820.61
15894,-2.4756,-1.3228,12.0811,1487,2820.61
15899,-3.7529,1.6448,9.5541,1491,2820.61
15904,1.4641,3.377,10.1167,1520,2820.34
15909,1.9046,2.3284,11.1534,1497,2820.34
15914,-1.5897,-1.0774,12.2607,1503,2820.34
15919,-4.5191,0.8631,10.2256,1497,2820.34
15924,0.5962,3.0562,9.7971,1528,2820.48
15929,2.5654,3.3016,10.7655,1499,2820.48
15934,-1.5179,-0.0766,12.2212,1487,2820.48
15939,-4.4233,0.0359,10.9882,1507,2820.48
15944,-0.565,2.7845,9.4056,1563,2820.34
15949,2.3032,3.7816,10.4651,1498,2820.34
15954,-1.7609,0.814,11.8716,1491,2820.34
15959,-3.3782,-0.7422,11.7112,1493,2820.34
15964,-2.0123,2.2398,9.3278,1564,2820.48
15969,1.561,3.6212,10.1634,1497,2820.48
15974,-0.1772,1.4928,11.5939,1501,2820.48
15979,-2.3439,-1.3599,12.0991,1491,2820.48
15984,-3.8343,1.6783,9.5804,1497,2820.48
15989,1.4198,3.3854,10.1203,1517,2820.08
15994,1.9728,2.4792,11.2527,1493,2820.08
15999,-1.7454,-0.9505,12.1985,1508,2820.08
16004,-4.1432,0.8643,10.3453,1495,2820.08
16009,0.3759,3.0406,9.7109,1543,2820.21
16014,2.4098,3.3208,10.6997,1495,2820.21
16019,-1.6053,-0.0503,12.0919,1491,2820.21
16024,-3.8834,0.0,11.1402,1497,2820.21
16029,-0.7015,2.6779,9.3865,1553,2819.81
16034,1.8962,3.7326,10.3657,1499,2819.81
16039,-1.5838,0.8643,11.9207,1493,2819.81
16044,-3.3447,-0.82,11.7807,1495,2819.81
16049,-2.1644,2.2936,9.3589,1561,2819.68
16054,1.5754,3.7146,10.2125,1495,2819.68
16059,-0.0682,1.6269,11.5784,1507,2819.68
16064,-2.46,-1.312,12.0859,1496,2819.68
16069,-3.298,1.573,9.7312,1506,2819.68
16074,1.0235,3.3148,9.9742,1517,2819.42
16079,1.8016,2.4529,11.1701,1496,2819.42
16084,-1.257,-0.9984,12.2009,1495,2819.42
16089,-4.5358,0.7063,10.2436,1495,2819.42
16094,0.492,2.9999,9.7396,1544,2819.55
16099,2.5223,3.3746,10.7416,1497,2819.55
16104,-1.8842,-0.0156,12.0752,1491,2819.55
16109,-3.9648,-0.0383,11.2276,1497,2819.55
16114,-0.7398,2.721,9.4511,1557,2819.81
16119,1.8711,3.7697,10.3657,1509,2819.81
16124,-1.5383,0.9589,11.9016,1495,2819.81
16129,-3.2346,-0.8452,11.8082,1495,2819.81
16134,-2.308,2.2529,9.3158,1559,2820.21
16139,1.6376,3.6212,10.1969,1495,2820.21
16144,0.1999,1.6041,11.5305,1507,2820.21
16149,-2.332,-1.4186,12.0416,1497,2820.21
16154,-3.638,1.506,9.7217,1509,2820.21
16159,1.1205,3.2298,9.9431,1528,2820.48
16164,2.0016,2.5869,11.2144,1497,2820.48
16169,-1.7897,-0.9349,12.1961,1496,2820.48
16174,-3.9744,0.7494,10.495,1495,2820.48
16179,0.2658,2.9844,9.6989,1532,2820.87
16184,2.2194,3.4022,10.6614,1500,2820.87
16189,-1.5419,0.0802,12.1147,1493,2820.87
16194,-3.9409,-0.1077,11.1845,1496,2820.87
16199,-0.9146,2.7066,9.3374,1557,2820.74
16204,1.9884,3.7326,10.3597,1501,2820.74
16209,-1.5335,0.9361,11.8238,1489,2820.74
16214,-3.2226,-0.9589,11.8118,1501,2820.74
16219,-2.3559,2.1895,9.3518,1563,2820.74
16224,1.476,3.5973,10.2089,1491,2820.74
16229,0.1592,1.7011,11.6023,1503,2820.74
16234,-2.3679,-1.324,12.0668,1497,2820.74
16239,-3.5314,1.5419,9.7911,1508,2820.74
16244,0.9625,3.2657,10.0066,1529,2821.27
16249,1.9561,2.6049,11.1271,1495,2821.27
16254,-1.4413,-0.8428,12.2104,1491,2821.27
16259,-4.3191,0.6476,10.4244,1497,2821.27
16264,0.3208,2.976,9.6965,1544,2821.41
16269,2.4157,3.3926,10.6578,1495,2821.41
16274,-1.7394,0.1149,12.0871,1490,2821.41
16279,-3.9588,-0.1939,11.1821,1493,2821.41
16284,-0.9768,2.6731,9.3877,1559,2821.94
16289,1.9046,3.7781,10.3286,1503,2821.94
16294,-1.4629,0.9876,11.886,1491,2821.94
16299,-3.2513,-0.9278,11.8429,1498,2821.94
16304,-2.5283,2.2529,9.3374,1527,2822.47
16309,1.7178,3.6895,10.2137,1493,2822.47
16314,0.3962,1.7119,11.4958,1502,2822.47
16319,-2.3583,-1.3324,12.1278,1495,2822.47
16324,-3.4405,1.4617,9.7612,1509,2822.47
16329,0.917,3.2286,9.9563,1527,2822.47
16334,1.9201,2.5522,11.1294,1495,2822.47
16339,-1.5598,-0.8966,12.214,1491,2822.47
16344,-4.1061,0.6632,10.471,1494,2822.47
16349,0.1856,2.9975,9.663,1533,2822.2
16354,2.247,3.4584,10.6793,1499,2822.2
16359,-1.6831,0.1844,12.1398,1485,2822.2
16364,-3.9037,-0.0886,11.315,1491,2822.2
16369,-0.8727,2.7282,9.3494,1556,2821.94
16374,1.9716,3.8283,10.3346,1499,2821.94
16379,-1.4533,1.0439,11.8106,1495,2821.94
16384,-3.2142,-0.9613,11.8022,1501,2821.94
16389,-2.4433,2.1129,9.3099,1525,2821.94
16394,1.6388,3.6248,10.2663,1490,2821.94
16399,0.3041,1.6831,11.4886,1500,2821.94
16404,-2.235,-1.3503,12.0907,1495,2821.94
16409,-3.7074,1.4712,9.7779,1507,2821.94
16414,0.9649,3.2346,10.0233,1529,2822.07
16419,2.0554,2.66,11.1247,1496,2822.07
16424,-1.397,-0.7853,12.2679,1487,2822.07
16429,-4.5669,0.6752,10.3992,1491,2822.07
16434,0.3771,3.0634,9.7001,1533,2822.33
16439,2.6025,3.5362,10.6422,1500,2822.33
16444,-1.8543,0.1556,12.0883,1482,2822.33
16449,-3.8223,-0.1796,11.2216,1493,2822.33
16454,-0.9601,2.5917,9.3494,1555,2821.94
16459,1.8531,3.6907,10.3441,1501,2821.94
16464,-1.4186,0.9637,11.9327,1493,2821.94
16469,-3.1951,-0.9673,11.8716,1503,2821.94
16474,-2.5845,2.2051,9.3613,1561,2821.54
16479,1.6041,3.6488,10.2364,1493,2821.54
16484,0.3711,1.7514,11.467,1501,2821.54
16489,-2.1895,-1.3336,12.1422,1497,2821.54
16494,-4.0438,1.4916,9.6786,1507,2821.54
16499,1.2498,3.2777,10.0365,1532,2821.8
16504,2.2841,2.63,11.0887,1498,2821.8
16509,-1.4317,-0.808,12.1697,1490,2821.8
16514,-4.5741,0.5866,10.4603,1492,2821.8
16519,0.2969,2.9401,9.6678,1532,2821.94
16524,2.5343,3.4884,10.6279,1499,2821.94
16529,-1.6819,0.1712,12.1194,1495,2821.94
16534,-4.3455,-0.2813,11.2468,1495,2821.94
16539,-1.0139,2.6959,9.3434,1557,2822.07
16544,2.2087,3.8571,10.4471,1501,2822.07
16549,-1.5909,1.0151,11.7819,1495,2822.07
16554,-3.1747,-0.8942,11.7974,1506,2822.07
16559,-2.2853,2.0746,9.3553,1565,2822.07
16564,1.4856,3.5841,10.1718,1491,2822.07
16569,0.3771,1.6879,11.5389,1499,2822.07
16574,-1.9465,-1.397,12.2284,1493,2822.07
16579,-4.1551,1.4461,9.6594,1507,2822.07
16584,1.2186,3.2525,10.0209,1527,2822.2
16589,2.2721,2.6468,11.1079,1496,2822.2
16594,-1.5083,-0.8607,12.2056,1493,2822.2
16599,-4.6208,0.6141,10.4459,1495,2822.2
16604,0.2957,2.9928,9.6905,1543,2821.94
16609,2.5738,3.5614,10.6291,1499,2821.94
16614,-1.6771,0.2215,12.1314,1492,2821.94
16619,-4.2401,-0.1987,11.2719,1495,2821.94
16624,-1.0391,2.6624,9.2895,1553,2821.94
16629,2.2577,3.796,10.3286,1499,2821.94
16634,-1.3827,0.9589,11.7914,1495,2821.94
16639,-3.2968,-1.0451,11.8573,1503,2821.94
16644,-2.6647,2.1237,9.3781,1560,2821.94
16649,1.634,3.5841,10.2448,1497,2821.94
16654,2.0087,2.545,11.2037,1497,2821.94
16659,-1.7968,-0.9433,12.1625,1495,2821.94
16664,-3.5973,1.4281,9.8533,1507,2821.94
16669,0.334,3.0023,9.6857,1533,2821.94
16674,2.302,3.3674,10.7045,1492,2821.94
16679,-1.6185,0.0036,12.1422,1492,2821.94
16684,-3.8702,-0.0539,11.1235,1495,2821.94
16689,-0.7685,2.6851,9.3565,1533,2822.2
16694,1.8794,3.7481,10.3669,1497,2822.2
16699,-1.5275,0.8727,11.9004,1500,2822.2
16704,-3.4165,-0.9577,11.7759,1507,2822.2
16709,-2.3786,2.2889,9.2488,1556,2822.2
16714,1.798,3.699,10.2568,1497,2822.2
16719,0.0611,1.6293,11.6023,1493,2822.2
16724,-2.4014,-1.2869,12.0919,1507,2822.2
16729,-3.6009,1.6029,9.6498,1545,2821.67
16734,1.1337,3.2884,10.0173,1493,2821.67
16739,2.0027,2.4876,11.1666,1495,2821.67
16744,-1.3611,-0.9469,12.1865,1491,2821.67
16749,-4.5813,0.7159,10.2855,1502,2821.67
16754,0.4872,3.0358,9.7181,1515,2821.14
16759,2.5319,3.3818,10.6949,1498,2821.14
16764,-1.8387,-0.0084,12.1266,1495,2821.14
16769,-3.9816,-0.0563,11.1163,1495,2821.14
16774,-0.8368,2.7354,9.4272,1519,2820.74
16779,1.9704,3.7721,10.3489,1501,2820.74
16784,-1.6161,0.9601,11.9088,1501,2820.74
16789,-3.2537,-0.8416,11.7639,1493,2820.74
16794,-2.2541,2.2326,9.4128,1557,2821.01
16799,1.5682,3.6188,10.1287,1496,2821.01
16804,0.1676,1.6113,11.5053,1496,2821.01
16809,-2.332,-1.3743,12.0452,1502,2821.01
16814,-3.4692,1.5143,9.7121,1561,2821.41
16819,0.9697,3.2226,9.9719,1496,2821.41
16824,1.8866,2.5247,11.1893,1513,2821.41
16829,-1.5275,-0.9325,12.1889,1491,2821.41
16834,-4.1025,0.7626,10.4196,1501,2821.41
16839,0.2418,3.0382,9.6893,1532,2821.54
16844,2.3583,3.4381,10.6554,1499,2821.54
16849,-1.634,0.0982,12.1542,1495,2821.54
16854,-3.9444,-0.0694,11.2132,1493,2821.54
16859,-0.7781,2.7186,9.347,1527,2821.8
16864,2.0099,3.7757,10.3513,1497,2821.8
16869,-1.585,0.9146,11.8333,1501,2821.8
16874,-3.1603,-0.9242,11.7807,1499,2821.8
16879,-2.2948,2.1464,9.3194,1559,2821.94
16884,1.5263,3.6129,10.2113,1495,2821.94
16889,0.182,1.6221,11.5784,1495,2821.94
16894,-2.3056,-1.33,12.0967,1501,2821.94
16899,-3.6488,1.5083,9.7851,1541,2821.41
16904,1.008,3.3076,10.0114,1497,2821.41
16909,2.0303,2.5941,11.1271,1503,2821.41
16914,-1.7549,-0.826,12.2044,1493,2821.41
16919,-3.9313,0.7398,10.471,1501,2821.41
16924,0.2717,2.9987,9.6953,1529,2820.87
16929,2.2254,3.3974,10.659,1507,2820.87
16934,-1.6125,0.1233,12.1206,1495,2820.87
16939,-3.8595,-0.2155,11.2312,1495,2820.87
16944,-0.9278,2.6719,9.3841,1523,2820.48
16949,1.9333,3.7804,10.3537,1497,2820.48
16954,-1.4808,0.9361,11.8309,1495,2820.48
16959,-3.2597,-0.9804,11.8381,1495,2820.48
16964,-2.3224,2.2182,9.4236,1559,2820.48
16969,1.6281,3.6488,10.2173,1497,2820.48
16974,0.2693,1.6807,11.4766,1491,2820.48
16979,-2.3104,-1.3132,12.0907,1501,2820.48
16984,-3.5279,1.4736,9.748,1526,2820.48
16989,0.9565,3.2202,9.9132,1499,2820.48
16994,1.9668,2.5786,11.1534,1497,2820.48
16999,-1.67,-0.8703,12.1853,1491,2820.48
17004,-3.966,0.6943,10.5357,1498,2820.48
17009,0.1963,2.9688,9.7013,1531,2820.08
17014,2.1871,3.486,10.6578,1503,2820.08
17019,-1.6819,0.1736,12.0704,1495,2820.08
17024,-3.984,-0.1927,11.2671,1493,2820.08
17029,-0.9697,2.7054,9.3661,1544,2820.21
17034,2.0901,3.8906,10.3956,1494,2820.21
17039,-1.5514,1.0127,11.7986,1497,2820.21
17044,-3.0909,-0.9409,11.8202,1495,2820.21
17049,-2.3595,2.0913,9.414,1559,2820.61
17054,1.4437,3.5458,10.1706,1499,2820.61
17059,0.3304,1.7142,11.5041,1483,2820.61
17064,-2.1069,-1.3611,12.1194,1499,2820.61
17069,-3.8499,1.4281,9.7791,1497,2820.87
17074,1.0618,3.2441,10.0305,1503,2820.87
17079,2.1727,2.709,11.1546,1499,2820.87
17084,-1.6795,-0.7745,12.1793,1493,2820.87
17089,-4.1061,0.6452,10.5093,1491,2820.87
17094,0.1616,2.9616,9.6079,1527,2820.61
17099,2.3116,3.4848,10.5991,1501,2820.61
17104,-1.7334,0.2454,12.1111,1495,2820.61
17109,-3.8271,-0.2179,11.3318,1497,2820.61
17114,-1.0858,2.7054,9.3877,1559,2820.08
17119,1.9225,3.79,10.3382,1491,2820.08
17124,-1.3312,1.0187,11.8166,1497,2820.08
17129,-3.1496,-0.9984,11.8082,1497,2820.08
17134,-2.4349,2.0626,9.4344,1558,2819.42
17139,1.3659,3.5135,10.1394,1500,2819.42
17144,0.3926,1.7945,11.497,1497,2819.42
17149,-2.1476,-1.3312,12.147,1493,2819.42
17154,-3.7146,1.4281,9.9216,1498,2819.42
17159,0.9098,3.1963,9.9587,1529,2819.15
17164,2.1871,2.7785,11.0672,1498,2819.15
17169,-1.6316,-0.7075,12.1111,1496,2819.15
17174,-4.0163,0.5531,10.586,1491,2819.15
17179,0.1065,2.9317,9.5816,1524,2819.15
17184,2.1679,3.5147,10.635,1499,2819.15
17189,-1.7322,0.2765,12.0333,1491,2819.15
17194,-3.7385,-0.322,11.3617,1509,2819.15
17199,-1.1289,2.5774,9.347,1561,2819.28
17204,1.8699,3.8092,10.2867,1495,2819.28
17209,-1.3192,1.136,11.8477,1495,2819.28
17214,-3.0143,-1.0355,11.9159,1495,2819.28
17219,-2.5127,2.0686,9.4655,1554,2819.55
17224,1.4222,3.5087,10.1813,1499,2819.55
17229,0.6129,1.822,11.5149,1497,2819.55
17234,-2.0375,-1.3455,12.0584,1493,2819.55
17239,-3.7553,1.2785,9.8497,1497,2819.55
17244,0.8212,3.1508,9.9204,1525,2819.68
17249,2.1859,2.7797,11.0205,1499,2819.68
17254,-1.5012,-0.668,12.2236,1500,2819.68
17259,-4.1204,0.504,10.6877,1497,2819.68
17264,-0.0227,2.9149,9.6343,1526,2819.68
17269,2.2398,3.5877,10.5632,1501,2819.68
17274,-1.8256,0.3508,12.0524,1491,2819.68
17279,-3.6931,-0.2885,11.388,1503,2819.68
17284,-1.3264,2.6372,9.3925,1560,2819.81
17289,1.8938,3.7709,10.2448,1495,2819.81
17294,-1.1732,1.1911,11.7783,1487,2819.81
17299,-2.982,-1.0642,11.8369,1495,2819.81
17304,-2.557,1.9728,9.4751,1563,2820.08
17309,1.2007,3.3986,10.1095,1497,2820.08
17314,0.7697,1.8818,11.4359,1501,2820.08
17319,-2.0818,-1.2845,12.1482,1492,2820.08
17324,-3.6236,1.2725,10.0233,1495,2820.08
17329,0.7542,3.1999,9.8653,1523,2819.95
17334,2.1356,2.9353,10.9295,1493,2819.95
17339,-1.4868,-0.5279,12.1805,1500,2819.95
17344,-4.0773,0.4585,10.7464,1493,2819.95
17349,-0.0467,2.9269,9.5517,1543,2820.08
17354,2.2098,3.6524,10.4818,1496,2820.08
17359,-1.8435,0.4202,12.0452,1485,2820.08
17364,-3.6715,-0.4908,11.4742,1507,2820.08
17369,-1.397,2.5606,9.3182,1559,2819.95
17374,1.8184,3.7517,10.3202,1497,2819.95
17379,-1.0894,1.1552,11.795,1495,2819.95
17384,-2.8419,-1.1851,11.9519,1495,2819.95
17389,-2.8706,1.9716,9.5289,1563,2819.28
17394,1.3707,3.4776,10.1766,1496,2819.28
17399,1.057,1.9656,11.4227,1509,2819.28
17404,-1.8998,-1.172,12.1087,1497,2819.28
17409,-3.8642,1.1803,10.003,1492,2819.28
17414,0.6883,3.152,9.8749,1519,2818.75
17419,2.3176,2.8874,10.9511,1499,2818.75
17424,-1.6305,-0.498,12.1721,1495,2818.75
17429,-3.8666,0.4094,10.7416,1497,2818.75
17434,-0.2167,2.8395,9.5948,1545,2819.15
17439,2.0111,3.6224,10.4555,1498,2819.15
17444,-1.7274,0.4788,12.0141,1490,2819.15
17449,-3.5901,-0.4968,11.5317,1499,2819.15
17454,-1.5862,2.5474,9.323,1559,2819.28
17459,1.8459,3.814,10.2819,1508,2819.28
17464,-0.9673,1.2701,11.7376,1493,2819.28
17469,-2.727,-1.1612,12.0081,1495,2819.28
17474,-2.9281,1.8447,9.56,1557,2819.42
17479,1.3408,3.4297,10.0987,1487,2819.42
17484,1.1732,2.0159,11.3569,1507,2819.42
17489,-1.8352,-1.2522,12.2044,1496,2819.42
17494,-3.9612,1.1109,10.009,1501,2819.42
17499,0.6548,3.1101,9.8258,1531,2818.89
17504,2.3439,3.0646,10.9571,1495,2818.89
17509,-1.743,-0.4369,12.1841,1493,2818.89
17514,-3.8415,0.3903,10.8757,1499,2818.89
17519,-0.2526,2.879,9.5098,1547,2818.36
17524,1.9908,3.6931,10.5297,1496,2818.36
17529,-1.7262,0.5698,12.0105,1490,2818.36
17534,-3.456,-0.5315,11.5293,1493,2818.36
17539,-1.6723,2.4445,9.3374,1553,2818.22
17544,1.7885,3.7493,10.3238,1501,2818.22
17549,-0.7051,1.2677,11.6418,1495,2818.22
17554,-2.6408,-1.2522,11.9471,1501,2818.22
17559,-3.1113,1.8064,9.56,1531,2817.7
17564,1.2558,3.3519,10.1359,1493,2817.7
17569,1.391,2.1775,11.3641,1502,2817.7
17574,-1.9908,-1.136,12.141,1497,2817.7
17579,-3.7014,1.0942,10.1993,1503,2817.7
17584,0.5255,3.1137,9.7935,1531,2817.56
17589,2.2122,3.1568,10.8218,1497,2817.56
17594,-1.5275,-0.2993,12.1171,1485,2817.56
17599,-3.8223,0.2227,11.0073,1496,2817.56
17604,-0.3915,2.8084,9.517,1545,2817.3
17609,1.974,3.6835,10.3489,1497,2817.3
17614,-1.7358,0.6895,11.9483,1491,2817.3
17619,-3.4417,-0.6476,11.6813,1497,2817.3
17624,-1.6723,2.3918,9.4176,1557,2817.17
17629,1.5921,3.7194,10.2161,1501,2817.17
17634,-0.6045,1.397,11.6574,1496,2817.17
17639,-2.5534,-1.2534,12.0081,1503,2817.17
17644,-3.1232,1.7478,9.6247,1560,2817.17
17649,1.1887,3.3854,10.0389,1492,2817.17
17654,1.494,2.3056,11.2432,1494,2817.17
17659,-1.6951,-1.0977,12.1027,1493,2817.17
17664,-3.9624,0.9146,10.1933,1507,2817.17
17669,0.5076,3.0083,9.7827,1517,2817.03
17674,2.3284,3.2106,10.7811,1495,2817.03
17679,-1.5981,-0.1844,12.0452,1495,2817.03
17684,-4.1084,0.0539,11.0014,1495,2817.03
17689,-0.5483,2.8024,9.4391,1529,2816.9
17694,2.0901,3.7936,10.489,1499,2816.9
17699,-1.8399,0.8056,11.8788,1500,2816.9
17704,-3.3674,-0.6764,11.6657,1497,2816.9
17709,-2.0782,2.3272,9.3649,1557,2817.17
17714,1.7992,3.7002,10.2448,1497,2817.17
17719,-0.176,1.5024,11.576,1490,2817.17
17724,-2.4205,-1.3587,12.1051,1497,2817.17
17729,-3.8176,1.6496,9.6055,1561,2817.56
17734,1.3886,3.3028,10.1502,1505,2817.56
17739,1.9728,2.4481,11.1905,1501,2817.56
17744,-1.9848,-1.0403,12.1446,1491,2817.56
17749,-3.8487,0.826,10.4256,1501,2817.56
17754,0.3831,2.9772,9.754,1533,2817.83
17759,2.1919,3.3052,10.7021,1504,2817.83
17764,-1.5766,0.0323,12.1099,1493,2817.83
17769,-3.9672,0.0215,11.1079,1496,2817.83
17774,-0.7278,2.8012,9.3709,1555,2817.43
17779,2.0566,3.8044,10.3741,1493,2817.43
17784,-1.6305,0.8619,11.8417,1499,2817.43
17789,-3.2765,-0.8775,11.6969,1494,2817.43
17794,-2.0806,2.2098,9.4104,1558,2816.9
17799,1.4712,3.5255,10.1766,1503,2816.9
17804,-0.0455,1.6149,11.5353,1496,2816.9
17809,-2.2446,-1.3551,12.0931,1495,2816.9
17814,-3.8235,1.5897,9.7061,1497,2816.9
17819,1.2019,3.2896,10.009,1529,2816.77
17824,2.0925,2.5833,11.1725,1501,2816.77
17829,-1.731,-0.826,12.1422,1496,2816.77
17834,-4.0857,0.7398,10.4004,1493,2816.77
17839,0.2933,2.9868,9.675,1531,2816.77
17844,2.3188,3.3974,10.653,1499,2816.77
17849,-1.6735,0.1113,12.0716,1493,2816.77
17854,-3.9025,-0.1676,11.1749,1501,2816.77
17859,-0.9613,2.6635,9.4164,1561,2817.17
17864,1.9477,3.8092,10.3753,1493,2817.17
17869,-1.5502,0.9936,11.8058,1497,2817.17
17874,-3.1867,-0.9385,11.8034,1495,2817.17
17879,-2.4924,2.1931,9.4332,1564,2817.3
17884,1.5742,3.6152,10.1538,1498,2817.3
17889,0.401,1.7166,11.491,1499,2817.3
17894,-2.2613,-1.324,12.0644,1493,2817.3
17899,-3.4967,1.4198,9.8438,1493,2817.3
17904,0.9481,3.219,9.9635,1527,2817.17
17909,2.0853,2.6264,10.9954,1497,2817.17
17914,-1.4413,-0.8296,12.1063,1499,2817.17
17919,-4.1875,0.5794,10.5453,1492,2817.17
17924,0.1101,2.9353,9.6786,1528,2817.56
17929,2.2817,3.5051,10.6446,1498,2817.56
17934,-1.8759,0.2777,12.0776,1485,2817.56
17939,-3.8714,-0.1808,11.3365,1501,2817.56
17944,-1.1349,2.6995,9.4032,1549,2817.7
17949,1.9704,3.8259,10.3178,1501,2817.7
17954,-1.3072,1.0834,11.7807,1491,2817.7
17959,-3.0514,-1.0534,11.8178,1493,2817.7
17964,-2.5462,2.0219,9.4284,1561,2817.96
17969,1.4892,3.4872,10.0952,1496,2817.96
17974,0.6261,1.7849,11.4551,1507,2817.96
17979,-2.0686,-1.3384,12.1518,1495,2817.96
17984,-3.9923,1.2905,9.8976,1499,2817.96
17989,1.0151,3.213,9.9862,1520,2818.09
17994,2.3116,2.8359,11.0492,1497,2818.09
17999,-1.6592,-0.6404,12.1458,1495,2818.09
18004,-4.1779,0.5387,10.6554,1497,2818.09
18009,0.0491,2.958,9.6031,1532,2818.22
18014,2.3343,3.5698,10.5872,1493,2818.22
18019,-1.8759,0.3807,12.0297,1493,2818.22
18024,-3.6488,-0.2993,11.3904,1496,2818.22
18029,-1.1863,2.5007,9.3805,1557,2818.49
18034,1.7334,3.705,10.258,1499,2818.49
18039,-1.2091,1.1229,11.7017,1496,2818.49
18044,-2.9796,-1.148,11.9135,1495,2818.49
18049,-2.7318,2.0123,9.4774,1561,2818.36
18054,1.3683,3.535,10.1622,1491,2818.36
18059,0.7817,1.9728,11.4742,1512,2818.36
18064,-1.9728,-1.2342,12.0704,1496,2818.36
18069,-3.9241,1.2893,9.9228,1510,2818.36
18074,0.9242,3.1795,9.9252,1527,2818.22
18079,2.3331,2.9018,10.9583,1496,2818.22
18084,-1.6352,-0.6177,12.1111,1492,2818.22
18089,-4.0606,0.4345,10.732,1495,2818.22
18094,-0.0862,2.8407,9.59,1546,2818.62
18099,2.1751,3.5913,10.4854,1497,2818.62
18104,-1.7633,0.4357,11.995,1491,2818.62
18109,-3.7972,-0.4429,11.5377,1496,2818.62
18114,-1.4162,2.5642,9.3948,1555,2818.62
18119,1.8783,3.7936,10.3657,1499,2818.62
18124,-1.1349,1.2306,11.801,1493,2818.62
18129,-2.9042,-1.0582,11.9291,1500,2818.62
18134,-2.7916,1.9609,9.4954,1562,2818.89
18139,1.3551,3.4584,10.1095,1490,2818.89
18144,1.0774,2.0099,11.3677,1511,2818.89
18149,-1.9525,-1.2965,12.1721,1493,2818.89
18154,-3.7769,1.1217,10.0281,1507,2818.89
18159,0.6788,3.067,9.8234,1534,2819.02
18164,2.2374,2.9568,10.9439,1495,2819.02
18169,-1.5766,-0.51,12.1266,1491,2819.02
18174,-4.063,0.3699,10.8182,1495,2819.02
18179,-0.1556,2.9113,9.5217,1532,2819.02
18184,2.1751,3.7038,10.5129,1499,2819.02
18189,-1.8399,0.5459,11.9854,1491,2819.02
18194,-3.565,-0.4417,11.4898,1491,2819.02
18199,-1.4473,2.5199,9.3458,1551,2819.15
18204,1.731,3.7445,10.2484,1499,2819.15
18209,-0.8416,1.2737,11.6358,1501,2819.15
18214,-2.7737,-1.2438,11.886,1506,2819.15
18219,-3.0885,1.8675,9.5289,1563,2819.15
18224,1.3671,3.4393,10.1622,1495,2819.15
18229,1.2546,2.1332,11.4036,1501,2819.15
18234,-2.0004,-1.2043,12.1266,1487,2819.15
18239,-3.8966,1.1492,10.1191,1507,2819.15
18244,0.6728,3.1352,9.8785,1529,2819.28
18249,2.3128,3.0825,10.902,1497,2819.28
18254,-1.5311,-0.3172,12.1578,1491,2819.28
18259,-4.0354,0.3053,10.9188,1494,2819.28
18264,-0.2514,2.8204,9.4715,1543,2819.28
18269,2.1368,3.6751,10.4327,1499,2819.28
18274,-1.7873,0.5614,11.9279,1511,2819.28
18279,-3.5805,-0.6141,11.5245,1497,2819.28
18284,-1.6831,2.4217,9.2979,1557,2819.15
18289,1.7502,3.6943,10.2364,1501,2819.15
18294,-0.7913,1.3324,11.722,1494,2819.15
18299,-2.6899,-1.1995,12.0045,1503,2819.15
18304,-3.1711,1.8926,9.6067,1557,2819.15
18309,1.3192,3.4656,10.0868,1493,2819.15
18314,1.494,2.2063,11.2934,1493,2819.15
18319,-1.743,-1.1396,12.1302,1489,2819.15
18324,-4.0366,0.996,10.1454,1506,2819.15
18329,0.589,3.0658,9.7959,1525,2819.42
18334,2.3966,3.14,10.8433,1491,2819.42
18339,-1.7142,-0.3364,12.1314,1495,2819.42
18344,-3.9217,0.1856,10.8804,1496,2819.42
18349,-0.3388,2.8108,9.5289,1534,2819.28
18354,1.9644,3.7218,10.4782,1497,2819.28
18359,-1.7681,0.7266,11.9878,1499,2819.28
18364,-3.5087,-0.5914,11.5784,1497,2819.28
18369,-1.737,2.4792,9.3601,1559,2819.28
18374,1.7538,3.729,10.2544,1497,2819.28
18379,-0.5902,1.4174,11.6574,1497,2819.28
18384,-2.5833,-1.2929,11.9171,1503,2819.28
18389,-3.0718,1.7382,9.5948,1534,2819.55
18394,1.1744,3.3076,10.0413,1496,2819.55
18399,1.482,2.2218,11.218,1507,2819.55
18404,-1.8256,-1.1744,12.1805,1493,2819.55
18409,-3.9444,0.9697,10.2735,1502,2819.55
18414,0.5148,3.0538,9.8031,1531,2820.21
18419,2.3367,3.213,10.7895,1505,2820.21
18424,-1.6029,-0.1628,12.1829,1495,2820.21
18429,-4.0139,0.1508,11.0708,1496,2820.21
18434,-0.4561,2.8276,9.4367,1523,2820.48
18439,2.1237,3.7409,10.3406,1495,2820.48
18444,-1.7669,0.7709,11.9602,1497,2820.48
18449,-3.4117,-0.7219,11.6418,1493,2820.48
18454,-1.9166,2.3056,9.2955,1559,2820.87
18459,1.6891,3.6392,10.1849,1497,2820.87
18464,-0.4202,1.4521,11.5951,1496,2820.87
18469,-2.5462,-1.3228,12.0333,1500,2820.87
18474,-3.3878,1.7095,9.6067,1559,2821.41
18479,1.2222,3.3974,10.0664,1499,2821.41
18484,1.6867,2.3511,11.2923,1503,2821.41
18489,-1.804,-1.0151,12.1925,1493,2821.41
18494,-3.9935,0.9577,10.1634,1499,2821.41
18499,0.516,3.0682,9.7432,1529,2822.2
18504,2.4337,3.2489,10.8326,1507,2822.2
18509,-1.6101,-0.1401,12.1913,1505,2822.2
18514,-3.9325,0.0742,10.987,1495,2822.2
18519,-0.5243,2.745,9.4152,1543,2822.07
18524,2.0027,3.6907,10.3657,1497,2822.07
18529,-1.664,0.7458,11.9255,1497,2822.07
18534,-3.5566,-0.7602,11.6669,1496,2822.07
18539,-1.9956,2.4038,9.3996,1559,2822.2
18544,1.7741,3.7314,10.258,1499,2822.2
18549,-0.4022,1.5048,11.6993,1495,2822.2
18554,-2.6061,-1.2558,12.0416,1503,2822.2
18559,-3.2214,1.6771,9.5912,1531,2822.2
18564,1.2079,3.3327,10.0281,1501,2822.2
18569,1.7454,2.3487,11.2312,1503,2822.2
18574,-1.6951,-1.0726,12.1733,1491,2822.2
18579,-4.1563,0.899,10.1897,1499,2822.2
18584,0.5327,2.9916,9.6989,1528,2822.07
18589,2.4026,3.231,10.7691,1507,2822.07
18594,-1.658,-0.182,12.1362,1495,2822.07
18599,-4.1144,0.0874,11.0026,1498,2822.07
18604,-0.5136,2.8,9.3865,1543,2822.2
18609,2.15,3.8128,10.4722,1495,2822.2
18614,-1.7992,0.8009,11.9339,1499,2822.2
18619,-3.4572,-0.6536,11.6993,1496,2822.2
18624,-1.8723,2.2841,9.3913,1559,2822.2
18629,1.6819,3.6392,10.2472,1499,2822.2
18634,-0.3328,1.4892,11.5999,1508,2822.2
18639,-2.466,-1.3455,12.0237,1499,2822.2
18644,-3.4812,1.6245,9.5265,1531,2822.47
18649,1.2498,3.322,10.1035,1501,2822.47
18654,1.828,2.3822,11.2659,1500,2822.47
18659,-1.6077,-1.0582,12.2475,1492,2822.47
18664,-4.4987,0.8918,10.1801,1496,2822.47
18669,0.6728,3.1077,9.8102,1527,2822.73
18674,2.6707,3.3279,10.8062,1502,2822.73
18679,-1.5598,-0.0646,12.1518,1493,2822.73
18684,-4.4592,0.0263,10.9379,1495,2822.73
18689,-0.4717,2.745,9.3984,1551,2823.0
18694,2.3966,3.7637,10.4806,1492,2823.0
18699,-3.067,-0.3089,-0.3089,1499,2823.0
18704,-3.4441,-0.7602,11.6262,1497,2823.0
18709,-1.9297,2.302,9.3434,1559,2822.73
18714,1.5933,3.6404,10.234,1497,2822.73
18719,-0.3508,1.476,11.6921,1497,2822.73
18724,-2.5319,-1.2761,12.0261,1496,2822.73
18729,-3.3686,1.6843,9.584,1531,2821.94
18734,1.1456,3.3603,10.0449,1501,2821.94
18739,1.7561,2.4193,11.2851,1500,2821.94
18744,-1.8459,-1.0546,12.141,1493,2821.94
18749,-3.8726,0.9194,10.2592,1495,2821.94
18754,0.5028,2.9904,9.7025,1527,2823.66
18759,2.2685,3.2274,10.7607,1501,2823.66
18764,-1.579,-0.176,12.1266,1491,2823.66
18769,-4.039,0.0802,11.0169,1500,2823.66
18774,-0.516,2.7318,9.4379,1525,2823.4
18779,2.0159,3.7649,10.4423,1495,2823.4
18784,-1.804,0.7614,11.9914,1498,2823.4
18789,-3.462,-0.6728,11.7148,1497,2823.4
18794,-1.816,2.381,9.3254,1558,2823.53
18799,1.6783,3.729,10.234,1500,2823.53
18804,-0.4178,1.488,11.7316,1496,2823.53
18809,-2.5414,-1.306,12.0464,1500,2823.53
18814,-3.2429,1.6508,9.5672,1499,2823.66
18819,1.1863,3.2825,10.0353,1501,2823.66
18824,1.6987,2.3487,11.2013,1501,2823.66
18829,-1.8483,-1.1169,12.1386,1496,2823.66
18834,-3.9361,0.9266,10.2173,1495,2823.66
18839,0.4836,3.0107,9.7157,1529,2824.19
18844,2.308,3.2693,10.8002,1502,2824.19
18849,-1.5119,-0.1652,12.1721,1495,2824.19
18854,-4.2832,0.1101,10.9367,1493,2824.19
18859,-0.504,2.8407,9.4439,1549,2823.93
18864,2.3092,3.8355,10.4663,1495,2823.93
18869,-1.8747,0.7697,11.9806,1497,2823.93
18874,-3.4812,-0.6943,11.6514,1497,2823.93
18879,-1.9142,2.32,9.323,1559,2824.73
18884,1.6664,3.6452,10.1682,1497,2824.73
18889,-0.4022,1.4497,11.7244,1496,2824.73
18894,-2.6181,-1.3396,12.0249,1499,2824.73
18899,-3.3387,1.6688,9.5589,1532,2824.33
18904,1.1779,3.316,10.0904,1501,2824.33
18909,1.6484,2.2877,11.3198,1501,2824.33
18914,-1.7933,-1.0666,12.2212,1492,2824.33
18919,-4.0677,0.9708,10.2364,1496,2824.33
18924,0.5578,3.0861,9.7193,1527,2824.46
18929,2.4612,3.2406,10.817,1501,2824.46
18934,-1.7681,-0.1939,12.1602,1497,2824.46
18939,-3.8678,0.1616,11.0277,1499,2824.46
18944,-0.4345,2.7605,9.487,1545,2824.86
18949,1.9836,3.6727,10.4112,1495,2824.86
18954,-1.6759,0.7075,11.9794,1497,2824.86
18959,-3.4764,-0.6847,11.655,1497,2824.86
18964,-1.7933,2.3703,9.317,1558,2824.86
18969,1.6807,3.6907,10.2149,1500,2824.86
18974,-0.5602,1.4461,11.722,1493,2824.86
18979,-2.6516,-1.2713,12.0153,1501,2824.86
18984,-3.2046,1.7585,9.5624,1527,2824.73
18989,1.2641,3.3926,10.0592,1501,2824.73
18994,1.5921,2.2865,11.2982,1501,2824.73
18999,-1.7502,-1.1181,12.153,1494,2824.73
19004,-4.0522,0.9625,10.1071,1497,2824.73
19009,0.5758,3.0742,9.7887,1554,2824.46
19014,2.4457,3.1819,10.8529,1504,2824.46
19019,-1.6987,-0.2502,12.1494,1493,2824.46
19024,-4.0725,0.1891,10.9032,1497,2824.46
19029,-0.3579,2.8311,9.487,1554,2824.59
19034,2.0842,3.7745,10.4196,1493,2824.59
19039,-1.7669,0.741,11.9938,1501,2824.59
19044,-3.5949,-0.5926,11.6083,1497,2824.59
19049,-1.7585,2.4122,9.3015,1559,2824.73
19054,1.8052,3.7649,10.2388,1501,2824.73
19059,-0.6177,1.4054,11.6657,1495,2824.73
19064,-2.7031,-1.3467,12.0536,1501,2824.73
19069,-3.547,1.749,9.4499,1529,2824.19
19074,1.6484,3.4381,10.1203,1499,2824.19
19079,1.6436,2.1895,11.3258,1497,2824.19
19084,-1.9058,-1.1899,12.1913,1492,2824.19
19089,-4.057,1.0247,10.1215,1500,2824.19
19094,0.6033,3.0622,9.8114,1529,2824.33
19099,2.4684,3.1795,10.8888,1507,2824.33
19104,-1.6448,-0.2789,12.1877,1495,2824.33
19109,-4.0977,0.2646,10.8984,1495,2824.33
19114,-0.407,2.8156,9.3805,1523,2823.53
19119,2.2517,3.7553,10.4543,1497,2823.53
19124,-1.6173,0.6632,12.0249,1497,2823.53
19129,-3.9109,-0.6991,11.5568,1497,2823.53
19134,-1.883,2.4193,9.2201,1559,2823.4
19139,2.0315,3.7769,10.3705,1501,2823.4
19144,-0.6309,1.33,11.6418,1494,2823.4
19149,-2.8264,-1.2689,11.9806,1500,2823.4
19154,-3.2537,1.804,9.5074,1533,2823.0
19159,1.336,3.3758,10.1191,1499,2823.0
19164,1.4892,2.2218,11.388,1500,2823.0
19169,-1.7454,-1.0977,12.1709,1493,2823.0
19174,-4.2832,1.0307,10.0042,1499,2823.0
19179,0.7506,3.0861,9.8186,1531,2823.4
19184,2.5355,3.1196,10.8936,1507,2823.4
19189,-1.7729,-0.322,12.2009,1497,2823.4
19194,-4.0235,0.2179,10.908,1497,2823.4
19199,-0.3268,2.7964,9.4966,1541,2823.26
19204,2.0458,3.6835,10.4423,1493,2823.26
19209,-1.7107,0.6225,11.9734,1497,2823.26
19214,-3.6045,-0.6752,11.5616,1499,2823.26
19219,-1.749,2.411,9.2955,1557,2823.66
19224,1.798,3.723,10.3202,1499,2823.66
19229,-0.6572,1.3874,11.7555,1495,2823.66
19234,-2.6827,-1.1744,11.9926,1499,2823.66
19239,-3.1795,1.8471,9.5026,1531,2823.53
19244,1.3204,3.4141,10.0317,1501,2823.53
19249,1.5383,2.1847,11.315,1503,2823.53
19254,-1.7202,-1.2019,12.1637,1491,2823.53
19259,-4.1946,1.0475,10.0556,1501,2823.53
19264,0.6991,3.0514,9.7348,1529,2824.46
19269,2.545,3.1089,10.9128,1507,2824.46
19274,-1.7837,-0.3675,12.1578,1495,2824.46
19279,-3.9552,0.3017,10.9188,1496,2824.46
19284,-0.2933,2.7988,9.4224,1517,2824.06
19289,2.0686,3.7098,10.4447,1495,2824.06
19294,-1.731,0.644,12.0069,1493,2824.06
19299,-3.5638,-0.504,11.5724,1497,2824.06
19304,-1.6125,2.4529,9.2715,1556,2824.86
19309,1.7406,3.7613,10.3011,1501,2824.86
19314,-0.7614,1.3683,11.7005,1497,2824.86
19319,-2.7641,-1.2629,12.0081,1503,2824.86
19324,-3.0179,1.8364,9.4882,1561,2824.06
19329,1.3204,3.3303,10.064,1497,2824.06
19334,1.3001,2.1512,11.3054,1501,2824.06
19339,-1.9477,-1.1983,12.2092,1492,2824.06
19344,-3.948,1.1061,10.1406,1499,2824.06
19349,0.6428,3.073,9.8677,1527,2825.26
19354,2.3535,3.1113,10.9271,1507,2825.26
19359,-1.6041,-0.3496,12.1709,1497,2825.26
19364,-4.1492,0.2562,10.8206,1496,2825.26
19369,-0.2658,2.8695,9.4906,1523,2824.86
19374,2.2398,3.705,10.5249,1497,2824.86
19379,-1.8352,0.5698,11.9662,1501,2824.86
19384,-3.6524,-0.5962,11.5305,1497,2824.86
19389,-1.658,2.4756,9.2644,1554,2824.86
19394,1.7861,3.7074,10.2544,1501,2824.86
19399,-0.7721,1.2725,11.7699,1493,2824.86
19404,-2.9102,-1.233,11.9662,1502,2824.86
19409,-2.8431,1.8555,9.5529,1563,2824.99
19414,1.2234,3.3902,10.0904,1499,2824.99
19419,1.2198,2.0818,11.3988,1501,2824.99
19424,-1.9728,-1.1875,12.1458,1494,2824.99
19429,-3.9528,1.1337,10.009,1502,2824.99
19434,0.7422,3.1161,9.8102,1541,2825.12
19439,2.3667,3.0562,10.908,1507,2825.12
19444,-1.6233,-0.3915,12.1865,1493,2825.12
19449,-4.0414,0.3316,10.8026,1495,2825.12
19454,-0.2215,2.8539,9.5361,1531,2825.39
19459,2.1392,3.6811,10.5405,1497,2825.39
19464,-1.8124,0.5483,12.0285,1501,2825.39
19469,-3.7074,-0.5016,11.5089,1499,2825.39
19474,-1.4653,2.5079,9.3111,1557,2825.79
19479,1.8292,3.7924,10.2891,1496,2825.79
19484,-1.0008,1.2665,11.7926,1497,2825.79
19489,-2.9233,-1.1528,11.9878,1501,2825.79
19494,-2.806,1.8926,9.4643,1561,2825.66
19499,1.3563,3.4405,10.0796,1496,2825.66
19504,1.0678,2.0446,11.3868,1500,2825.66
19509,-1.9752,-1.2665,12.1194,1493,2825.66
19514,-3.8654,1.1863,9.9958,1499,2825.66
19519,0.7649,3.1089,9.8557,1541,2825.66
19524,2.3188,2.9389,10.9451,1495,2825.66
19529,-1.5957,-0.4884,12.1889,1495,2825.66
19534,-4.1037,0.4154,10.7524,1495,2825.66
19539,-0.0982,2.8575,9.5457,1533,2825.79
19544,2.241,3.5865,10.5046,1501,2825.79
19549,-1.8364,0.4836,12.0931,1505,2825.79
19554,-3.7194,-0.3496,11.4431,1496,2825.79
19559,-1.3408,2.4983,9.3446,1558,2825.92
19564,1.828,3.7541,10.3034,1500,2825.92
19569,-1.081,1.1815,11.7567,1497,2825.92
19574,-2.9628,-1.1744,11.8908,1509,2825.92
19579,-2.7677,1.9501,9.3889,1549,2825.92
19584,1.3683,3.4536,10.1203,1496,2825.92
19589,0.9517,2.0099,11.3988,1499,2825.92
19594,-2.1416,-1.2558,12.1278,1491,2825.92
19599,-3.7409,1.2558,9.973,1507,2825.92
19604,0.7673,3.1603,9.8809,1519,2826.06
19609,2.2541,2.9293,11.0061,1495,2826.06
19614,-1.6472,-0.5195,12.1901,1502,2826.06
19619,-4.045,0.4669,10.6686,1497,2826.06
19624,0.0048,2.8802,9.5146,1531,2826.06
19629,2.2194,3.5949,10.562,1502,2826.06
19634,-1.7645,0.425,12.0692,1500,2826.06
19639,-3.6955,-0.3555,11.3904,1497,2826.06
19644,-1.2366,2.5462,9.3434,1557,2825.92
19649,1.8375,3.7469,10.3106,1500,2825.92
19654,-1.2139,1.1073,11.7855,1493,2825.92
19659,-3.0335,-1.1528,11.9722,1507,2825.92
19664,-2.6576,2.0016,9.3937,1562,2825.39
19669,1.4186,3.5183,10.1526,1493,2825.39
19674,0.814,1.9178,11.4682,1497,2825.39
19679,-2.0997,-1.2677,12.1362,1491,2825.39
19684,-3.7314,1.3288,9.8641,1507,2825.39
19689,0.8906,3.1508,9.9024,1533,2825.52
19694,2.3116,2.8563,11.0504,1495,2825.52
19699,-1.5814,-0.6728,12.1865,1493,2825.52
19704,-4.1312,0.4764,10.6362,1495,2825.52
19709,0.0275,2.9317,9.6055,1541,2825.52
19714,2.3379,3.5781,10.5692,1499,2825.52
19719,-1.8352,0.3316,12.0608,1495,2825.52
19724,-3.8487,-0.3172,11.382,1496,2825.52
19729,-1.2031,2.5965,9.3601,1557,2825.12
19734,1.9261,3.7637,10.3597,1502,2825.12
19739,-1.2665,1.1504,11.8657,1493,2825.12
19744,-2.9844,-1.0271,11.9076,1507,2825.12
19749,-2.6959,2.059,9.3565,1562,2824.99
19754,1.476,3.5183,10.1287,1493,2824.99
19759,0.7865,1.8328,11.4838,1497,2824.99
19764,-2.3056,-1.336,12.1194,1495,2824.99
19769,-3.5231,1.3252,9.9323,1509,2824.99
19774,0.8021,3.1376,9.8246,1527,2825.12
19779,2.0806,2.7785,11.1199,1497,2825.12
19784,-1.4952,-0.7123,12.1973,1492,2825.12
19789,-4.1803,0.5758,10.6578,1495,2825.12
19794,0.0886,2.9616,9.5229,1543,2824.86
19799,2.3499,3.6212,10.6231,1499,2824.86
19804,-1.9273,0.2885,12.1063,1495,2824.86
19809,-3.7984,-0.2574,11.3126,1497,2824.86
19814,-1.16,2.6348,9.2823,1553,2824.59
19819,1.9417,3.7769,10.4279,1501,2824.59
19824,-1.2905,1.0654,11.8477,1493,2824.59
19829,-3.0227,-1.0558,11.8465,1507,2824.59
19834,-2.6612,2.0746,9.3482,1564,2824.59
19839,1.4724,3.5027,10.1406,1494,2824.59
19844,0.6476,1.7933,11.4946,1499,2824.59
19849,-2.3559,-1.3276,12.1925,1495,2824.59
19854,-3.5662,1.4186,9.8653,1507,2824.59
19859,0.8535,3.1855,9.9024,1529,2824.33
19864,2.1141,2.7031,11.0756,1496,2824.33
19869,-1.4748,-0.6512,12.1853,1486,2824.33
19874,-4.1492,0.5471,10.5309,1496,2824.33
19879,0.1101,2.9616,9.6079,1542,2824.86
19884,2.3391,3.4608,10.6255,1501,2824.86
19889,-1.7957,0.2083,12.129,1497,2824.86
19894,-3.9037,-0.2658,11.3078,1497,2824.86
19899,-1.136,2.6037,9.3326,1554,2825.12
19904,1.9656,3.7493,10.2699,1503,2825.12
19909,-1.4257,1.0534,11.898,1494,2825.12
19914,-3.1556,-1.0044,11.9219,1503,2825.12
19919,-2.5821,2.1572,9.4128,1543,2825.39
19924,1.5622,3.6093,10.1562,1493,2825.39
19929,0.5638,1.7849,11.5664,1499,2825.39
19934,-2.3475,-1.3431,12.0787,1493,2825.39
19939,-3.5099,1.391,9.7683,1508,2825.39
19944,0.9206,3.2022,9.8964,1531,2825.12
19949,2.1069,2.6384,11.1342,1497,2825.12
19954,-1.579,-0.8248,12.2475,1490,2825.12
19959,-4.0115,0.6177,10.4878,1497,2825.12
19964,0.1616,2.9425,9.5565,1533,2825.12
19969,2.2553,3.4596,10.6063,1499,2825.12
19974,-1.7514,0.1975,12.1135,1493,2825.12
19979,-3.8116,-0.1365,11.2432,1495,2825.12
19984,-0.9409,2.6983,9.4092,1555,2824.99
19989,1.8962,3.802,10.4088,1507,2824.99
19994,-1.4533,1.0451,11.8776,1496,2824.99
19999,-3.1879,-0.9278,11.7998,1503,2824.99
20004,-2.3774,2.1404,9.3577,1527,2824.73
20009,1.6281,3.5099,10.1682,1494,2824.73
20014,0.3675,1.6819,11.5508,1503,2824.73
20019,-2.1428,-1.3755,12.1242,1496,2824.73
20024,-3.8523,1.4006,9.651,1508,2824.73
20029,1.136,3.2537,9.9719,1531,2824.46
20034,2.1955,2.6887,11.1187,1497,2824.46
20039,-1.6101,-0.8045,12.2715,1492,2824.46
20044,-4.3934,0.6524,10.4076,1495,2824.46
20049,0.3436,2.9928,9.6522,1527,2824.33
20054,2.5139,3.5051,10.6482,1499,2824.33
20059,-1.5957,0.1951,12.135,1491,2824.33
20064,-4.3335,-0.2634,11.1414,1491,2824.33
20069,-0.9146,2.6827,9.2943,1557,2823.93
20074,2.308,3.7924,10.3992,1503,2823.93
20079,-1.5682,0.9625,11.8836,1495,2823.93
20084,-3.2705,-0.9493,11.7735,1501,2823.93
20089,-2.5019,2.144,9.3063,1529,2823.66
20094,1.6759,3.5506,10.1682,1493,2823.66
20099,0.3687,1.7214,11.5855,1503,2823.66
20104,-2.3116,-1.3276,12.0764,1496,2823.66
20109,-3.8547,1.5167,9.6546,1509,2823.66
20114,1.2402,3.2609,9.979,1533,2823.93
20119,2.211,2.6252,11.1534,1499,2823.93
20124,-1.8172,-0.808,12.1829,1494,2823.93
20129,-4.0606,0.6955,10.4435,1500,2823.93
20134,0.2334,2.9437,9.6319,1531,2824.06
20139,2.3296,3.3902,10.665,1499,2824.06
20144,-1.6951,0.0778,12.1003,1492,2824.06
20149,-3.9217,-0.146,11.2025,1493,2824.06
20154,-0.9098,2.6492,9.3338,1557,2824.19
20159,1.9537,3.784,10.4447,1506,2824.19
20164,-1.573,0.9924,11.9195,1496,2824.19
20169,-3.2884,-0.8475,11.8669,1501,2824.19
20174,-2.2553,2.1979,9.3613,1543,2823.93
20179,1.5419,3.6284,10.1754,1491,2823.93
20184,0.2095,1.7083,11.5041,1503,2823.93
20189,-2.2434,-1.312,12.0716,1497,2823.93
20194,-3.5841,1.4844,9.7336,1507,2823.93
20199,1.0319,3.2238,9.985,1533,2824.86
20204,2.0686,2.575,11.1953,1497,2824.86
20209,-1.6209,-0.9565,12.1913,1493,2824.86
20214,-4.1468,0.7278,10.3753,1497,2824.86
20219,0.2466,2.9999,9.6822,1547,2824.46
20224,2.3786,3.4297,10.7009,1499,2824.46
20229,-1.8639,0.0694,12.1242,1493,2824.46
20234,-3.9361,-0.0754,11.2025,1496,2824.46
20239,-0.8679,2.7725,9.3913,1559,2824.59
20244,2.0339,3.8032,10.398,1507,2824.59
20249,-1.549,0.9433,11.8992,1495,2824.59
20254,-3.2382,-0.8691,11.7591,1502,2824.59
20259,-2.1488,2.1428,9.3254,1557,2824.73
20264,1.3982,3.5075,10.1263,1494,2824.73
20269,0.0766,1.6245,11.5987,1509,2824.73
20274,-2.2649,-1.33,12.1278,1495,2824.73
20279,-3.6117,1.555,9.6726,1511,2824.73
20284,1.0427,3.2693,10.0126,1529,2824.73
20289,2.0411,2.6073,11.2623,1496,2824.73
20294,-1.9118,-0.9158,12.1362,1492,2824.73
20299,-3.8235,0.8212,10.3968,1501,2824.73
20304,0.34,2.97,9.6426,1547,2824.19
20309,2.2589,3.3974,10.7021,1497,2824.19
20314,-1.664,0.0539,12.0512,1493,2824.19
20319,-3.7409,-0.0347,11.1354,1497,2824.19
20324,-0.7386,2.6923,9.3757,1558,2823.93
20329,1.883,3.7038,10.343,1501,2823.93
20334,-1.5993,0.8966,11.8992,1495,2823.93
20339,-3.286,-0.8715,11.7819,1502,2823.93
20344,-2.1332,2.2685,9.4272,1561,2823.93
20349,1.4545,3.5817,10.1754,1493,2823.93
20354,-0.0132,1.6388,11.6693,1509,2823.93
20359,-2.3164,-1.2725,12.1841,1499,2823.93
20364,-3.5434,1.6281,9.6534,1509,2823.93
20369,1.1492,3.2908,9.9611,1529,2824.06
20374,2.0602,2.5223,11.1857,1496,2824.06
20379,-1.64,-0.9649,12.1458,1502,2824.06
20384,-4.1108,0.7338,10.313,1499,2824.06
20389,0.346,2.9521,9.6319,1545,2824.33
20394,2.3631,3.3758,10.6997,1500,2824.33
20399,-1.7945,0.0024,12.1159,1492,2824.33
20404,-3.8559,0.0311,11.1139,1497,2824.33
20409,-0.7039,2.7426,9.3901,1558,2824.46
20414,1.8854,3.7876,10.3262,1507,2824.46
20419,-1.6185,0.9349,12.0021,1495,2824.46
20424,-3.3208,-0.8009,11.7328,1508,2824.46
20429,-2.1081,2.2505,9.3314,1527,2824.73
20434,1.579,3.6416,10.1167,1493,2824.73
20439,-0.0419,1.6197,11.6526,1511,2824.73
20444,-2.3188,-1.3815,12.0668,1496,2824.73
20449,-3.6751,1.5335,9.6355,1510,2824.73
20454,1.2833,3.2657,10.0293,1531,2824.73
20459,1.9872,2.4924,11.2264,1493,2824.73
20464,-1.5646,-1.0092,12.1841,1496,2824.73
20469,-4.61,0.7985,10.1885,1501,2824.73
20474,0.6165,3.1149,9.7648,1551,2824.73
20479,2.6755,3.3986,10.7907,1499,2824.73
20484,-1.6664,0.0335,12.1661,1496,2824.73
20489,-4.4113,-0.0263,11.0636,1497,2824.73
20494,-0.6261,2.7629,9.3577,1557,5454545.5
20499,2.3631,3.7888,10.4351,1507,5454545.5
20504,-0.4908,1.3563,11.6873,1496,5454545.5
20509,-3.5865,-0.905,11.6789,1499,5454545.5
20514,-3.6117,1.7657,9.4667,1559,2826.19
20519,1.5191,3.3842,10.2352,1495,2826.19
20524,1.7178,2.2517,11.2779,1503,2826.19
20529,-1.7753,-1.1085,12.287,1496,2826.19
20534,-4.5215,1.0235,10.0999,1503,2826.19
20539,0.8009,3.1304,9.8557,1530,2824.86
20544,2.7031,3.1268,10.8098,1495,2824.86
20549,-1.5024,-0.2502,12.2308,1496,2824.86
20554,-4.4855,0.0958,10.8158,1498,2824.86
20559,-0.3663,2.7964,9.4044,1548,2824.99
20564,2.3559,3.7302,10.5345,1497,2824.99
20569,-1.7609,0.6644,12.0572,1493,2824.99
20574,-3.8966,-0.747,11.6059,1501,2824.99
20579,-1.8998,2.4122,9.2428,1555,2824.86
20584,1.9824,3.7505,10.3693,1507,2824.86
20589,-0.6237,1.391,11.6993,1492,2824.86
20594,-2.8024,-1.2893,12.0213,1495,2824.86
20599,-3.4261,1.8531,9.4571,1565,2824.33
20604,1.5862,3.4477,10.1263,1493,2824.33
20609,1.719,2.2194,11.3545,1511,2824.33
20614,-1.725,-1.2055,12.1398,1492,2824.33
20619,-4.4029,1.0104,9.9503,1503,2824.33
20624,0.7997,3.0562,9.7995,1519,2824.33
20629,2.6157,3.152,10.8529,1497,2824.33
20634,-1.4856,-0.322,12.2164,1496,2824.33
20639,-4.5837,0.1987,10.811,1500,2824.33
20644,-0.2454,2.8383,9.481,1547,2823.66
20649,2.399,3.7709,10.5536,1497,2823.66
20654,-1.9752,0.6524,12.0057,1491,2823.66
20659,-3.6488,-0.4884,11.57,1495,2823.66
20664,-1.6484,2.3715,9.3075,1559,2823.13
20669,1.7538,3.6955,10.2173,1497,2823.13
20674,-0.6416,1.3587,11.71,1493,2823.13
20679,-2.6959,-1.2761,12.0153,1497,2823.13
20684,-2.9844,1.7717,9.5469,1563,2822.73
20689,1.1744,3.3674,10.0185,1495,2822.73
20694,1.312,2.1632,11.2527,1507,2822.73
20699,-1.8184,-1.1947,12.1829,1497,2822.73
20704,-4.0007,1.057,10.143,1501,2822.73
20709,0.6416,3.0801,9.845,1527,2822.6
20714,2.411,3.1304,10.9152,1496,2822.6
20719,-1.7322,-0.2729,12.141,1497,2822.6
20724,-4.0522,0.3136,10.8589,1501,2822.6
20729,-0.2897,2.8455,9.4655,1549,2822.73
20734,2.15,3.7002,10.4591,1498,2822.73
20739,-1.7585,0.6285,12.0081,1493,2822.73
20744,-3.5913,-0.6153,11.625,1499,2822.73
20749,-1.6963,2.4325,9.2847,1560,2823.0
20754,1.7909,3.6715,10.2568,1508,2823.0
20759,-0.6871,1.3838,11.7064,1495,2823.0
20764,-2.8635,-1.233,12.0249,1499,2823.0
20769,-3.14,1.8747,9.5361,1560,2823.4
20774,1.2941,3.4453,10.1011,1495,2823.4
20779,1.415,2.2278,11.4371,1511,2823.4
20784,-1.822,-1.1708,12.1889,1495,2823.4
20789,-3.9828,1.0415,10.1179,1509,2823.4
20794,0.6404,3.0622,9.7468,1515,2823.66
20799,2.4828,3.1137,10.8685,1497,2823.66
20804,-1.5897,-0.3531,12.0955,1487,2823.66
20809,-4.1156,0.2322,10.8876,1499,2823.66
20814,-0.3531,2.794,9.4619,1549,2823.53
20819,2.1225,3.6679,10.5261,1499,2823.53
20824,-1.8735,0.6225,11.9902,1493,2823.53
20829,-3.6284,-0.559,11.5831,1501,2823.53
20834,-1.7226,2.4768,9.3326,1558,2823.66
20839,1.7873,3.7457,10.2448,1512,2823.66
20844,-0.6381,1.397,11.7053,1495,2823.66
20849,-2.7509,-1.2151,12.0404,1496,2823.66
20854,-3.1927,1.8459,9.4894,1560,2824.06
20859,1.3886,3.3902,10.0437,1495,2824.06
20864,1.4688,2.1476,11.382,1507,2824.06
20869,-1.658,-1.2941,12.1901,1499,2824.06
20874,-4.5119,1.0116,10.0054,1508,2824.06
20879,0.9002,3.0921,9.8521,1528,2824.19
20884,2.6288,3.1304,10.9032,1497,2824.19
20889,-1.585,-0.3208,12.2583,1501,2824.19
20894,-4.5861,0.2646,10.8014,1497,2824.19
20899,-0.176,2.8311,9.4296,1548,2824.73
20904,2.4409,3.7469,10.4675,1497,2824.73
20909,-1.7957,0.5926,12.1039,1493,2824.73
20914,-3.9037,-0.6165,11.4515,1498,2824.73
20919,-1.7394,2.4888,9.2033,1557,2824.99
20924,2.0794,3.7637,10.3501,1511,2824.99
20929,-0.7374,1.2941,11.7352,1495,2824.99
20934,-2.8718,-1.251,11.9411,1498,2824.99
20939,-2.9305,1.8256,9.4595,1559,2824.99
20944,1.2462,3.3483,10.082,1491,2824.99
20949,1.3012,2.1105,11.3964,1504,2824.99
20954,-1.8268,-1.2318,12.2308,1497,2824.99
20959,-4.0809,1.1313,10.0054,1509,2824.99
20964,0.6668,3.1771,9.8354,1519,2824.86
20969,2.466,3.1101,10.92,1497,2824.86
20974,-1.6604,-0.3962,12.1961,1497,2824.86
20979,-4.1635,0.2729,10.7607,1498,2824.86
20984,-0.2454,2.8575,9.4607,1553,2824.73
20989,2.3056,3.6464,10.4926,1501,2824.73
20994,-1.7837,0.5219,12.0524,1491,2824.73
20999,-3.5901,-0.5399,11.5197,1503,2824.73
21004,-1.6376,2.49,9.2931,1559,2824.19
21009,1.7885,3.7326,10.2496,1503,2824.19
21014,-0.7386,1.2809,11.7268,1493,2824.19
21019,-2.9054,-1.1887,11.9566,1491,2824.19
21024,-2.8551,1.9094,9.5205,1529,2823.26
21029,1.2653,3.4357,10.088,1492,2823.26
21034,1.1899,2.1021,11.4263,1509,2823.26
21039,-1.9597,-1.2007,12.1434,1499,2823.26
21044,-3.735,1.1289,9.9898,1503,2823.26
21049,0.656,3.1137,9.7791,1517,2823.53
21054,2.2721,2.9963,10.8864,1496,2823.53
21059,-1.5622,-0.4154,12.1578,1497,2823.53
21064,-4.0869,0.3017,10.7368,1498,2823.53
21069,-0.2083,2.818,9.5086,1551,2823.13
21074,2.1404,3.638,10.5153,1499,2823.13
21079,-1.8316,0.5471,12.0117,1493,2823.13
21084,-3.5829,-0.4381,11.5329,1501,2823.13
21089,-1.4257,2.4792,9.3948,1555,2822.87
21094,1.7454,3.7529,10.234,1507,2822.87
21099,-0.9577,1.312,11.7436,1495,2822.87
21104,-2.8479,-1.1911,12.0225,1496,2822.87
21109,-2.8838,1.8579,9.5062,1558,2822.47
21114,1.3372,3.4249,10.0652,1495,2822.47
21119,1.1265,2.0602,11.3545,1509,2822.47
21124,-2.0087,-1.2737,12.1051,1497,2822.47
21129,-3.814,1.0989,9.9982,1511,2822.47
21134,0.6692,3.1101,9.8617,1526,2822.07
21139,2.247,2.9939,10.9523,1496,2822.07
21144,-1.6113,-0.4453,12.1446,1498,2822.07
21149,-4.0797,0.3627,10.8086,1499,2822.07
21154,-0.176,2.8575,9.4846,1546,2822.73
21159,2.2182,3.6655,10.5129,1498,2822.73
21164,-1.7825,0.5423,11.9854,1496,2822.73
21169,-3.632,-0.4202,11.5041,1503,2822.73
21174,-1.47,2.5151,9.347,1561,2822.73
21179,1.7657,3.7038,10.2771,1509,2822.73
21184,-0.9194,1.2785,11.7855,1495,2822.73
21189,-2.8563,-1.2234,11.9303,1497,2822.73
21194,-2.8898,1.8531,9.4296,1562,2823.26
21199,1.2845,3.4165,10.0485,1493,2823.26
21204,1.1756,2.1021,11.3904,1508,2823.26
21209,-2.0578,-1.2306,12.1721,1497,2823.26
21214,-3.7852,1.1959,10.0604,1511,2823.26
21219,0.7171,3.1304,9.8007,1524,2823.66
21224,2.32,3.0682,10.92,1495,2823.66
21229,-1.6017,-0.4513,12.1482,1499,2823.66
21234,-4.0893,0.3508,10.7643,1497,2823.66
21239,-0.1425,2.8695,9.4715,1543,2823.53
21244,2.1955,3.6476,10.5489,1499,2823.53
21249,-1.8232,0.5195,12.0871,1491,2823.53
21254,-3.6883,-0.5303,11.5017,1499,2823.53
21259,-1.4437,2.4756,9.3577,1561,2823.13
21264,1.8052,3.7002,10.234,1508,2823.13
21269,-0.9194,1.2546,11.7603,1497,2823.13
21274,-2.8587,-1.227,11.9818,1497,2823.13
21279,-3.1077,1.9273,9.4966,1561,2822.73
21284,1.5395,3.4764,10.1718,1493,2822.73
21289,1.2965,2.083,11.3916,1511,2822.73
21294,-2.0626,-1.2462,12.0811,1497,2822.73
21299,-3.8487,1.1432,10.0341,1509,2822.73
21304,0.7482,3.1029,9.8234,1526,2822.2
21309,2.3463,2.9736,10.9259,1496,2822.2
21314,-1.5969,-0.4848,12.2212,1497,2822.2
21319,-4.0737,0.4082,10.7895,1497,2822.2
21324,-0.1664,2.8898,9.5229,1549,2822.33
21329,2.1811,3.6069,10.4651,1496,2822.33
21334,-1.7765,0.5602,12.0716,1493,2822.33
21339,-3.6404,-0.413,11.546,1500,2822.33
21344,-1.4545,2.5235,9.3278,1556,2822.73
21349,1.8256,3.7373,10.2747,1507,2822.73
21354,-0.8691,1.2725,11.7998,1497,2822.73
21359,-2.8323,-1.2091,11.9279,1497,2822.73
21364,-2.8623,1.8651,9.4846,1560,2822.73
21369,1.2941,3.3746,10.0844,1495,2822.73
21374,1.1349,2.0949,11.4239,1509,2822.73
21379,-2.0207,-1.2833,12.147,1499,2822.73
21384,-3.9492,1.16,10.0209,1511,2822.73
21389,0.7614,3.1077,9.8378,1531,2822.73
21394,2.3463,3.0275,10.9283,1496,2822.73
21399,-1.5706,-0.4597,12.1781,1496,2822.73
21404,-4.2605,0.3316,10.823,1498,2822.73
21409,-0.1652,2.9125,9.5193,1549,2822.87
21414,2.326,3.7266,10.4722,1500,2822.87
21419,-1.7933,0.5399,12.0632,1495,2822.87
21424,-3.8415,-0.5531,11.4682,1497,2822.87
21429,-1.5634,2.5307,9.3015,1560,2823.13
21434,1.9537,3.7409,10.2999,1509,2823.13
21439,-0.8775,1.239,11.7675,1497,2823.13
21444,-2.9712,-1.2881,11.9519,1495,2823.13
21449,-3.3519,1.9441,9.4128,1556,2823.0
21454,1.646,3.4656,10.2113,1493,2823.0
21459,1.4006,2.0913,11.3988,1509,2823.0
21464,-1.8771,-1.1935,12.232,1497,2823.0
21469,-4.385,1.1756,9.9491,1511,2823.0
21474,0.9266,3.1591,9.9036,1530,2823.53
21479,2.5881,2.9939,10.9164,1487,2823.53
21484,-1.4928,-0.4417,12.1997,1495,2823.53
21489,-4.5861,0.2454,10.6937,1497,2823.53
21494,-0.1041,2.8826,9.5074,1553,2823.13
21499,2.4074,3.62,10.5512,1499,2823.13
21504,-1.895,0.4788,12.1171,1491,2823.13
21509,-3.7912,-0.5112,11.4826,1496,2823.13
21514,-1.5119,2.5139,9.2907,1555,2823.13
21519,1.8459,3.7553,10.2544,1507,2823.13
21524,-0.9457,1.2677,11.7807,1496,2823.13
21529,-2.8551,-1.1672,11.9973,1499,2823.13
21534,-2.9329,1.907,9.5026,1525,2822.47
21539,1.3252,3.4704,10.1311,1495,2822.47
21544,1.1875,2.059,11.394,1508,2822.47
21549,-1.8256,-1.2713,12.1554,1497,2822.47
21554,-3.9552,1.1049,9.9132,1511,2822.47
21559,0.7051,3.1101,9.7863,1525,2823.66
21564,2.3894,2.9844,10.9116,1496,2823.66
21569,-1.6783,-0.4609,12.1685,1493,2823.66
21574,-4.1108,0.346,10.8014,1501,2823.66
21579,-0.2239,2.903,9.517,1546,2823.53
21584,2.229,3.6524,10.5477,1502,2823.53
21589,-1.8974,0.5136,12.0452,1493,2823.53
21594,-3.5985,-0.4705,11.4802,1499,2823.53
21599,-1.5694,2.5055,9.323,1557,2823.66
21604,1.8543,3.7517,10.2951,1505,2823.66
21609,-0.844,1.2151,11.7603,1494,2823.66
21614,-2.9353,-1.1779,11.9028,1500,2823.66
21619,-2.6983,1.8447,9.4894,1529,2823.13
21624,1.1612,3.3782,10.082,1495,2823.13
21629,1.0439,2.0315,11.3653,1508,2823.13
21634,-1.7992,-1.1935,12.1374,1497,2823.13
21639,-3.972,1.1384,10.0185,1509,2823.13
21644,0.6704,3.1591,9.8593,1532,2823.4
21649,2.3954,3.0562,10.92,1499,2823.4
21654,-1.8052,-0.4274,12.1973,1496,2823.4
21659,-3.8523,0.3986,10.8038,1499,2823.4
21664,-0.1425,2.8383,9.5086,1546,2822.73
21669,2.0494,3.644,10.4447,1500,2822.73
21674,-1.7538,0.51,12.0297,1491,2822.73
21679,-3.5698,-0.5171,11.5173,1497,2822.73
21684,-1.5754,2.5079,9.3266,1557,2822.73
21689,1.8747,3.7673,10.2627,1507,2822.73
21694,-0.8918,1.2151,11.74,1496,2822.73
21699,-2.9772,-1.1337,11.9195,1500,2822.73
21704,-2.6743,1.9213,9.5349,1560,2822.47
21709,1.227,3.4465,10.1263,1495,2822.47
21714,1.0606,2.0889,11.4706,1508,2822.47
21719,-1.7885,-1.1899,12.1673,1497,2822.47
21724,-3.9205,1.1576,10.0078,1509,2822.47
21729,0.6776,3.1232,9.8102,1530,2822.2
21734,2.4217,2.97,10.9188,1497,2822.2
21739,-1.8028,-0.4741,12.1183,1496,2822.2
21744,-3.8523,0.3938,10.8038,1501,2822.2
21749,-0.1628,2.8108,9.5445,1544,2822.07
21754,2.0387,3.5769,10.5177,1497,2822.07
21759,-1.7968,0.5219,11.9758,1493,2822.07
21764,-3.5494,-0.3879,11.5149,1497,2822.07
21769,-1.3695,2.4995,9.3805,1557,2821.94
21774,1.6915,3.7888,10.2448,1503,2821.94
21779,-0.9661,1.312,11.795,1495,2821.94
21784,-2.6695,-1.1779,12.0321,1502,2821.94
21789,-2.9796,1.9225,9.5146,1563,2821.94
21794,1.3491,3.4285,10.0844,1494,2821.94
21799,1.2833,2.0435,11.3497,1509,2821.94
21804,-1.8794,-1.3108,12.1482,1497,2821.94
21809,-3.9875,1.0882,10.0401,1511,2821.94
21814,0.7254,3.0765,9.7971,1529,2822.07
21819,2.3978,3.0131,10.9774,1499,2822.07
21824,-1.7789,-0.4441,12.1733,1493,2822.07
21829,-3.9444,0.4166,10.8529,1501,2822.07
21834,-0.1425,2.8635,9.5098,1541,2822.07
21839,2.0686,3.6811,10.4579,1503,2822.07
21844,-1.7023,0.5997,12.1087,1495,2822.07
21849,-3.5997,-0.4705,11.4886,1495,2822.07
21854,-1.5347,2.5139,9.2907,1557,2823.13
21859,1.8447,3.717,10.2316,1506,2823.13
21864,-0.8691,1.2797,11.7615,1493,2823.13
21869,-2.8144,-1.172,11.9411,1509,2823.13
21874,-3.0586,1.8866,9.4691,1543,2823.4
21879,1.342,3.3998,10.137,1496,2823.4
21884,1.2629,2.0638,11.4311,1507,2823.4
21889,-2.1428,-1.2462,12.1518,1499,2823.4
21894,-3.7385,1.2294,10.076,1512,2823.4
21899,0.6943,3.1173,9.8773,1529,2823.53
21904,2.235,3.0167,10.9403,1496,2823.53
21909,-1.5131,-0.4106,12.22,1494,2823.53
21914,-4.1503,0.3124,10.726,1497,2823.53
21919,-0.2119,2.8551,9.4786,1529,2823.66
21924,2.2757,3.6284,10.5105,1500,2823.66
21929,-1.8675,0.5052,12.062,1495,2823.66
21934,-3.6978,-0.5195,11.5053,1496,2823.66
21939,-1.5921,2.4708,9.2835,1557,2823.53
21944,1.8148,3.7182,10.2927,1502,2823.53
21949,-0.8894,1.2342,11.8465,1495,2823.53
21954,-2.9377,-1.142,11.9662,1502,2823.53
21959,-2.8323,1.9465,9.4858,1531,2823.53
21964,1.3108,3.4632,10.0784,1495,2823.53
21969,1.1528,2.0542,11.3868,1505,2823.53
21974,-1.986,-1.2486,12.1278,1496,2823.53
21979,-3.7781,1.1756,9.9802,1511,2823.53
21984,0.7135,3.0813,9.809,1533,2823.53
21989,2.2721,2.9006,10.914,1498,2823.53
21994,-1.5886,-0.5064,12.1997,1492,2823.53
21999,-4.0677,0.3531,10.7368,1493,2823.53
22004,-0.1209,2.8575,9.5708,1541,2823.8
22009,2.1009,3.632,10.4974,1501,2823.8
22014,-1.822,0.5638,12.123,1493,2823.8
22019,-3.6931,-0.407,11.4515,1494,2823.8
22024,-1.403,2.5355,9.3111,1559,2823.66
22029,1.8304,3.7685,10.24,1507,2823.66
22034,-0.9517,1.3036,11.7543,1495,2823.66
22039,-2.873,-1.1552,11.9207,1503,2823.66
22044,-2.8096,1.9106,9.4966,1542,2823.26
22049,1.336,3.4153,10.082,1494,2823.26
22054,1.1372,1.9872,11.3677,1501,2823.26
22059,-1.9908,-1.2977,12.1135,1497,2823.26
22064,-3.8559,1.16,9.9994,1509,2823.26
22069,0.7446,3.1196,9.8641,1543,2823.8
22074,2.2661,3.0143,11.0061,1498,2823.8
22079,-1.5275,-0.4477,12.1985,1493,2823.8
22084,-4.2473,0.3974,10.7224,1499,2823.8
22089,-0.0443,2.9221,9.5265,1543,2823.66
22094,2.3403,3.6703,10.5153,1501,2823.66
22099,-1.8627,0.5171,12.0273,1497,2823.66
22104,-3.7433,-0.4788,11.4108,1495,2823.66
22109,-1.4952,2.5438,9.341,1531,2823.53
22114,1.8902,3.7757,10.3166,1507,2823.53
22119,-0.9565,1.1863,11.7807,1496,2823.53
22124,-2.9401,-1.2294,11.8525,1499,2823.53
22129,-3.0358,1.9237,9.4116,1545,2823.53
22134,1.5083,3.5183,10.1778,1493,2823.53
22139,1.1851,2.0578,11.4371,1509,2823.53
22144,-2.1524,-1.2186,12.1889,1496,2823.53
22149,-3.7577,1.2677,9.9982,1523,2823.53
22154,0.753,3.1448,9.8426,1543,2824.73
22159,2.3116,2.909,10.9223,1497,2824.73
22164,-1.5179,-0.5124,12.1853,1492,2824.73
22169,-4.1001,0.3603,10.7153,1499,2824.73
22174,-0.1353,2.885,9.5301,1548,2824.19
22179,2.1955,3.6212,10.5788,1496,2824.19
22184,-1.7933,0.4489,12.1039,1493,2824.19
22189,-3.711,-0.4118,11.485,1495,2824.19
22194,-1.3396,2.5402,9.3039,1559,2824.06
22199,1.8016,3.79,10.2879,1500,2824.06
22204,-1.1037,1.1959,11.7759,1497,2824.06
22209,-2.9736,-1.1217,11.9219,1502,2824.06
22214,-2.8826,1.998,9.4332,1563,2824.06
22219,1.47,3.5183,10.1155,1491,2824.06
22224,1.0798,2.0004,11.4706,1501,2824.06
22229,-2.0865,-1.3264,12.1458,1497,2824.06
22234,-3.723,1.172,9.9371,1511,2824.06
22239,0.7865,3.0418,9.809,1541,2824.33
22244,2.2398,2.8874,11.0097,1496,2824.33
22249,-1.5897,-0.5866,12.1901,1493,2824.33
22254,-4.2306,0.4705,10.6686,1497,2824.33
22259,0.0275,2.9449,9.5648,1553,2824.59
22264,2.2254,3.6907,10.5584,1501,2824.59
22269,-1.8304,0.4848,12.0345,1495,2824.59
22274,-3.8032,-0.334,11.3605,1497,2824.59
22279,-1.2845,2.5606,9.3122,1561,2824.99
22284,1.919,3.729,10.3226,1509,2824.99
22289,-1.063,1.1875,11.7914,1495,2824.99
22294,-2.9951,-1.1791,11.9052,1501,2824.99
22299,-2.7198,1.9632,9.4523,1561,2825.39
22304,1.3815,3.4034,10.0521,1496,2825.39
22309,0.8835,1.9465,11.4096,1508,2825.39
22314,-2.1272,-1.3156,12.1218,1499,2825.39
22319,-3.9265,1.2905,9.9838,1509,2825.39
22324,0.8871,3.1615,9.9491,1529,2825.66
22329,2.2877,2.891,11.0385,1495,2825.66
22334,-1.5921,-0.5543,12.2344,1495,2825.66
22339,-4.288,0.5279,10.6015,1499,2825.66
22344,0.0982,2.958,9.4786,1545,2825.66
22349,2.4253,3.5733,10.5261,1499,2825.66
22354,-1.8364,0.3675,12.1063,1491,2825.66
22359,-3.7457,-0.3795,11.4108,1501,2825.66
22364,-1.1636,2.5151,9.3458,1559,2825.66
22369,1.7705,3.6978,10.2951,1511,2825.66
22374,-1.2043,1.1253,11.8764,1495,2825.66
22379,-3.0957,-1.1313,11.8752,1498,2825.66
22384,-2.6456,2.0997,9.4272,1561,2825.79
22389,1.4772,3.5745,10.1263,1495,2825.79
22394,0.7254,1.9178,11.5472,1509,2825.79
22399,-2.2087,-1.2773,12.129,1499,2825.79
22404,-3.7134,1.3192,9.8701,1508,2825.79
22409,0.9206,3.1939,9.8857,1527,2825.66
22414,2.2649,2.7725,11.0636,1497,2825.66
22419,-1.5251,-0.6931,12.1733,1499,2825.66
22424,-4.148,0.4908,10.5225,1499,2825.66
22429,0.0658,2.9389,9.5792,1548,2825.26
22434,2.247,3.541,10.6542,1499,2825.26
22439,-1.8735,0.2909,12.0752,1491,2825.26
22444,-3.9049,-0.249,11.2839,1497,2825.26
22449,-1.1696,2.6695,9.3458,1559,2824.99
22454,1.9465,3.8008,10.3094,1507,2824.99
22459,-1.3072,1.1109,11.8166,1495,2824.99
22464,-3.1029,-0.9409,11.8848,1497,2824.99
22469,-2.3906,2.0818,9.4535,1561,2824.59
22474,1.3348,3.4931,10.1083,1495,2824.59
22479,0.595,1.8016,11.4778,1513,2824.59
22484,-1.9692,-1.3288,12.1386,1499,2824.59
22489,-3.8199,1.2989,9.833,1507,2824.59
22494,0.8559,3.1388,9.9371,1519,2824.46
22499,2.223,2.7737,11.0935,1497,2824.46
22504,-1.8902,-0.7242,12.2236,1495,2824.46
22509,-3.8822,0.6907,10.6422,1498,2824.46
22514,0.1568,2.9509,9.6163,1549,2824.86
22519,2.1213,3.571,10.574,1499,2824.86
22524,-1.7538,0.3472,12.1997,1493,2824.86
22529,-3.6619,-0.1544,11.2755,1500,2824.86
22534,-0.9996,2.6133,9.3613,1559,2825.39
22539,1.7717,3.6931,10.2783,1507,2825.39
22544,-1.3647,1.0415,11.9028,1495,2825.39
22549,-2.97,-1.0247,11.8393,1496,2825.39
22554,-2.6037,2.1093,9.335,1564,2825.39
22559,1.4605,3.5398,10.1778,1495,2825.39
22564,0.6165,1.8004,11.5293,1511,2825.39
22569,-2.4361,-1.3216,12.1183,1495,2825.39
22574,-3.4105,1.4437,9.8545,1501,2825.39
22579,0.8691,3.213,9.9395,1531,2826.32
22584,2.0303,2.7186,11.0899,1496,2826.32
22589,-1.6915,-0.7219,12.2116,1500,2826.32
22594,-3.8702,0.6883,10.507,1497,2826.32
22599,0.1724,2.9245,9.5996,1547,2826.06
22604,2.2075,3.4512,10.5632,1497,2826.06
22609,-1.7466,0.1508,12.1111,1491,2826.06
22614,-3.7314,-0.2011,11.2432,1503,2826.06
22619,-0.9361,2.6456,9.3649,1561,2825.92
22624,1.7945,3.7757,10.3358,1499,2825.92
22629,-1.4724,1.0151,11.8752,1496,2825.92
22634,-3.1615,-0.9038,11.8417,1499,2825.92
22639,-2.478,2.2015,9.3374,1543,2826.06
22644,1.6113,3.6595,10.1754,1497,2826.06
22649,0.419,1.7346,11.5436,1507,2826.06
22654,-2.2793,-1.3288,12.1458,1497,2826.06
22659,-3.6583,1.4533,9.7528,1496,2826.06
22664,1.0499,3.1987,9.9407,1517,2825.92
22669,2.1895,2.5977,11.1534,1500,2825.92
22674,-1.8519,-0.8847,12.1326,1500,2825.92
22679,-3.9576,0.735,10.392,1497,2825.92
22684,0.2346,2.9042,9.6295,1543,2825.79
22689,2.1895,3.4309,10.7248,1499,2825.79
22694,-1.7166,0.1245,12.2104,1487,2825.79
22699,-3.8379,-0.0072,11.1977,1519,2825.79
22704,-0.8188,2.721,9.4188,1562,2825.79
22709,1.9106,3.8499,10.3657,1495,2825.79
22714,-1.5239,1.0295,11.9578,1493,2825.79
22719,-3.2525,-0.9074,11.7879,1495,2825.79
22724,-2.1739,2.1332,9.3254,1564,2825.79
22729,1.4916,3.5338,10.1718,1499,2825.79
22734,0.1532,1.6293,11.5436,1503,2825.79
22739,-2.4301,-1.409,12.0249,1495,2825.79
22744,-3.4668,1.4868,9.73,1496,2825.79
22749,1.008,3.1963,9.9982,1520,2825.92
22754,1.9022,2.5857,11.2563,1497,2825.92
22759,-1.7538,-0.905,12.214,1498,2825.92
22764,-4.1288,0.8356,10.3777,1498,2825.92
22769,0.4226,3.0406,9.6127,1533,2825.79
22774,2.4588,3.4345,10.7129,1495,2825.79
22779,-1.5574,0.1161,12.1087,1493,2825.79
22784,-4.2234,-0.1089,11.1725,1506,2825.79
22789,-0.7793,2.733,9.3302,1561,2826.06
22794,2.2494,3.7924,10.4351,1496,2826.06
22799,-1.6735,0.8559,11.8752,1493,2826.06
22804,-3.3986,-0.8918,11.7531,1495,2826.06
22809,-2.1668,2.2146,9.3218,1543,2826.06
22814,1.5658,3.565,10.2352,1497,2826.06
22819,0.0156,1.6161,11.6514,1503,2826.06
22824,-2.5474,-1.2833,12.1578,1495,2826.06
22829,-3.4345,1.6676,9.6905,1493,2826.06
22834,1.1887,3.2956,9.9695,1529,2825.79
22839,1.9261,2.4888,11.2156,1499,2825.79
22844,-1.4353,-0.9278,12.2212,1499,2825.79
22849,-4.5633,0.7219,10.2412,1493,2825.79
22854,0.5914,3.0382,9.6941,1527,2825.79
22859,2.6157,3.3543,10.7811,1500,2825.79
22864,-1.7561,-0.0383,12.1673,1491,2825.79
22869,-4.3311,-0.0658,11.1043,1501,2825.79
22874,-0.6572,2.7509,9.3506,1533,2825.26
22879,2.1799,3.8104,10.4495,1493,2825.26
22884,-1.7681,0.8655,11.965,1495,2825.26
22889,-3.4417,-0.7685,11.7172,1497,2825.26
22894,-2.0889,2.3092,9.3733,1563,2825.39
22899,1.7142,3.6619,10.1969,1500,2825.39
22904,-0.0682,1.5371,11.6574,1503,2825.39
22909,-2.4217,-1.3862,12.1099,1492,2825.39
22914,-3.7098,1.6017,9.5074,1503,2825.39
22919,1.3779,3.2872,10.064,1524,2825.26
22924,1.9812,2.3571,11.2216,1499,2825.26
22929,-1.9142,-1.0834,12.1877,1497,2825.26
22934,-3.9971,0.8787,10.3214,1493,2825.26
22939,0.3783,3.0083,9.7109,1529,2825.52
22944,2.2877,3.2705,10.7799,1501,2825.52
22949,-1.567,-0.006,12.1829,1495,2825.52
22954,-4.0582,0.1532,11.0588,1508,2825.52
22959,-0.5435,2.8252,9.4379,1561,2825.52
22964,2.1584,3.7182,10.422,1499,2825.52
22969,-1.6891,0.8092,11.9471,1497,2825.52
22974,-3.4357,-0.7614,11.649,1499,2825.52
22979,-1.98,2.2625,9.2883,1529,2825.12
22984,1.6185,3.5853,10.1766,1500,2825.12
22989,-0.2514,1.5071,11.6741,1499,2825.12
22994,-2.5798,-1.2845,12.0919,1491,2825.12
22999,-3.3746,1.652,9.6414,1499,2825.12
23004,1.1827,3.2884,10.0652,1531,2825.92
23009,1.725,2.3798,11.2946,1502,2825.92
23014,-1.7549,-1.008,12.2511,1491,2825.92
23019,-4.1132,0.9313,10.2496,1495,2825.92
23024,0.5351,3.0622,9.7576,1529,2825.66
23029,2.4648,3.2717,10.7799,1503,2825.66
23034,-1.6293,-0.0826,12.2116,1494,2825.66
23039,-4.1444,0.0515,10.9774,1502,2825.66
23044,-0.5602,2.7797,9.408,1559,2825.52
23049,2.1512,3.6955,10.4016,1497,2825.52
23054,-1.7645,0.7278,12.0357,1501,2825.52
23059,-3.5303,-0.7638,11.5951,1497,2825.52
23064,-2.0231,2.3475,9.2368,1561,2825.66
23069,1.7657,3.7014,10.2879,1503,2825.66
23074,-0.2981,1.5071,11.71,1500,2825.66
23079,-2.6097,-1.2582,12.1003,1497,2825.66
23084,-3.3686,1.7729,9.6175,1501,2825.66
23089,1.2773,3.3674,10.1011,1530,2825.26
23094,1.7549,2.2637,11.2779,1500,2825.26
23099,-1.7023,-1.1181,12.1613,1497,2825.26
23104,-4.1312,0.911,10.155,1492,2825.26
23109,0.5195,3.0047,9.7217,1532,2825.26
23114,2.4612,3.2106,10.8433,1502,2825.26
23119,-1.6771,-0.1568,12.1709,1497,2825.26
23124,-4.1408,0.1963,10.9259,1497,2825.26
23129,-0.5207,2.7904,9.4942,1561,2825.39
23134,2.1979,3.7637,10.4507,1496,2825.39
23139,-1.7957,0.7195,12.0093,1497,2825.39
23144,-3.4812,-0.5638,11.6346,1497,2825.39
23149,-1.6616,2.3798,9.3553,1560,2825.52
23154,1.6257,3.6835,10.2089,1501,2825.52
23159,-0.559,1.4246,11.6969,1497,2825.52
23164,-2.5235,-1.2534,12.0704,1500,2825.52
23169,-3.3064,1.6987,9.517,1533,2825.52
23174,1.2234,3.3459,10.0556,1501,2825.52
23179,1.6185,2.2338,11.3401,1507,2825.52
23184,-2.0794,-1.1899,12.1709,1496,2825.52
23189,-3.7888,1.0367,10.1706,1497,2825.52
23194,0.5435,3.0897,9.7779,1546,2825.92
23199,2.2793,3.1675,10.8673,1507,2825.92
23204,-1.6041,-0.2382,12.1949,1497,2825.92
23209,-3.9025,0.3041,10.8804,1500,2825.92
23214,-0.3184,2.8168,9.4822,1557,2826.06
23219,2.047,3.6931,10.4806,1499,2826.06
23224,-1.7526,0.6345,12.0129,1499,2826.06
23229,-3.5111,-0.5614,11.5867,1497,2826.06
23234,-1.6053,2.4301,9.2979,1556,2825.92
23239,1.5957,3.638,10.234,1501,2825.92
23244,-0.6835,1.3192,11.7304,1496,2825.92
23249,-2.8108,-1.2414,12.0345,1503,2825.92
23254,-2.9604,1.8268,9.5193,1533,2825.92
23259,1.2103,3.3531,10.0868,1500,2825.92
23264,1.3084,2.1512,11.3892,1503,2825.92
23269,-1.9573,-1.1708,12.2092,1495,2825.92
23274,-3.7876,1.1085,10.1586,1503,2825.92
23279,0.6345,3.1173,9.8198,1531,2826.06
23284,2.2924,3.0897,10.8625,1507,2826.06
23289,-1.5443,-0.3771,12.0776,1497,2826.06
23294,-4.1982,0.2215,10.8505,1498,2826.06
23299,-0.3124,2.8024,9.4535,1517,2825.52
23304,2.2182,3.6667,10.4914,1495,2825.52
23309,-1.7789,0.5794,12.0057,1500,2825.52
23314,-3.784,-0.5638,11.5664,1497,2825.52
23319,-1.6233,2.4804,9.2751,1561,2826.86
23324,1.8543,3.7613,10.2843,1501,2826.86
23329,-0.844,1.3491,11.795,1496,2826.86
23334,-2.8982,-1.2354,12.0572,1503,2826.86
23339,-3.0191,1.9058,9.4727,1565,2826.46
23344,1.3599,3.4105,10.0449,1501,2826.46
23349,1.3539,2.0794,11.4012,1502,2826.46
23354,-1.9908,-1.2677,12.1793,1495,2826.46
23359,-3.9073,1.136,9.9563,1507,2826.46
23364,0.7685,3.0873,9.8258,1553,2826.72
23369,2.3343,2.9963,10.9451,1506,2826.72
23374,-1.5622,-0.4836,12.2499,1496,2826.72
23379,-4.1887,0.4226,10.7033,1496,2826.72
23384,-0.1437,2.9353,9.5241,1543,2826.72
23389,2.235,3.6847,10.5656,1500,2826.72
23394,-1.7633,0.5531,12.0668,1501,2826.72
23399,-3.7362,-0.4238,11.4419,1499,2826.72
23404,-1.409,2.563,9.2871,1556,2826.99
23409,1.8483,3.6835,10.2987,1497,2826.99
23414,-0.9637,1.2318,11.789,1495,2826.99
23419,-2.9365,-1.2151,11.9076,1509,2826.99
23424,-2.8539,1.9513,9.4044,1563,2826.86
23429,1.3599,3.3926,10.0975,1497,2826.86
23434,1.0415,1.9644,11.4371,1497,2826.86
23439,-2.0578,-1.2989,12.1889,1492,2826.86
23444,-14.7136,-0.6165,-0.6165,1507,2826.86
23449,0.8296,3.1568,9.8737,1533,2826.86
23454,2.3188,2.9473,10.9331,1495,2826.86
23459,-1.6257,-0.5423,12.2392,1497,2826.86
23464,-4.1132,0.4633,10.6841,1496,2826.86
23469,0.0012,2.9173,9.5277,1541,2826.86
23474,2.2194,3.5805,10.5046,1499,2826.86
23479,-1.7226,0.4741,12.141,1501,2826.86
23484,-3.9205,-0.401,11.3844,1499,2826.86
23489,-1.4018,2.575,9.1949,1560,2826.72
23494,1.9896,3.7098,10.3358,1503,2826.72
23499,-1.1181,1.1313,11.8142,1491,2826.72
23504,-3.0658,-1.1456,11.9854,1509,2826.72
23509,-2.8671,2.0458,9.4451,1565,2826.59
23514,1.5981,3.5386,10.2256,1495,2826.59
23519,0.9505,1.8878,11.5101,1501,2826.59
23524,-2.0363,-1.2881,12.2044,1493,2826.59
23529,-3.954,1.2989,9.7719,1509,2826.59
23534,0.9625,3.1603,9.8641,1541,2826.72
23539,2.399,2.7869,11.0325,1496,2826.72
23544,-1.3288,-0.5986,12.2571,1491,2826.72
23549,-4.6759,0.4334,10.5429,1498,2826.72
23554,0.1604,2.9221,9.6127,1545,2826.72
23559,2.545,3.5985,10.6171,1499,2826.72
23564,-1.9142,0.3448,12.0764,1497,2826.72
23569,-4.0259,-0.3268,11.309,1497,2826.72
23574,-1.2294,2.6061,9.3386,1557,2827.25
23579,2.0399,3.8379,10.4291,1503,2827.25
23584,-1.2486,1.1349,11.8597,1496,2827.25
23589,-3.0957,-1.0427,11.9363,1507,2827.25
23594,-2.5702,2.0889,9.4164,1567,2827.12
23599,1.4425,3.5075,10.1287,1494,2827.12
23604,0.6273,1.8016,11.4718,1502,2827.12
23609,-2.1991,-1.3324,12.1386,1497,2827.12
23614,-3.7338,1.3264,9.7983,1509,2827.12
23619,0.9206,3.1556,9.9371,1531,2827.25
23624,2.1979,2.7521,11.1318,1497,2827.25
23629,-1.6508,-0.7386,12.2248,1491,2827.25
23634,-4.1492,0.6393,10.5764,1497,2827.25
23639,0.2023,2.9568,9.5457,1547,2827.12
23644,2.3116,3.5458,10.6123,1495,2827.12
23649,-1.725,0.231,12.1458,1495,2827.12
23654,-3.8966,-0.152,11.2851,1495,2827.12
23659,-1.0511,2.6779,9.2847,1558,2827.25
23664,2.0004,3.7625,10.3801,1507,2827.25
23669,-1.3815,1.0175,11.8573,1496,2827.25
23674,-3.2274,-1.0343,11.7914,1507,2827.25
23679,-2.4229,2.1165,9.317,1544,2826.99
23684,1.5287,3.5135,10.2268,1493,2826.99
23689,0.3783,1.7083,11.5748,1501,2826.99
23694,-2.3858,-1.3372,12.1829,1499,2826.99
23699,-3.6428,1.4868,9.7324,1511,2826.99
23704,0.972,3.2274,9.9982,1543,2827.52
23709,2.0806,2.6635,11.1175,1497,2827.52
23714,-1.634,-0.7638,12.1805,1493,2827.52
23719,-4.1096,0.7171,10.4722,1499,2827.52
23724,0.2346,2.9724,9.6379,1545,2827.12
23729,2.3798,3.4716,10.738,1492,2827.12
23734,-1.6388,0.1592,12.135,1491,2827.12
23739,-4.0139,-0.1532,11.2276,1497,2827.12
23744,-0.8607,2.66,9.335,1557,2826.99
23749,2.0458,3.7577,10.3848,1507,2826.99
23754,-1.5694,0.9649,11.9028,1495,2826.99
23759,-3.3435,-0.9074,11.8824,1499,2826.99
23764,-2.3583,2.2314,9.3637,1561,2826.19
23769,1.652,3.6117,10.2316,1496,2826.19
23774,0.231,1.6448,11.649,1511,2826.19
23779,-2.2793,-1.3838,12.1697,1497,2826.19
23784,-3.9049,1.561,9.6678,1511,2826.19
23789,1.3288,3.2896,10.0102,1531,2827.12
23794,2.2266,2.551,11.224,1496,2827.12
23799,-1.8735,-0.9661,12.2416,1495,2827.12
23804,-4.0797,0.8164,10.4208,1501,2827.12
23809,0.3651,2.958,9.596,1549,2826.59
23814,2.3427,3.3351,10.6925,1499,2826.59
23819,-1.5682,0.0479,12.129,1497,2826.59
23824,-4.1061,-0.0084,11.1223,1499,2826.59
23829,-0.723,2.7414,9.3553,1563,2826.72
23834,2.077,3.8056,10.4064,1503,2826.72
23839,-1.64,0.9266,11.9447,1492,2826.72
23844,-3.3567,-0.814,11.7675,1497,2826.72
23849,-2.0446,2.2134,9.3601,1531,2826.72
23854,1.5263,3.571,10.1766,1496,2826.72
23859,-0.0287,1.5718,11.6215,1509,2826.72
23864,-2.3583,-1.3695,12.0835,1501,2826.72
23869,-3.6907,1.549,9.6019,1501,2826.72
23874,1.2067,3.2609,10.0736,1519,2826.72
23879,1.9908,2.4684,11.23,1493,2826.72
23884,-1.5443,-1.0151,12.2595,1497,2826.72
23889,-4.6304,0.8452,10.2029,1498,2826.72
23894,0.6644,3.0754,9.7109,1543,2826.19
23899,2.6743,3.3411,10.7703,1499,2826.19
23904,-1.6556,-0.0072,12.2044,1491,2826.19
23909,-4.4353,-0.0096,11.0157,1502,2826.19
23914,-0.5997,2.8204,9.3625,1561,2825.92
23919,2.3343,3.7673,10.4004,1501,2825.92
23924,-1.5874,0.7721,11.9028,1495,2825.92
23929,-3.6955,-0.911,11.637,1491,2825.92
23934,-2.2745,2.2877,9.2296,1556,2825.79
23939,1.9369,3.6571,10.3729,1497,2825.79
23944,-0.1185,1.4868,11.6933,1509,2825.79
23949,-2.5618,-1.3096,12.0776,1497,2825.79
23954,-3.7409,1.7071,9.5026,1497,2825.79
23959,1.4389,3.3686,10.0999,1519,2825.66
23964,1.9644,2.3966,11.2683,1497,2825.66
23969,-1.5826,-0.9816,12.2607,1499,2825.66
23974,-4.549,0.9206,10.1251,1497,2825.66
23979,0.6919,3.0813,9.7863,1546,2825.79
23984,2.7007,3.2382,10.817,1499,2825.79
23989,-1.5179,-0.097,12.1997,1495,2825.79
23994,-4.5107,-0.0359,10.8685,1508,2825.79
23999,-0.5399,2.7904,9.3302,1561,2825.92
24004,2.3379,3.7673,10.4746,1500,2825.92
24009,-1.8507,0.7697,12.0069,1494,2825.92
24014,-3.6081,-0.7015,11.7017,1495,2825.92
24019,-2.0758,2.3595,9.2859,1565,2825.92
24024,1.7861,3.7385,10.331,1497,2825.92
24029,-0.2382,1.4629,11.6957,1502,2825.92
24034,-2.5247,-1.3527,12.0787,1495,2825.92
24039,-3.6835,1.7083,9.414,1498,2825.92
24044,1.5167,3.3722,10.1035,1523,2825.79
24049,1.8974,2.2829,11.2875,1499,2825.79
24054,-1.664,-1.1384,12.2846,1502,2825.79
24059,-4.5813,0.9409,10.0987,1497,2825.79
24064,0.7709,3.0323,9.8078,1544,2825.39
24069,2.6564,3.213,10.8362,1500,2825.39
24074,-1.8519,-0.2263,12.2272,1485,2825.39
24079,-4.0905,0.255,10.9595,1507,2825.39
24084,-0.4274,2.8311,9.4703,1561,2825.66
24089,2.1308,3.7721,10.4459,1501,2825.66
24094,-1.7131,0.7254,12.0105,1491,2825.66
24099,-3.4656,-0.6213,11.6131,1497,2825.66
24104,-1.8663,2.3367,9.2632,1529,2826.06
24109,1.7526,3.6536,10.2149,1499,2826.06
24114,-0.4345,1.3599,11.7041,1507,2826.06
24119,-2.733,-1.2989,12.0105,1492,2826.06
24124,-3.061,1.7142,9.6151,1495,2826.06
24129,1.0942,3.3184,10.0987,1527,2826.46
24134,1.4066,2.2422,11.3485,1499,2826.46
24139,-1.8711,-1.1049,12.2128,1499,2826.46
24144,-3.7912,1.0523,10.1059,1499,2826.46
24149,0.5399,3.0957,9.7552,1531,2826.06
24154,2.3248,3.1879,10.8625,1499,2826.06
24159,-1.6245,-0.2442,12.2332,1493,2826.06
24164,-3.887,0.2837,10.9295,1510,2826.06
24169,-0.3352,2.8036,9.4092,1532,2825.92
24174,2.047,3.699,10.3908,1496,2825.92
24179,-1.7083,0.6129,12.0141,1495,2825.92
24184,-3.4429,-0.6081,11.5616,1497,2825.92
24189,-1.6628,2.393,9.3613,1555,2825.92
24194,1.6137,3.699,10.24,1501,2825.92
24199,-0.6919,1.3838,11.7208,1507,2825.92
24204,-2.7869,-1.2091,12.0261,1487,2825.92
24209,-2.9329,1.8364,9.5409,1496,2825.92
24214,1.2713,3.4189,10.0293,1525,2825.92
24219,1.3575,2.1656,11.3497,1499,2825.92
24224,-1.907,-1.1672,12.1937,1501,2825.92
24229,-3.7828,1.1193,10.1203,1495,2825.92
24234,0.656,3.0586,9.7241,1543,2825.79
24239,2.3044,3.0849,10.8828,1501,2825.79
24244,-1.6029,-0.3903,12.1769,1495,2825.79
24249,-3.9756,0.3268,10.8541,1508,2825.79
24254,-0.2358,2.8383,9.4248,1565,2826.06
24259,2.0363,3.6559,10.4746,1499,2826.06
24264,-1.798,0.6321,12.0859,1499,2826.06
24269,-3.6715,-0.4513,11.5855,1499,2826.06
24274,-1.5143,2.5019,9.3601,1549,2826.19
24279,1.719,3.7433,10.2412,1501,2826.19
24284,-0.8236,1.3156,11.7232,1499,2826.19
24289,-2.8551,-1.2163,11.9602,1493,2826.19
24294,-2.8886,1.8316,9.4643,1499,2826.19
24299,1.318,3.3722,10.0796,1527,2826.06
24304,1.227,2.0482,11.4036,1500,2826.06
24309,-2.0446,-1.3084,12.1829,1496,2826.06
24314,-3.8427,1.1732,10.0497,1495,2826.06
24319,0.7111,3.0957,9.7671,1531,2825.92
24324,2.2529,3.0526,10.9044,1502,2825.92
24329,-1.6616,-0.4262,12.1997,1493,2825.92
24334,-4.0845,0.4094,10.8242,1501,2825.92
24339,-1.154,2.6013,9.3158,1563,2825.92
24344,2.1955,3.6835,10.507,1497,2825.92
24349,-1.2127,1.0894,11.8405,1499,2825.92
24354,-3.6332,-0.5004,11.4575,1497,2825.92
24359,-2.575,2.0363,9.3589,1560,2825.92
24364,1.3994,3.456,10.228,1499,2825.92
24369,0.6967,1.8435,11.5341,1499,2825.92
24374,-2.2721,-1.336,12.1135,1497,2825.92
24379,-3.7014,1.3671,9.9168,1499,2825.92
24384,0.9242,3.2358,9.9347,1547,2825.92
24389,2.1632,2.7761,11.0313,1503,2825.92
24394,-1.6197,-0.6357,12.1721,1496,2825.92
24399,-4.0402,0.5794,10.5584,1494,2825.92
24404,0.0994,2.9628,9.5624,1531,2825.92
24409,2.2565,3.4848,10.5692,1507,2825.92
24414,-1.7322,0.2921,12.0823,1494,2825.92
24419,-3.8271,-0.2634,11.3126,1501,2825.92
24424,-1.0834,2.6145,9.3601,1547,2826.32
24429,1.828,3.7278,10.2496,1496,2826.32
24434,-1.3288,1.0798,11.9135,1499,2826.32
24439,-3.1759,-1.0068,11.898,1495,2826.32
24444,-2.4684,2.1488,9.4679,1559,2826.19
24449,1.4796,3.5578,10.1299,1501,2826.19
24454,0.5076,1.7753,11.5305,1497,2826.19
24459,-2.2374,-1.2881,12.1266,1501,2826.19
24464,-3.5889,1.3791,9.7779,1523,2826.06
24469,0.9864,3.1615,9.8904,1501,2826.06
24474,2.1225,2.654,11.0864,1506,2826.06
24479,-1.6592,-0.7877,12.2308,1495,2826.06
24484,-3.9935,0.6285,10.5093,1497,2826.06
24489,0.1975,2.9664,9.5565,1531,2826.06
24494,2.2027,3.4884,10.6291,1509,2826.06
24499,-1.8112,0.231,12.147,1499,2826.06
24504,-3.8714,-0.1006,11.2839,1494,2826.06
24509,-0.9122,2.6707,9.3733,1550,2826.19
24514,1.8854,3.8319,10.3489,1497,2826.19
24519,-1.4676,1.0534,11.8908,1501,2826.19
24524,-3.1639,-0.9325,11.8298,1495,2826.19
24529,-2.3164,2.1081,9.3913,1558,2826.06
24534,1.4916,3.5219,10.1646,1501,2826.06
24539,0.3184,1.6867,11.5389,1497,2826.06
24544,-2.3044,-1.4174,12.0835,1506,2826.06
24549,-3.4931,1.4018,9.7959,1562,2825.52
24554,0.996,3.219,9.9994,1507,2825.52
24559,1.9441,2.6695,11.1139,1501,2825.52
24564,-1.7573,-0.8224,12.1578,1492,2825.52
24569,-4.0127,0.7697,10.4387,1503,2825.52
24574,0.2945,3.0502,9.6905,1531,2826.19
24579,2.2805,3.4512,10.6458,1509,2826.19
24584,-1.7142,0.1664,12.153,1497,2826.19
24589,-3.8271,-0.097,11.224,1497,2826.19
24594,-0.8356,2.6839,9.3565,1531,2825.52
24599,1.9429,3.7278,10.3154,1497,2825.52
24604,-1.4904,0.917,11.9088,1503,2825.52
24609,-3.2477,-0.9481,11.8429,1499,2825.52
24614,-2.2134,2.1691,9.4224,1559,2824.99
24619,1.4952,3.4943,10.1969,1496,2824.99
24624,0.1257,1.6664,11.6179,1495,2824.99
24629,-2.4576,-1.2965,12.1398,1503,2824.99
24634,-3.4058,1.5479,9.7456,1559,2824.86
24639,0.996,3.286,9.9491,1499,2824.86
24644,1.9465,2.5953,11.1785,1506,2824.86
24649,-1.7286,-0.8164,12.1973,1493,2824.86
24654,-3.9061,0.7829,10.4387,1503,2824.86
24659,0.316,2.9532,9.6606,1529,2825.26
24664,2.2577,3.3603,10.7524,1507,2825.26
24669,-1.725,0.0814,12.1254,1496,2825.26
24674,-3.8439,-0.0491,11.1474,1493,2825.26
24679,-0.8033,2.6731,9.4068,1533,2825.39
24684,1.8735,3.7517,10.3418,1496,2825.39
24689,-1.6185,0.9337,11.8537,1507,2825.39
24694,-3.3255,-0.8499,11.8106,1497,2825.39
24699,-2.144,2.2302,9.402,1557,2825.79
24704,1.5598,3.6416,10.2292,1495,2825.79
24709,0.0886,1.6305,11.558,1499,2825.79
24714,-2.4804,-1.409,12.0428,1508,2825.79
24719,-3.377,1.5407,9.6414,1563,2825.92
24724,1.0965,3.2034,9.9419,1499,2825.92
24729,1.889,2.4888,11.2013,1499,2825.92
24734,-1.8052,-1.0199,12.238,1493,2825.92
24739,-14.7112,-0.0012,-0.0012,1508,2825.92
24744,0.3903,3.0227,9.7169,1533,2826.19
24749,2.2374,3.4105,10.7045,1499,2826.19
24754,-1.7561,-0.0012,12.1374,1496,2826.19
24759,-3.948,0.085,11.0971,1497,2826.19
24764,-0.6093,2.7916,9.3685,1545,2826.59
24769,2.0123,3.7757,10.3717,1503,2826.59
24774,-1.6173,0.8859,11.9411,1501,2826.59
24779,-3.2908,-0.8116,11.7675,1499,2826.59
24784,-1.9968,2.2194,9.2871,1547,2826.59
24789,1.579,3.5602,10.1921,1499,2826.59
24794,-0.1113,1.5574,11.6382,1496,2826.59
24799,-2.4708,-1.3803,12.1338,1507,2826.59
24804,-3.5111,1.6173,9.6486,1565,2826.72
24809,1.1672,3.3016,10.0066,1492,2826.72
24814,1.883,2.496,11.3234,1497,2826.72
24819,-1.8902,-0.9864,12.1985,1492,2826.72
24824,-3.9851,0.899,10.2699,1508,2826.72
24829,0.5471,3.0179,9.7241,1545,2826.46
24834,2.3786,3.2932,10.7667,1495,2826.46
24839,-1.6568,-0.0862,12.1482,1492,2826.46
24844,-3.9205,0.0874,11.078,1493,2826.46
24849,-0.5291,2.7797,9.3805,1545,2826.19
24854,1.9896,3.7338,10.3729,1499,2826.19
24859,-1.6951,0.7961,11.9698,1496,2826.19
24864,-3.4728,-0.7973,11.6717,1497,2826.19
24869,-1.9585,2.3176,9.2991,1557,2826.06
24874,1.6316,3.65,10.2604,1501,2826.06
24879,-0.3077,1.5167,11.7053,1495,2826.06
24884,-2.636,-1.257,12.0811,1511,2826.06
24889,-3.3088,1.731,9.6283,1565,2826.06
24894,1.2246,3.3255,10.0568,1497,2826.06
24899,1.7274,2.3415,11.2839,1500,2826.06
24904,-1.8124,-1.0714,12.1757,1495,2826.06
24909,-4.0055,0.905,10.1742,1508,2826.06
24914,0.5722,3.0107,9.6965,1531,2825.92
24919,2.3571,3.1807,10.7919,1496,2825.92
24924,-1.7238,-0.146,12.2284,1493,2825.92
24929,-4.0342,0.1365,10.9415,1495,2825.92
24934,-0.4513,2.794,9.4236,1547,2826.32
24939,2.0626,3.735,10.3717,1500,2826.32
24944,-1.7358,0.7626,12.0129,1494,2826.32
24949,-3.4931,-0.6129,11.6933,1497,2826.32
24954,-1.7933,2.3858,9.3482,1558,2826.59
24959,1.7142,3.644,10.2388,1501,2826.59
24964,-0.4752,1.3922,11.6526,1497,2826.59
24969,-2.6971,-1.3036,12.0536,1508,2826.59
24974,-3.152,1.6999,9.5181,1528,2826.86
24979,1.1971,3.3339,10.0688,1492,2826.86
24984,1.4868,2.2517,11.315,1507,2826.86
24989,-1.9118,-1.1791,12.2428,1495,2826.86
24994,-3.9361,1.0511,10.1586,1509,2826.86
24999,0.6464,3.0658,9.7408,1527,2826.86
25004,2.308,3.1232,10.7895,1499,2826.86
25009,-1.5886,-0.2227,12.2128,1487,2826.86
25014,-4.045,0.2586,10.902,1496,2826.86
25019,-0.3519,2.8587,9.4535,1526,2827.12
25024,2.1715,3.735,10.5405,1501,2827.12
25029,-1.7777,0.6488,12.0656,1495,2827.12
25034,-3.5279,-0.6285,11.5484,1493,2827.12
25039,-1.6532,2.3451,9.3075,1559,2826.86
25044,1.7119,3.6595,10.2915,1507,2826.86
25049,-0.6823,1.33,11.7603,1497,2826.86
25054,-2.812,-1.2426,12.0704,1504,2826.86
25059,-3.0107,1.804,9.6031,1562,2826.99
25064,1.2139,3.4297,10.1011,1492,2826.99
25069,1.3348,2.1703,11.2803,1509,2826.99
25074,-2.0147,-1.1468,12.232,1498,2826.99
25079,-3.8487,1.0918,10.0724,1511,2826.99
25084,0.6883,3.0754,9.7899,1533,2826.86
25089,2.3427,3.1053,10.89,1496,2826.86
25094,-1.5981,-0.3328,12.1853,1494,2826.86
25099,-4.1192,0.2598,10.8769,1499,2826.86
25104,-0.2023,2.8623,9.4571,1555,2826.59
25109,2.1644,3.6464,10.4543,1497,2826.59
25114,-1.8064,0.5758,12.0273,1493,2826.59
25119,-3.8283,-0.5698,11.5796,1497,2826.59
25124,-1.6532,2.4792,9.2632,1560,2826.32
25129,1.9716,3.8403,10.3489,1508,2826.32
25134,-0.8368,1.3096,11.7352,1497,2826.32
25139,-2.8958,-1.1648,11.9782,1497,2826.32
25144,-2.9401,1.8735,9.4631,1559,2826.06
25149,1.3647,3.3782,10.0808,1497,2826.06
25154,1.2438,2.0243,11.3318,1507,2826.06
25159,-2.0219,-1.3096,12.1997,1499,2826.06
25164,-3.8403,1.1648,9.9683,1511,2826.06
25169,0.735,3.0993,9.8067,1528,2826.19
25174,2.2649,3.0251,10.9942,1496,2826.19
25179,-1.5921,-0.48,12.2044,1501,2826.19
25184,-4.1216,0.4166,10.7164,1499,2826.19
25189,-0.1185,2.8695,9.517,1549,2826.19
25194,2.2206,3.6931,10.5345,1500,2826.19
25199,-1.8639,0.5183,12.0536,1491,2826.19
25204,-3.7086,-0.4226,11.4766,1499,2826.19
25209,-1.391,2.5534,9.3434,1559,2825.92
25214,1.8364,3.7385,10.2939,1503,2825.92
25219,-0.9565,1.2594,11.661,1494,2825.92
25224,-2.9353,-1.2031,11.9519,1496,2825.92
25229,-2.9497,1.9297,9.4403,1531,2825.39
25234,1.391,3.3974,10.1598,1494,2825.39
25239,1.0762,2.0039,11.4419,1510,2825.39
25244,-1.9992,-1.2653,12.2296,1497,2825.39
25249,-4.0187,1.2402,9.9515,1503,2825.39
25254,0.8799,3.1268,9.8162,1523,2825.52
25259,2.4014,2.9724,10.9642,1491,2825.52
25264,-1.7549,-0.5183,12.2475,1499,2825.52
25269,-4.051,0.4453,10.7464,1499,2825.52
25274,-0.0227,2.9102,9.4703,1547,2825.52
25279,2.1883,3.5841,10.5082,1499,2825.52
25284,-1.7585,0.4705,12.0201,1493,2825.52
25289,-3.6859,-0.4022,11.4263,1500,2825.52
25294,-1.3001,2.5546,9.3039,1545,2825.12
25299,1.7705,3.6811,10.2699,1501,2825.12
25304,-1.1049,1.1492,11.8357,1495,2825.12
25309,-2.9916,-1.136,11.9674,1495,2825.12
25314,-2.7581,1.9992,9.4667,1561,2825.52
25319,1.4174,3.4919,10.1119,1495,2825.52
25324,0.9278,1.9345,11.4251,1507,2825.52
25329,-2.1296,-1.2917,12.1613,1497,2825.52
25334,-3.729,1.2965,9.9072,1498,2825.52
25339,0.8691,3.1687,9.8485,1519,2825.39
25344,2.2003,2.8539,11.0732,1499,2825.39
25349,-1.4952,-0.5638,12.2152,1496,2825.39
25354,-4.294,0.3962,10.5967,1495,2825.39
25359,0.0395,2.9604,9.5038,1548,2824.86
25364,2.3056,3.62,10.5249,1497,2824.86
25369,-1.7406,0.3879,12.1111,1491,2824.86
25374,-4.1408,-0.4824,11.388,1503,2824.86
25379,-1.3455,2.5953,9.3589,1560,2824.46
25384,2.1093,3.8056,10.4244,1499,2824.46
25389,-1.2127,1.1432,11.8309,1493,2824.46
25394,-3.0993,-1.1648,11.9578,1495,2824.46
25399,-3.043,2.0243,9.341,1533,2824.19
25404,1.7897,3.5219,10.2041,1497,2824.19
25409,1.0307,1.8771,11.4335,1508,2824.19
25414,-1.9812,-1.3683,12.2703,1496,2824.19
25419,-4.2533,1.2929,9.8294,1497,2824.19
25424,1.1265,3.1939,9.9491,1520,2824.99
25429,2.4936,2.818,10.963,1499,2824.99
25434,-1.5251,-0.6452,12.2487,1499,2824.99
25439,-4.616,0.5076,10.4914,1498,2824.99
25444,0.1676,2.9616,9.5756,1549,2824.73
25449,2.5331,3.5482,10.586,1496,2824.73
25454,-1.9321,0.3783,12.1362,1491,2824.73
25459,-3.802,-0.2813,11.4335,1508,2824.73
25464,-1.154,2.5654,9.2943,1562,2824.59
25469,1.8591,3.7266,10.3477,1501,2824.59
25474,-1.2462,1.0953,11.7998,1495,2824.59
25479,-3.0203,-1.1073,11.874,1495,2824.59
25484,-2.5989,2.0016,9.4044,1567,2824.46
25489,1.3599,3.4584,10.1801,1498,2824.46
25494,0.6967,1.8747,11.4862,1512,2824.46
25499,-2.1823,-1.2749,12.1482,1493,2824.46
25504,-3.6763,1.385,9.8521,1497,2824.46
25509,0.9074,3.1627,9.906,1525,2824.46
25514,2.1656,2.8036,10.993,1499,2824.46
25519,-1.6508,-0.6309,12.1973,1501,2824.46
25524,-3.9875,0.5578,10.5991,1496,2824.46
25529,0.1221,2.9269,9.584,1543,2824.73
25534,2.2003,3.5769,10.5572,1498,2824.73
25539,-1.7394,0.3244,12.038,1493,2824.73
25544,-3.802,-0.2897,11.3557,1509,2824.73
25549,-1.1109,2.6348,9.3518,1563,2825.39
25554,1.828,3.7649,10.2891,1501,2825.39
25559,-1.3024,1.0786,11.8333,1496,2825.39
25564,-3.1196,-1.0511,11.9231,1497,2825.39
25569,-2.5031,2.0842,9.4379,1565,2825.79
25574,1.4341,3.5446,10.1335,1496,2825.79
25579,0.6309,1.8244,11.5377,1509,2825.79
25584,-2.2398,-1.3036,12.1554,1493,2825.79
25589,-3.6296,1.3874,9.8485,1496,2825.79
25594,0.9732,3.1975,9.9252,1527,2826.06
25599,2.1213,2.7258,11.0816,1497,2826.06
25604,-1.7023,-0.7506,12.2152,1503,2826.06
25609,-4.0175,0.6859,10.5836,1495,2826.06
25614,0.2035,2.9532,9.566,1529,2826.32
25619,2.1967,3.5171,10.58,1500,2826.32
25624,-1.7705,0.2717,12.0883,1491,2826.32
25629,-3.8487,-0.1736,11.3377,1505,2826.32
25634,-0.9409,2.6252,9.3613,1557,2826.59
25639,1.9261,3.7972,10.3896,1498,2826.59
25644,-1.4425,1.0056,11.8609,1493,2826.59
25649,-3.1903,-1.0056,11.8776,1495,2826.59
25654,-2.4038,2.1201,9.3075,1531,2826.32
25659,1.5742,3.541,10.1921,1498,2826.32
25664,0.3998,1.7597,11.5831,1503,2826.32
25669,-2.3774,-1.3659,12.1841,1492,2826.32
25674,-3.553,1.4365,9.7995,1495,2826.32
25679,0.9433,3.1939,9.9563,1528,2826.72
25684,2.0231,2.636,11.1271,1499,2826.72
25689,-1.7131,-0.8284,12.1889,1497,2826.72
25694,-4.0797,0.7254,10.4423,1493,2826.72
25699,0.2981,2.9532,9.6534,1528,2826.72
25704,2.2913,3.462,10.6578,1499,2826.72
25709,-1.7358,0.2059,12.1398,1493,2826.72
25714,-3.8822,-0.0826,11.2575,1507,2826.72
25719,-0.8224,2.7019,9.3577,1563,2826.72
25724,1.9609,3.7685,10.3633,1497,2826.72
25729,-1.5347,0.9301,11.8992,1497,2826.72
25734,-3.2441,-0.9469,11.8776,1496,2826.72
25739,-2.2577,2.1488,9.3805,1527,2826.59
25744,1.47,3.5745,10.1418,1501,2826.59
25749,0.267,1.7035,11.6011,1499,2826.59
25754,-2.4576,-1.3467,12.1374,1493,2826.59
25759,-3.468,1.5586,9.7372,1495,2826.59
25764,1.0546,3.2741,9.9814,1527,2826.59
25769,1.992,2.5774,11.1259,1501,2826.59
25774,-1.7119,-0.8703,12.2116,1493,2826.59
25779,-4.0486,0.8116,10.4124,1495,2826.59
25784,0.395,3.0119,9.6295,1529,2826.72
25789,2.3523,3.3974,10.6698,1503,2826.72
25794,-1.7897,0.0551,12.0764,1493,2826.72
25799,-3.9085,-0.0742,11.1139,1497,2826.72
25804,-0.7649,2.6647,9.3218,1561,2826.06
25809,1.9728,3.7278,10.3477,1496,2826.06
25814,-1.658,0.9469,11.904,1497,2826.06
25819,-3.3052,-0.8511,11.7699,1498,2826.06
25824,-2.071,2.2314,9.4116,1559,2825.79
25829,1.5574,3.6272,10.1658,1501,2825.79
25834,-0.0443,1.6149,11.5915,1497,2825.79
25839,-2.4385,-1.3707,12.1266,1496,2825.79
25844,-3.2872,1.5814,9.6941,1499,2825.79
25849,1.1145,3.3208,10.0688,1545,2825.39
25854,1.8543,2.478,11.1857,1505,2825.39
25859,-1.7633,-1.002,12.1757,1495,2825.39
25864,-3.9349,0.8021,10.319,1495,2825.39
25869,0.4369,3.0131,9.6391,1531,2825.52
25874,2.2685,3.31,10.7176,1505,2825.52
25879,-1.7466,-0.0132,12.1877,1495,2825.52
25884,-3.9468,0.0934,11.0995,1495,2825.52
25889,-0.6105,2.7761,9.4595,1529,2825.39
25894,1.9597,3.7529,10.3418,1495,2825.39
25899,-1.6604,0.8882,11.9207,1500,2825.39
25904,-3.3686,-0.7925,11.7208,1499,2825.39
25909,-1.9908,2.3056,9.3829,1559,2825.66
25914,1.6077,3.5961,10.1861,1501,2825.66
25919,-0.146,1.5107,11.6107,1499,2825.66
25924,-2.5522,-1.3443,12.1003,1500,2825.66
25929,-3.2825,1.6005,9.663,1533,2825.66
25934,1.1217,3.2681,9.9766,1507,2825.66
25939,1.7262,2.4385,11.1977,1501,2825.66
25944,-1.8783,-0.9421,12.1877,1495,2825.66
25949,-3.9277,0.9002,10.343,1499,2825.66
25954,0.4597,3.0562,9.7169,1520,2825.92
25959,2.2589,3.3363,10.7248,1507,2825.92
25964,-1.7609,-0.0204,12.1649,1496,2825.92
25969,-3.8834,0.1077,11.06,1495,2825.92
25974,-0.5052,2.7617,9.4499,1547,2826.06
25979,2.0016,3.705,10.4064,1497,2826.06
25984,-1.6628,0.7961,11.9387,1501,2826.06
25989,-3.4453,-0.7817,11.7136,1495,2826.06
25994,-1.9549,2.2865,9.3194,1559,2825.92
25999,1.64,3.6835,10.319,1499,2825.92
26004,-0.2897,1.4401,11.6478,1495,2825.92
26009,-2.6133,-1.3384,12.0835,1503,2825.92
26014,-3.2094,1.7214,9.6235,1533,2825.66
26019,1.227,3.3555,10.0389,1501,2825.66
26024,1.6688,2.3523,11.1905,1507,2825.66
26029,-1.7729,-1.081,12.2332,1493,2825.66
26034,-4.0462,0.9493,10.24,1503,2825.66
26039,0.5614,3.043,9.7432,1533,2825.92
26044,2.3715,3.1939,10.7284,1509,2825.92
26049,-1.737,-0.164,12.1147,1498,2825.92
26054,-3.9744,0.1281,11.0181,1496,2825.92
26059,-0.4848,2.7785,9.4595,1527,2825.39
26064,1.9812,3.7194,10.4758,1495,2825.39
26069,-1.7645,0.7877,11.9961,1501,2825.39
26074,-3.5482,-0.6955,11.6598,1496,2825.39
26079,-1.8495,2.3691,9.3146,1559,2825.52
26084,1.7226,3.7146,10.2161,1501,2825.52
26089,-0.4573,1.4437,11.5975,1495,2825.52
26094,-2.6468,-1.2965,12.0823,1500,2825.52
26099,-3.1029,1.7286,9.6295,1567,2825.39
26104,1.2115,3.3076,10.0114,1497,2825.39
26109,1.5981,2.2865,11.2659,1507,2825.39
26114,-1.883,-1.1732,12.1949,1493,2825.39
26119,-3.9109,1.0104,10.1873,1501,2825.39
26124,0.6656,3.0634,9.7061,1527,2825.52
26129,2.32,3.2178,10.8206,1502,2825.52
26134,-1.7717,-0.2418,12.238,1497,2825.52
26139,-3.9816,0.2825,10.9942,1497,2825.52
26144,-0.2801,2.8659,9.4798,1529,2825.66
26149,2.0375,3.7673,10.4686,1496,2825.66
26154,-1.8052,0.7111,11.959,1501,2825.66
26159,-3.4776,-0.6381,11.5784,1497,2825.66
26164,-1.6975,2.3846,9.3242,1559,2825.92
26169,1.749,3.6811,10.2699,1495,2825.92
26174,-0.6081,1.3192,11.7041,1493,2825.92
26179,-2.7402,-1.2773,12.0357,1501,2825.92
26184,-3.0275,1.7538,9.5517,1565,2826.06
26189,1.2079,3.3243,10.0928,1497,2826.06
26194,1.4581,2.2841,11.3054,1503,2826.06
26199,-1.9644,-1.1432,12.2248,1494,2826.06
26204,-3.9456,1.1181,10.1215,1506,2826.06
26209,0.7099,3.1053,9.8366,1533,2826.32
26214,2.3786,3.1999,10.8469,1494,2826.32
26219,-1.7382,-0.2514,12.1494,1495,2826.32
26224,-3.9349,0.2682,10.8769,1495,2826.32
26229,-0.2741,2.8455,9.4056,1545,2826.46
26234,2.1021,3.6583,10.4279,1499,2826.46
26239,-1.7741,0.6536,12.0584,1499,2826.46
26244,-3.6476,-0.6416,11.6179,1494,2826.46
26249,-1.6197,2.4373,9.341,1561,2826.72
26254,1.7657,3.7002,10.2556,1497,2826.72
26259,-0.7985,1.3276,11.7292,1495,2826.72
26264,-2.8695,-1.2079,11.989,1503,2826.72
26269,-2.9149,1.9058,9.5624,1557,2826.46
26274,1.3611,3.4081,10.0904,1493,2826.46
26279,1.2965,2.1644,11.3904,1496,2826.46
26284,-1.9501,-1.2378,12.1961,1495,2826.46
26289,-3.8451,1.1121,10.0149,1507,2826.46
26294,0.7542,3.055,9.7707,1530,2826.46
26299,2.3284,3.0107,10.908,1496,2826.46
26304,-1.7107,-0.3938,12.1697,1471,2826.46
26309,-4.027,0.3771,10.835,1493,2826.46
26314,-0.1448,2.8778,9.5313,1533,2826.32
26319,2.0435,3.6679,10.4962,1501,2826.32
26324,-1.816,0.6381,12.0488,1496,2826.32
26329,-3.6787,-0.4298,11.5389,1497,2826.32
26334,-1.4329,2.5367,9.3087,1557,2826.59
26339,1.804,3.7625,10.2687,1500,2826.59
26344,-0.9373,1.2689,11.7268,1496,2826.59
26349,-2.8718,-1.245,11.9339,1508,2826.59
26354,-2.9149,1.8447,9.4439,1533,2826.59
26359,1.3803,3.3962,10.1382,1491,2826.59
26364,1.1851,2.0171,11.297,1499,2826.59
26369,-2.0566,-1.3324,12.1566,1495,2826.59
26374,-3.8535,1.1732,9.9766,1509,2826.59
26379,0.8152,3.1196,9.8904,1531,2826.72
26384,2.2302,3.0107,10.9044,1493,2826.72
26389,-1.6975,-0.3603,12.2152,1491,2826.72
26394,-4.0654,0.4693,10.7859,1495,2826.72
26399,-0.0012,2.9473,9.5852,1547,2826.99
26404,2.2027,3.6356,10.4507,1501,2826.99
26409,-1.8806,0.5411,12.0787,1493,2826.99
26414,-3.6571,-0.4489,11.3916,1495,2826.99
26419,-1.2785,2.5402,9.2847,1559,2827.12
26424,1.7633,3.6775,10.2975,1497,2827.12
26429,-1.0989,1.2031,11.8286,1497,2827.12
26434,-3.0287,-1.1995,11.9854,1505,2827.12
26439,-2.7581,1.9632,9.4547,1530,2826.99
26444,1.4042,3.4692,10.1287,1493,2826.99
26449,0.9026,1.9656,11.467,1495,2826.99
26454,-2.1919,-1.2941,12.2224,1495,2826.99
26459,-3.7781,1.3072,9.9395,1511,2826.99
26464,0.8871,3.1568,9.8892,1531,2828.32
26469,2.2733,2.8934,10.9547,1499,2828.32
26474,-1.7322,-0.5543,12.1242,1491,2828.32
26479,-3.9887,0.4848,10.6039,1499,2828.32
