timestamp_ms,ax,ay,az,acs_adc,rpm
12444,-1.998,-1.1097,13.696,1371,2998.95
12449,-6.2261,1.1265,9.8569,1379,2998.95
12454,1.0451,3.1987,8.3043,1369,2998.95
12459,3.8379,3.1184,11.5305,1371,2998.95
12464,-1.9704,-1.1516,13.6481,1372,2998.95
12469,-6.2608,1.1217,9.9024,1381,2998.95
12474,1.0235,3.2346,8.2983,1373,2998.2
12479,3.8199,3.0945,11.5173,1371,2998.2
12484,-2.0004,-1.1097,13.6338,1371,2998.2
12489,-6.2237,1.1145,9.8581,1375,2998.2
12494,1.0307,3.1939,8.2923,1371,2997.6
12499,3.7757,3.1651,11.5317,1371,2997.6
12504,-2.0135,-1.075,13.6661,1369,2997.6
12509,-6.2632,1.0726,9.9683,1379,2997.6
12514,0.9697,3.1915,8.3079,1371,2997.15
12519,3.7912,3.1544,11.5185,1371,2997.15
12524,-2.0087,-1.0642,13.6146,1367,2997.15
12529,-6.2441,1.0834,9.912,1379,2997.15
12534,0.9697,3.2094,8.2959,1371,2997.0
12539,3.8008,3.1999,11.5365,1369,2997.0
12544,-2.0255,-1.0355,13.7008,1371,2997.0
12549,-6.256,1.0989,9.9874,1379,2997.0
12554,0.9613,3.2238,8.3067,1370,2997.15
12559,3.8283,3.1891,11.4718,1371,2997.15
12564,-1.9692,-0.9744,13.6458,1372,2997.15
12569,-6.2345,1.0558,9.9886,1379,2997.15
12574,0.9517,3.2429,8.2696,1373,2997.6
12579,3.8128,3.1795,11.5401,1369,2997.6
12584,-1.9022,-1.0127,13.7319,1371,2997.6
12589,-6.2632,1.0319,10.0245,1373,2997.6
12594,0.9481,3.2166,8.2169,1373,2997.75
12599,3.875,3.1963,11.4395,1367,2997.75
12604,-1.8794,-1.0116,13.6422,1372,2997.75
12609,-6.2644,1.0307,9.979,1379,2997.75
12614,0.9685,3.1891,8.2983,1371,2997.6
12619,3.8762,3.1927,11.4036,1371,2997.6
12624,-1.8447,-1.0235,13.641,1372,2997.6
12629,-6.2285,1.0104,10.0018,1379,2997.6
12634,0.9828,3.2034,8.2217,1374,2997.45
12639,3.8882,3.1843,11.4215,1369,2997.45
12644,-1.8483,-0.99,13.6254,1374,2997.45
12649,-6.2429,0.9673,10.0652,1379,2997.45
12654,0.8978,3.2142,8.2361,1371,2997.3
12659,3.8247,3.2094,11.4874,1369,2997.3
12664,-1.883,-0.9697,13.5967,1372,2997.3
12669,-6.2716,0.9732,9.9778,1375,2997.3
12674,0.9361,3.1711,8.2157,1372,2997.0
12679,3.8259,3.207,11.4586,1369,2997.0
12684,-1.8771,-1.0259,13.6458,1371,2997.0
12689,-6.2752,0.9158,10.0533,1374,2997.0
12694,0.8823,3.1544,8.1678,1372,2997.15
12699,3.7733,3.2118,11.4168,1373,2997.15
12704,-1.8878,-0.9565,13.5907,1379,2997.15
12709,-6.2896,0.9685,10.0257,1375,2997.15
12714,0.8487,3.1508,8.1965,1371,2996.85
12719,3.796,3.2417,11.4395,1369,2996.85
12724,-1.8902,-0.9577,13.6841,1373,2996.85
12729,-6.2872,0.972,10.0676,1371,2996.85
12734,0.8344,3.201,8.2349,1371,2996.85
12739,3.7936,3.2884,11.4479,1371,2996.85
12744,-1.8675,-0.9349,13.6865,1372,2996.85
12749,-6.2501,0.9254,10.0999,1372,2996.85
12754,0.8344,3.1735,8.2121,1373,2997.45
12759,3.8068,3.2621,11.4024,1369,2997.45
12764,-1.8196,-0.9038,13.6577,1373,2997.45
12769,-6.256,0.9038,10.1251,1371,2997.45
12774,0.8392,3.1927,8.1846,1371,2998.2
12779,3.8894,3.2932,11.3808,1369,2998.2
12784,-1.7502,-0.9002,13.6505,1371,2998.2
12789,-6.2944,0.9457,10.094,1372,2998.2
12794,0.8487,3.1292,8.2121,1373,2998.2
12799,3.869,3.2693,11.412,1368,2998.2
12804,-1.7322,-0.9194,13.72,1373,2998.2
12809,-6.2776,0.893,10.0808,1371,2998.2
12814,0.8248,3.1556,8.1726,1371,2998.05
12819,3.8858,3.2286,11.3318,1369,2998.05
12824,-1.6999,-0.9194,13.6697,1372,2998.05
12829,-6.2848,0.8428,10.1083,1371,2998.05
12834,0.8523,3.1639,8.1606,1370,2997.45
12839,3.8942,3.2717,11.3294,1371,2997.45
12844,-1.6939,-0.8859,13.6194,1375,2997.45
12849,-6.2788,0.8978,10.0556,1370,2997.45
12854,0.8128,3.1173,8.1942,1373,2996.4
12859,3.8259,3.2801,11.3737,1371,2996.4
12864,-1.6376,-0.8763,13.6302,1370,2996.4
12869,-6.2549,0.8475,10.2029,1369,2996.4
12874,0.7614,3.128,8.1475,1372,2996.4
12879,3.7996,3.2681,11.3318,1371,2996.4
12884,-1.6975,-0.8894,13.6266,1373,2996.4
12889,-6.2884,0.8272,10.1191,1369,2996.4
12894,0.7853,3.146,8.2097,1373,2996.25
12899,3.7996,3.3136,11.3342,1371,2996.25
12904,-1.6688,-0.8978,13.6661,1371,2996.25
12909,-6.2824,0.8248,10.2017,1371,2996.25
12914,0.7171,3.1352,8.1726,1373,2995.96
12919,3.7433,3.3136,11.2731,1369,2995.96
12924,-1.6831,-0.8021,13.5967,1370,2995.96
12929,-6.3027,0.8236,10.2304,1367,2995.96
12934,0.6883,3.1472,8.2588,1371,2995.66
12939,3.7397,3.3758,11.3473,1371,2995.66
12944,-1.634,-0.7985,13.6733,1368,2995.66
12949,-6.2848,0.7973,10.2364,1374,2995.66
12954,0.644,3.1472,8.1714,1371,2995.66
12959,3.7385,3.3806,11.2324,1370,2995.66
12964,-1.5538,-0.7925,13.5823,1369,2995.66
12969,-6.213,0.7853,10.3082,1371,2995.66
12974,0.68,3.1735,8.2109,1373,2995.66
12979,3.7601,3.3794,11.303,1370,2995.66
12984,-1.4641,-0.747,13.6086,1369,2995.66
12989,-6.3099,0.7159,10.2663,1371,2995.66
12994,0.6488,3.1819,8.175,1371,2995.96
12999,3.8211,3.3806,11.1989,1373,2995.96
13004,-1.4712,-0.7063,13.556,1370,2995.96
13009,-6.2644,0.7003,10.3022,1369,2995.96
13014,0.5986,3.1568,8.2384,1372,2995.81
13019,3.8044,3.3986,11.1785,1373,2995.81
13024,-1.33,-0.7362,13.5943,1369,2995.81
13029,-6.2142,0.6393,10.3154,1373,2995.81
13034,0.571,3.0837,8.1977,1371,2995.81
13039,3.7852,3.3531,11.1103,1371,2995.81
13044,-1.3228,-0.7422,13.4877,1369,2995.81
13049,-6.3183,0.6045,10.3489,1373,2995.81
13054,0.5638,3.1101,8.2325,1371,2996.25
13059,3.7577,3.3722,11.1737,1373,2996.25
13064,-1.312,-0.7434,13.5201,1365,2996.25
13069,-6.3339,0.5878,10.3729,1373,2996.25
13074,0.4836,3.0921,8.193,1371,2996.7
13079,3.7409,3.3615,11.0684,1373,2996.7
13084,-1.3096,-0.7159,13.4937,1367,2996.7
13089,-6.3363,0.583,10.3741,1373,2996.7
13094,0.4669,3.0885,8.2073,1369,2996.55
13099,3.7218,3.4117,11.078,1373,2996.55
13104,-1.3599,-0.6943,13.5236,1365,2996.55
13109,-6.3674,0.577,10.4387,1374,2996.55
13114,0.4489,3.1029,8.2025,1372,2996.4
13119,3.6715,3.401,11.0935,1375,2996.4
13124,-1.3348,-0.6752,13.6074,1365,2996.4
13129,-6.3578,0.5842,10.5046,1371,2996.4
13134,0.4357,3.0765,8.1882,1370,2996.1
13139,3.711,3.4884,11.06,1373,2996.1
13144,-1.3084,-0.6716,13.5356,1367,2996.1
13149,-6.3027,0.5674,10.489,1373,2996.1
13154,0.401,3.1017,8.2109,1371,2996.1
13159,3.7278,3.4764,11.0947,1373,2996.1
13164,-1.2833,-0.6261,13.556,1369,2996.1
13169,-6.3159,0.5507,10.5321,1377,2996.1
13174,0.3903,3.1101,8.1906,1369,2996.25
13179,3.7529,3.4931,11.0205,1381,2996.25
13184,-1.2007,-0.6201,13.5524,1365,2996.25
13189,-6.3087,0.5351,10.5979,1378,2996.25
13194,0.3783,3.0909,8.2049,1372,2996.4
13199,3.8056,3.4728,10.9966,1379,2996.4
13204,-1.1588,-0.6213,13.5835,1368,2996.4
13209,-6.2824,0.5052,10.5572,1371,2996.4
13214,0.3735,3.0574,8.1235,1371,2996.7
13219,3.7876,3.4788,10.9834,1380,2996.7
13224,-1.0822,-0.5962,13.5632,1371,2996.7
13229,-6.2716,0.4645,10.5943,1373,2996.7
13234,0.3112,3.0718,8.1439,1372,2996.85
13239,3.7769,3.468,10.9487,1375,2996.85
13244,-1.069,-0.5614,13.5225,1370,2996.85
13249,-6.2836,0.4501,10.5776,1371,2996.85
13254,0.3172,3.0562,8.1175,1374,2996.55
13259,3.7481,3.468,10.9463,1373,2996.55
13264,-1.0546,-0.5303,13.5272,1371,2996.55
13269,-6.3027,0.395,10.5884,1371,2996.55
13274,0.2634,3.0742,8.1008,1374,2996.4
13279,3.7134,3.4919,10.9882,1378,2996.4
13284,-1.0439,-0.5926,13.4973,1371,2996.4
13289,-6.3099,0.3735,10.6291,1375,2996.4
13294,0.2286,3.0502,8.1139,1379,2996.25
13299,3.632,3.5123,10.9391,1375,2996.25
13304,-1.093,-0.5255,13.5488,1367,2996.25
13309,-6.3243,0.3783,10.6734,1371,2996.25
13314,0.17,3.0191,8.1834,1379,2996.25
13319,3.6512,3.4979,10.9008,1375,2996.25
13324,-1.0642,-0.5614,13.5153,1371,2996.25
13329,-6.3171,0.3843,10.726,1372,2996.25
13334,0.1628,3.0454,8.1762,1381,2996.4
13339,3.6296,3.5566,10.9571,1375,2996.4
13344,-1.0594,-0.4669,13.5488,1372,2996.4
13349,-6.3171,0.3675,10.7188,1373,2996.4
13354,0.1341,3.0299,8.1044,1385,2996.55
13359,3.6847,3.5865,10.8493,1375,2996.55
13364,-1.0355,-0.4585,13.5236,1371,2996.55
13369,-6.2764,0.3519,10.7224,1373,2996.55
13374,0.1185,3.0706,8.1128,1383,2997.0
13379,3.6811,3.553,10.9008,1372,2997.0
13384,-0.9708,-0.4334,13.4794,1357,2997.0
13389,-6.286,0.3651,10.7392,1371,2997.0
13394,0.1089,3.0514,8.1008,1381,2996.85
13399,3.7182,3.5183,10.8613,1369,2996.85
13404,-0.9062,-0.4561,13.5332,1369,2996.85
13409,-6.268,0.3424,10.7404,1369,2996.85
13414,0.103,3.0143,8.0553,1381,2997.3
13419,3.7074,3.559,10.8685,1373,2997.3
13424,-0.8452,-0.4429,13.4817,1371,2997.3
13429,-6.2369,0.2837,10.7811,1368,2997.3
13434,0.1089,2.988,8.0661,1381,2997.15
13439,3.6727,3.5267,10.8457,1373,2997.15
13444,-0.8416,-0.4681,13.465,1371,2997.15
13449,-6.2549,0.2358,10.7643,1371,2997.15
13454,0.079,2.9904,8.0565,1381,2997.15
13459,3.6955,3.5279,10.8828,1371,2997.15
13464,-0.844,-0.4621,13.447,1372,2997.15
13469,-6.2956,0.2239,10.7967,1372,2997.15
13474,0.0467,2.9975,8.0732,1364,2996.85
13479,3.6272,3.5458,10.8625,1372,2996.85
13484,-0.8416,-0.4202,13.5045,1370,2996.85
13489,-6.2572,0.2023,10.8122,1371,2996.85
13494,0.0204,2.9868,8.0589,1382,2996.7
13499,3.6057,3.5602,10.7739,1371,2996.7
13504,-0.844,-0.425,13.4949,1367,2996.7
13509,-6.2704,0.2083,10.8565,1373,2996.7
13514,-0.0096,3.0059,8.169,1381,2996.85
13519,3.5865,3.5291,10.835,1373,2996.85
13524,-0.8894,-0.3974,13.5344,1369,2996.85
13529,-6.3063,0.2263,10.8673,1373,2996.85
13534,-0.0096,2.9748,8.0792,1381,2996.7
13539,3.5913,3.5805,10.8074,1369,2996.7
13544,-0.9014,-0.3711,13.4782,1371,2996.7
13549,-6.2956,0.2047,10.9032,1370,2996.7
13554,-0.0192,2.9688,8.0457,1381,2996.55
13559,3.5949,3.6164,10.8062,1372,2996.55
13564,-0.8739,-0.3196,13.4997,1371,2996.55
13569,-6.2393,0.164,10.8769,1371,2996.55
13574,-0.103,2.9904,7.999,1381,2996.4
13579,3.6129,3.6152,10.7978,1369,2996.4
13584,-0.7817,-0.3328,13.4841,1371,2996.4
13589,-6.1938,0.1484,10.8984,1372,2996.4
13594,-0.1161,2.9616,8.0517,1379,2996.55
13599,3.6368,3.644,10.7715,1369,2996.55
13604,-0.7925,-0.3328,13.4422,1367,2996.55
13609,-6.2297,0.1101,10.9331,1372,2996.55
13614,-0.1341,2.9784,8.0433,1381,2996.55
13619,3.6212,3.6344,10.7595,1373,2996.55
13624,-0.6764,-0.3172,13.5225,1367,2996.55
13629,-6.183,0.0658,10.914,1371,2996.55
13634,-0.1496,2.9113,8.0086,1383,2995.96
13639,3.5853,3.5973,10.7188,1372,2995.96
13644,-0.6393,-0.3017,13.4087,1369,2995.96
13649,-6.1543,0.0084,10.8852,1371,2995.96
13654,-0.176,2.9293,7.9296,1374,2995.81
13659,3.5757,3.6571,10.7536,1370,2995.81
13664,-0.6393,-0.2538,13.4638,1369,2995.81
13669,-6.1711,-0.0096,10.9355,1372,2995.81
13674,-0.2191,2.9161,7.9823,1379,2995.96
13679,3.5243,3.644,10.6889,1373,2995.96
13684,-0.595,-0.2442,13.4554,1367,2995.96
13689,-6.1651,-0.0072,10.9774,1373,2995.96
13694,-0.3364,2.9317,8.017,1379,2996.4
13699,3.5279,3.6835,10.7583,1371,2996.4
13704,-0.571,-0.2514,13.4554,1365,2996.4
13709,-6.1998,0.0012,10.9966,1371,2996.4
13714,-0.3484,2.9365,8.0122,1379,2996.55
13719,3.4728,3.632,10.6757,1371,2996.55
13724,-0.6512,-0.2849,13.4159,1369,2996.55
13729,-6.1986,-0.0383,11.0421,1375,2996.55
13734,-0.3567,2.964,8.0302,1379,2996.55
13739,2.8874,3.9349,10.1299,1373,2996.55
13744,-0.5638,-0.182,13.4063,1367,2996.55
13749,-5.4612,-1.0439,12.0548,1371,2996.55
13754,-0.3915,2.8934,7.9547,1381,2996.85
13759,2.8778,3.9277,10.1011,1373,2996.85
13764,0.735,0.6225,13.0568,1369,2996.85
13769,-5.4265,-1.0511,12.0548,1373,2996.85
13774,-2.1632,2.6085,7.9464,1373,2997.0
13779,2.9341,3.9421,10.0856,1374,2997.0
13784,0.7542,0.6524,13.0424,1365,2997.0
13789,-5.369,-1.1061,12.044,1373,2997.0
13794,-2.2218,2.6013,7.9212,1372,2996.85
13799,2.9305,3.8942,10.143,1373,2996.85
13804,0.832,0.6464,13.0508,1369,2996.85
13809,-5.4073,-1.1181,12.1051,1375,2996.85
13814,-2.2087,2.575,7.9392,1372,2996.1
13819,2.885,3.9217,10.058,1373,2996.1
13824,0.8452,0.6452,12.967,1365,2996.1
13829,-5.3989,-1.1528,12.0871,1375,2996.1
13834,-2.2565,2.6037,7.9248,1375,2997.9
13839,2.8491,3.8774,10.1275,1373,2997.9
13844,0.82,0.6656,13.0173,1352,2997.9
13849,-5.3726,-1.1732,12.0416,1380,2997.9
13854,-2.2877,2.5714,7.8482,1373,2997.3
13859,2.8323,3.8918,10.058,1378,2997.3
13864,0.8894,0.6548,13.0269,1371,2997.3
13869,-5.4253,-1.1732,12.1099,1373,2997.3
13874,-2.2793,2.5678,7.9428,1374,2997.45
13879,2.7916,3.9157,10.1287,1375,2997.45
13884,0.8404,0.6883,13.0879,1371,2997.45
13889,-5.3846,-1.2127,12.1051,1375,2997.45
13894,-2.3355,2.5558,7.8542,1379,2997.45
13899,2.8347,3.9205,10.0401,1373,2997.45
13904,0.8894,0.7063,13.0568,1367,2997.45
13909,-5.4037,-1.1815,12.1147,1379,2997.45
13914,-2.3176,2.5762,7.9679,1381,2997.3
13919,2.8323,3.9421,10.1071,1379,2997.3
13924,0.8727,0.7087,12.9742,1368,2997.3
13929,-5.3905,-1.2007,12.1338,1381,2997.3
13934,-2.3822,2.5558,7.8757,1373,2996.7
13939,2.8443,3.9456,10.0545,1379,2996.7
13944,0.8847,0.7733,13.0185,1371,2996.7
13949,-5.3079,-1.2055,12.1446,1383,2996.7
13954,-2.381,2.5498,7.9057,1381,2997.75
13959,2.8287,3.9337,10.088,1382,2997.75
13964,0.8966,0.7219,12.9371,1371,2997.75
13969,-5.3331,-1.1708,12.2032,1385,2997.75
13974,-2.4205,2.5642,7.9392,1383,2997.3
13979,2.873,3.954,10.0568,1383,2997.3
13984,0.972,0.735,12.9945,1385,2997.3
13989,-5.2517,-1.2222,12.2032,1384,2997.3
13994,-2.4169,2.5606,7.9787,1381,2997.3
13999,2.8443,3.8942,10.009,1383,2997.3
14004,0.9852,0.7422,12.9179,1371,2997.3
14009,-5.2565,-1.2175,12.1087,1385,2997.3
14014,-2.4696,2.4972,7.9535,1383,2997.45
14019,2.8168,3.8918,10.0784,1379,2997.45
14024,1.008,0.7769,12.9598,1375,2997.45
14029,-5.2613,-1.2534,12.1386,1383,2997.45
14034,-2.4912,2.5462,7.9057,1379,2997.3
14039,2.8048,3.9205,10.0233,1379,2997.3
14044,1.0379,0.741,12.9275,1375,2997.3
14049,-5.2397,-1.2917,12.1805,1385,2997.3
14054,-2.5127,2.49,7.9332,1381,2997.75
14059,2.7701,3.893,10.0437,1381,2997.75
14064,1.063,0.7626,12.9562,1374,2997.75
14069,-5.2457,-1.2989,12.2116,1386,2997.75
14074,-2.5414,2.563,7.914,1379,2997.6
14079,2.7641,3.9133,10.0197,1383,2997.6
14084,1.1001,0.7578,12.9383,1375,2997.6
14089,-5.2289,-1.3168,12.2344,1386,2997.6
14094,-2.5678,2.5175,7.9679,1383,2997.3
14099,2.7354,3.9073,10.0269,1383,2997.3
14104,1.0487,0.7805,12.9754,1375,2997.3
14109,-5.2517,-1.3252,12.2116,1385,2997.3
14114,-2.6312,2.5091,7.9069,1383,2997.15
14119,2.7869,3.9289,9.9778,1380,2997.15
14124,1.0511,0.8619,12.973,1378,2997.15
14129,-5.2517,-1.3048,12.2978,1388,2997.15
14134,-2.6528,2.5654,7.9787,1385,2997.0
14139,2.7545,3.9337,9.9527,1386,2997.0
14144,1.0199,0.844,12.9024,1378,2997.0
14149,-5.2265,-1.3324,12.2703,1385,2997.0
14154,-2.6635,2.5055,7.9296,1387,2996.7
14159,2.721,3.9349,9.9587,1374,2996.7
14164,1.075,0.8332,12.9347,1379,2996.7
14169,-5.2445,-1.3001,12.3158,1383,2996.7
14174,-2.7186,2.5379,7.9523,1383,2997.3
14179,2.788,3.9612,9.9491,1383,2997.3
14184,1.0894,0.8428,12.9,1379,2997.3
14189,-5.1499,-1.3024,12.3517,1379,2997.3
14194,-2.6899,2.5235,7.9799,1387,2996.25
14199,2.7689,3.9708,9.9539,1379,2996.25
14204,1.1612,0.8811,12.9502,1373,2996.25
14209,-5.1212,-1.3096,12.299,1382,2996.25
14214,-2.7234,2.466,7.9823,1385,2995.96
14219,2.7629,3.9229,9.9683,1383,2995.96
14224,1.2007,0.9026,12.864,1379,2995.96
14229,-5.1176,-1.3515,12.3254,1384,2995.96
14234,-2.7617,2.5163,8.0158,1387,2995.21
14239,2.6755,3.899,9.9838,1381,2995.21
14244,1.2246,0.8835,12.8617,1381,2995.21
14249,-5.0745,-1.391,12.2439,1383,2995.21
14254,-2.8347,2.5007,7.944,1389,2994.76
14259,2.6624,3.8954,9.9144,1380,2994.76
14264,1.2689,0.9481,12.8856,1383,2994.76
14269,-5.0135,-1.4485,12.3649,1381,2994.76
14274,-2.891,2.4828,8.0194,1385,2994.16
14279,2.6193,3.869,9.918,1383,2994.16
14284,1.2665,0.9122,12.785,1381,2994.16
14289,-5.0398,-1.4593,12.3194,1381,2994.16
14294,-3.0311,2.4756,7.9452,1386,2994.31
14299,2.6085,3.9229,9.9048,1375,2994.31
14304,1.3312,0.9768,12.8054,1383,2994.31
14309,-4.9524,-1.4497,12.4427,1375,2994.31
14314,-3.0514,2.4576,8.0098,1381,2994.16
14319,2.5498,3.9037,9.9072,1380,2994.16
14324,1.3982,1.0068,12.7994,1383,2994.16
14329,-4.9596,-1.4976,12.4127,1375,2994.16
14334,-3.1208,2.4505,8.0469,1387,2994.31
14339,2.5438,3.9014,9.8677,1381,2994.31
14344,1.3886,1.0582,12.7934,1383,2994.31
14349,-4.9153,-1.4856,12.4786,1374,2994.31
14354,-3.1903,2.4612,8.0469,1387,2994.61
14359,2.5235,3.9421,9.8725,1381,2994.61
14364,1.4545,1.0582,12.7467,1380,2994.61
14369,-4.8806,-1.4736,12.4929,1375,2994.61
14374,-3.3016,2.4588,8.0804,1385,2994.76
14379,2.5402,3.9241,9.9048,1381,2994.76
14384,1.5467,1.1085,12.7324,1380,2994.76
14389,-4.7992,-1.4557,12.5229,1375,2994.76
14394,-3.304,2.4445,8.0936,1385,2994.91
14399,2.575,3.8846,9.8318,1381,2994.91
14404,1.6305,1.1325,12.7252,1380,2994.91
14409,-4.7932,-1.5251,12.542,1379,2994.91
14414,-3.371,2.3978,8.1475,1387,2995.06
14419,2.5127,3.8882,9.8258,1381,2995.06
14424,1.6747,1.1444,12.6953,1380,2995.06
14429,-4.7525,-1.5562,12.5636,1379,2995.06
14434,-3.3962,2.4134,8.1343,1387,2995.51
14439,2.5199,3.9025,9.8031,1381,2995.51
14444,1.7119,1.1384,12.7168,1380,2995.51
14449,-4.7597,-1.567,12.5624,1375,2995.51
14454,-3.4369,2.3846,8.1044,1387,2996.1
14459,2.46,3.8702,9.7707,1383,2996.1
14464,1.7178,1.1325,12.7288,1383,2996.1
14469,-4.7657,-1.5706,12.5468,1375,2996.1
14474,-3.4441,2.3475,8.0661,1387,2996.4
14479,2.4421,3.8858,9.8007,1384,2996.4
14484,1.7358,1.136,12.7144,1381,2996.4
14489,-4.7669,-1.6053,12.6725,1375,2996.4
14494,-3.5578,2.3894,8.1379,1397,2996.55
14499,2.3894,3.8654,9.7624,1379,2996.55
14504,1.7597,1.1971,12.7611,1381,2996.55
14509,-4.7716,-1.5909,12.6282,1373,2996.55
14514,-3.5638,2.3882,8.1439,1388,2996.85
14519,2.4062,3.8978,9.7061,1385,2996.85
14524,1.7322,1.1995,12.7336,1383,2996.85
14529,-4.7645,-1.6053,12.7048,1375,2996.85
14534,-3.5901,2.4397,8.1702,1385,2997.45
14539,2.3954,3.875,9.7384,1382,2997.45
14544,1.8004,1.2498,12.6976,1383,2997.45
14549,-4.774,-1.573,12.6558,1375,2997.45
14554,-3.65,2.4002,8.1463,1381,2997.75
14559,2.4313,3.9564,9.7767,1383,2997.75
14564,1.8088,1.2677,12.6653,1379,2997.75
14569,-4.7166,-1.5538,12.6402,1379,2997.75
14574,-3.6224,2.3798,8.1511,1385,2998.05
14579,2.4253,3.9181,9.7169,1382,2998.05
14584,1.8519,1.239,12.736,1381,2998.05
14589,-4.6914,-1.5574,12.6749,1375,2998.05
14594,-3.6619,2.4002,8.1834,1386,2998.2
14599,2.4517,3.899,9.7456,1383,2998.2
14604,1.8663,1.2725,12.6498,1380,2998.2
14609,-4.6747,-1.6029,12.6677,1379,2998.2
14614,-3.644,2.3762,8.1439,1387,2998.35
14619,2.46,3.869,9.6833,1387,2998.35
14624,1.9154,1.2534,12.645,1383,2998.35
14629,-4.6639,-1.6508,12.6988,1379,2998.35
14634,-3.6787,2.3762,8.1762,1388,2998.35
14639,2.4277,3.8583,9.7109,1387,2998.35
14644,2.0004,1.2438,12.6438,1381,2998.35
14649,-4.6388,-1.646,12.7012,1380,2998.35
14654,-3.644,2.3427,8.1594,1385,2998.35
14659,2.4253,3.808,9.6702,1387,2998.35
14664,1.9429,1.2462,12.6809,1379,2998.35
14669,-4.6388,-1.646,12.6474,1381,2998.35
14674,-3.6966,2.387,8.1822,1389,2998.05
14679,2.3978,3.8666,9.7432,1385,2998.05
14684,1.9381,1.2701,12.6426,1380,2998.05
14689,-4.6412,-1.6712,12.7072,1379,2998.05
14694,-3.6895,2.3595,8.1139,1389,2998.2
14699,2.3798,3.8583,9.6965,1387,2998.2
14704,1.8998,1.2761,12.6809,1381,2998.2
14709,-4.6914,-1.658,12.7204,1381,2998.2
14714,-3.7206,2.3786,8.1714,1395,2998.5
14719,2.3523,3.8403,9.6738,1388,2998.5
14724,1.9405,1.2773,12.615,1379,2998.5
14729,-4.6843,-1.6436,12.6869,1375,2998.5
14734,-3.7469,2.3583,8.1834,1387,2998.5
14739,2.3116,3.8427,9.73,1389,2998.5
14744,1.8914,1.2977,12.6976,1380,2998.5
14749,-4.7202,-1.6352,12.7467,1379,2998.5
14754,-3.7565,2.3739,8.1439,1389,2998.5
14759,2.3906,3.9133,9.651,1385,2998.5
14764,1.8854,1.3084,12.6785,1381,2998.5
14769,-4.61,-1.6269,12.7563,1379,2998.5
14774,-3.7984,2.3499,8.2133,1389,2998.65
14779,2.375,3.8894,9.7205,1386,2998.65
14784,1.9357,1.2917,12.7,1379,2998.65
14789,-4.6495,-1.5742,12.7719,1374,2998.65
14794,-3.7385,2.3739,8.1558,1389,2998.65
14799,2.4553,3.8834,9.6319,1387,2998.65
14804,1.9824,1.3467,12.6522,1379,2998.65
14809,-4.6471,-1.6376,12.7527,1379,2998.65
14814,-3.7721,2.3739,8.2169,1385,2997.6
14819,2.4313,3.869,9.6462,1386,2997.6
14824,1.9716,1.3108,12.6701,1379,2997.6
14829,-4.561,-1.6113,12.7324,1379,2997.6
14834,-3.7828,2.3212,8.2384,1388,2997.15
14839,2.3978,3.8283,9.6582,1383,2997.15
14844,2.0063,1.2965,12.6629,1381,2997.15
14849,-4.5837,-1.6508,12.7419,1371,2997.15
14854,-3.7769,2.3308,8.1989,1389,2997.0
14859,2.4074,3.8295,9.6678,1387,2997.0
14864,2.0171,1.2821,12.6139,1381,2997.0
14869,-4.5897,-1.6951,12.7611,1379,2997.0
14874,-3.8283,2.314,8.2265,1385,2997.0
14879,2.4086,3.869,9.6247,1382,2997.0
14884,2.0279,1.342,12.6091,1378,2997.0
14889,-4.5801,-1.6712,12.7515,1379,2997.0
14894,-3.8283,2.314,8.2097,1391,2997.15
14899,2.3008,3.8379,9.6654,1389,2997.15
14904,2.0243,1.3635,12.5947,1379,2997.15
14909,-4.5741,-1.6723,12.736,1379,2997.15
14914,-3.899,2.3343,8.2145,1391,2997.45
14919,2.32,3.8211,9.681,1389,2997.45
14924,2.0135,1.3324,12.6366,1380,2997.45
14929,-4.5502,-1.6819,12.7898,1381,2997.45
14934,-3.9253,2.314,8.2516,1389,2997.45
14939,2.2745,3.8439,9.6522,1391,2997.45
14944,2.0458,1.4126,12.5851,1380,2997.45
14949,-4.5514,-1.5969,12.8162,1381,2997.45
14954,-3.9648,2.3774,8.2588,1389,2997.3
14959,2.2996,3.8774,9.6798,1387,2997.3
14964,2.077,1.3862,12.5875,1378,2997.3
14969,-4.5047,-1.6771,12.7372,1379,2997.3
14974,-3.9696,2.3535,8.2265,1397,2997.3
14979,2.2829,3.8523,9.5864,1387,2997.3
14984,2.1512,1.3922,12.5313,1381,2997.3
14989,-4.5322,-1.6568,12.7707,1383,2997.3
14994,-4.033,2.3331,8.2839,1391,2997.15
14999,2.3559,3.8894,9.6331,1385,2997.15
15004,2.2242,1.4281,12.5612,1375,2997.15
15009,-4.4448,-1.6759,12.821,1379,2997.15
15014,-3.9971,2.3655,8.2289,1396,2997.15
15019,2.3607,3.8942,9.6067,1387,2997.15
15024,2.1931,1.4533,12.6162,1381,2997.15
15029,-4.4341,-1.658,12.8712,1381,2997.15
15034,-4.0175,2.3116,8.2768,1391,2997.3
15039,2.332,3.8654,9.5481,1387,2997.3
15044,2.2637,1.4293,12.5528,1381,2997.3
15049,-4.4317,-1.7142,12.8281,1379,2997.3
15054,-4.027,2.2924,8.2672,1391,2997.45
15059,2.3631,3.8403,9.651,1386,2997.45
15064,2.2398,1.4461,12.5492,1379,2997.45
15069,-4.3981,-1.6939,12.8162,1379,2997.45
15074,-4.063,2.3164,8.3151,1395,2997.9
15079,2.2901,3.8463,9.5612,1387,2997.9
15084,2.2051,1.4174,12.5025,1379,2997.9
15089,-4.4077,-1.731,12.8341,1381,2997.9
15094,-4.0905,2.3008,8.2708,1391,2998.05
15099,2.2553,3.7852,9.5589,1385,2998.05
15104,2.2553,1.4617,12.572,1378,2998.05
15109,-4.476,-1.7226,12.8784,1379,2998.05
15114,-4.1324,2.2901,8.3055,1389,2998.5
15119,2.2362,3.8116,9.5409,1387,2998.5
15124,2.2039,1.4521,12.5779,1381,2998.5
15129,-4.4544,-1.7119,12.8473,1380,2998.5
15134,-4.0989,2.3343,8.2313,1389,2999.1
15139,2.2158,3.808,9.6187,1387,2999.1
15144,2.2362,1.4868,12.5779,1375,2999.1
15149,-4.4951,-1.6891,12.8964,1379,2999.1
15154,-4.1408,2.3463,8.3007,1391,3000.0
15159,2.2733,3.8259,9.6007,1388,3000.0
15164,2.2134,1.4904,12.5971,1379,3000.0
15169,-4.4784,-1.6831,12.9071,1381,3000.0
15174,-4.1719,2.3559,8.3534,1388,3000.3
15179,2.2338,3.8439,9.5756,1387,3000.3
15184,2.2338,1.4736,12.6055,1374,3000.3
15189,-4.464,-1.6843,12.8413,1383,3000.3
15194,-4.0833,2.3571,8.272,1389,3000.3
15199,2.3415,3.881,9.5421,1387,3000.3
15204,2.3008,1.482,12.6055,1374,3000.3
15209,-4.4341,-1.7131,12.8952,1379,3000.3
15214,-4.0414,2.3056,8.2803,1391,2999.4
15219,2.32,3.8511,9.5253,1387,2999.4
15224,2.2697,1.4473,12.5851,1381,2999.4
15229,-4.397,-1.7202,12.8365,1380,2999.4
15234,-4.0929,2.2769,8.2528,1387,2999.1
15239,2.3164,3.8618,9.6007,1385,2999.1
15244,2.3008,1.4437,12.6007,1379,2999.1
15249,-4.3634,-1.6999,12.8293,1379,2999.1
15254,-4.0785,2.302,8.2612,1391,2998.65
15259,2.3487,3.8283,9.5385,1384,2998.65
15264,2.2865,1.4329,12.5229,1373,2998.65
15269,-4.4101,-1.7107,12.8617,1381,2998.65
15274,-4.0666,2.3008,8.2827,1391,2998.8
15279,2.3164,3.8786,9.6091,1387,2998.8
15284,2.2362,1.4712,12.5815,1380,2998.8
15289,-4.3838,-1.7119,12.8377,1379,2998.8
15294,-4.1096,2.2697,8.2995,1391,2998.5
15299,2.2494,3.8116,9.584,1384,2998.5
15304,2.2314,1.4078,12.5875,1379,2998.5
15309,-4.4496,-1.7238,12.8676,1381,2998.5
15314,-4.1132,2.308,8.3079,1391,2998.5
15319,2.2661,3.802,9.5612,1385,2998.5
15324,2.2422,1.4724,12.5444,1371,2998.5
15329,-4.4688,-1.7131,12.8317,1379,2998.5
15334,-4.1061,2.2817,8.2899,1389,2998.2
15339,2.2206,3.7816,9.5481,1387,2998.2
15344,2.223,1.4868,12.5205,1379,2998.2
15349,-4.4724,-1.6831,12.8808,1383,2998.2
15354,-4.1755,2.3164,8.2696,1391,2998.35
15359,2.223,3.8439,9.596,1387,2998.35
15364,2.2434,1.4772,12.5157,1381,2998.35
15369,-4.446,-1.7142,12.8617,1379,2998.35
15374,-4.1934,2.2972,8.3234,1395,2998.35
15379,2.2649,3.8092,9.59,1386,2998.35
15384,2.2565,1.4736,12.5336,1379,2998.35
15389,-4.3766,-1.6712,12.9167,1381,2998.35
15394,-4.1575,2.296,8.3091,1395,2998.35
15399,2.2601,3.8654,9.517,1385,2998.35
15404,2.2769,1.5036,12.548,1379,2998.35
15409,-4.3993,-1.6867,12.8593,1375,2998.35
15414,-4.1695,2.3343,8.351,1391,2998.2
15419,2.247,3.8487,9.4918,1383,2998.2
15424,2.3583,1.4293,12.5911,1373,2998.2
15429,-4.3862,-1.7059,12.8868,1381,2998.2
15434,-4.1444,2.2901,8.3402,1391,2998.35
15439,2.2936,3.893,9.5565,1384,2998.35
15444,2.3511,1.4521,12.5767,1381,2998.35
15449,-4.3227,-1.6999,12.8868,1383,2998.35
15454,-4.1683,2.3032,8.3127,1389,2998.35
15459,2.302,3.8355,9.5636,1385,2998.35
15464,2.3451,1.4892,12.5241,1381,2998.35
15469,-4.3251,-1.7131,12.8844,1378,2998.35
15474,-4.1911,2.3044,8.3091,1395,2998.2
15479,2.3068,3.8283,9.5026,1383,2998.2
15484,2.3511,1.4653,12.5013,1375,2998.2
15489,-4.3359,-1.7226,12.8988,1381,2998.2
15494,-4.1922,2.2757,8.3881,1391,2997.9
15499,2.2972,3.8188,9.6139,1383,2997.9
15504,2.3523,1.4904,12.5253,1379,2997.9
15509,-4.3395,-1.7334,12.87,1381,2997.9
15514,-4.1958,2.2613,8.3067,1390,2997.6
15519,2.2338,3.8283,9.5265,1384,2997.6
15524,2.3523,1.5383,12.5564,1380,2997.6
15529,-4.3527,-1.743,12.9095,1380,2997.6
15534,-4.2713,2.2781,8.3606,1387,2997.3
15539,2.1763,3.7828,9.5493,1381,2997.3
15544,2.3092,1.5467,12.5085,1382,2997.3
15549,-4.3048,-1.7119,12.9,1380,2997.3
15554,-4.2521,2.3044,8.3067,1387,2997.3
15559,2.1679,3.802,9.5074,1381,2997.3
15564,2.3499,1.5742,12.4989,1379,2997.3
15569,-4.312,-1.7154,12.8976,1378,2997.3
15574,-4.3167,2.2314,8.3462,1386,2997.15
15579,2.1488,3.8331,9.5684,1383,2997.15
15584,2.3667,1.5802,12.4582,1378,2997.15
15589,-4.2737,-1.7298,12.9119,1383,2997.15
15594,-4.3407,2.2841,8.3869,1385,2997.3
15599,2.1392,3.8176,9.4978,1391,2997.3
15604,2.4672,1.5802,12.5085,1373,2997.3
15609,-4.2521,-1.7418,12.955,1381,2997.3
15614,-4.3658,2.2482,8.3797,1390,2997.3
15619,2.229,3.7816,9.4834,1383,2997.3
15624,2.5127,1.6017,12.5013,1383,2997.3
15629,-4.2246,-1.7226,12.9407,1381,2997.3
15634,-4.3814,2.2996,8.3869,1389,2997.15
15639,2.1991,3.7936,9.5301,1384,2997.15
15644,2.4529,1.5826,12.4786,1381,2997.15
15649,-4.1839,-1.7202,12.9359,1381,2997.15
15654,-4.3826,2.2314,8.3977,1375,2997.15
15659,2.2218,3.8295,9.4583,1385,2997.15
15664,2.5438,1.5897,12.4403,1380,2997.15
15669,-4.1958,-1.7047,12.9718,1382,2997.15
15674,-4.4161,2.2685,8.4575,1385,2997.3
15679,2.217,3.8199,9.4727,1385,2997.3
15684,2.4792,1.5921,12.4858,1375,2997.3
15689,-4.1791,-1.7418,12.9371,1381,2997.3
15694,-4.4377,2.2015,8.424,1382,2996.7
15699,2.1416,3.7852,9.4727,1383,2996.7
15704,2.5031,1.6197,12.4606,1381,2996.7
15709,-4.1599,-1.749,12.985,1379,2996.7
15714,-4.4544,2.2063,8.4707,1385,2996.7
15719,2.1476,3.784,9.4236,1385,2996.7
15724,2.5079,1.6508,12.4367,1375,2996.7
15729,-4.1911,-1.7741,12.9622,1382,2996.7
15734,-4.4819,2.2398,8.4264,1387,2996.4
15739,2.1464,3.7852,9.4739,1389,2996.4
15744,2.5199,1.6376,12.4235,1379,2996.4
15749,-4.1372,-1.7131,13.0017,1383,2996.4
15754,-4.5059,2.2087,8.503,1391,2996.55
15759,2.0865,3.7649,9.4475,1385,2996.55
15764,2.5175,1.6664,12.378,1380,2996.55
15769,-4.118,-1.7214,13.0053,1385,2996.55
15774,-4.5382,2.1691,8.5018,1391,2996.85
15779,2.0985,3.7625,9.4487,1387,2996.85
15784,2.5654,1.6963,12.4451,1379,2996.85
15789,-4.1168,-1.7131,12.9802,1387,2996.85
15794,-4.5669,2.1919,8.5078,1382,2996.25
15799,2.1165,3.7769,9.3805,1386,2996.25
15804,2.6312,1.7214,12.396,1379,2996.25
15809,-4.0318,-1.7597,13.0029,1387,2996.25
15814,-4.5909,2.2098,8.5006,1391,2996.25
15819,2.0602,3.7505,9.3793,1387,2996.25
15824,2.6683,1.6867,12.3972,1381,2996.25
15829,-4.0354,-1.7669,13.0352,1387,2996.25
15834,-4.6543,2.2242,8.4515,1391,2996.25
15839,2.1177,3.7972,9.4367,1385,2996.25
15844,2.7031,1.7023,12.3996,1383,2996.25
15849,-3.9468,-1.7334,13.058,1390,2996.25
15854,-4.6687,2.2098,8.5234,1391,2996.4
15859,2.0662,3.7936,9.4355,1383,2996.4
15864,2.7605,1.7669,12.3804,1381,2996.4
15869,-3.966,-1.7585,13.034,1390,2996.4
15874,-4.7477,2.1847,8.5545,1383,2996.1
15879,2.083,3.796,9.3829,1383,2996.1
15884,2.7545,1.8148,12.3732,1379,2996.1
15889,-3.9349,-1.7119,13.0903,1389,2996.1
15894,-4.7716,2.1488,8.5222,1384,2996.7
15899,2.0506,3.7553,9.3613,1385,2996.7
15904,2.7485,1.81,12.4283,1381,2996.7
15909,-3.9373,-1.7166,13.0699,1387,2996.7
15914,-4.7848,2.1021,8.5545,1389,2996.4
15919,2.0458,3.723,9.3146,1385,2996.4
15924,2.7892,1.8471,12.3804,1385,2996.4
15929,-3.9265,-1.7597,13.1514,1389,2996.4
15934,-4.8507,2.1177,8.5784,1390,2996.25
15939,2.0207,3.6763,9.3326,1385,2996.25
15944,2.7833,1.8483,12.3445,1381,2996.25
15949,-3.8786,-1.7418,13.113,1387,2996.25
15954,-4.8578,2.1213,8.5736,1383,2996.1
15959,1.9776,3.705,9.2727,1383,2996.1
15964,2.8108,1.9345,12.3768,1381,2996.1
15969,-3.8571,-1.7202,13.1849,1387,2996.1
15974,-4.8387,2.083,8.6095,1384,2996.1
15979,1.9728,3.6715,9.317,1381,2996.1
15984,2.8706,1.9022,12.3313,1373,2996.1
15989,-3.8774,-1.731,13.1106,1388,2996.1
15994,-4.8662,2.1153,8.6167,1388,2996.1
15999,1.9764,3.7122,9.2907,1384,2996.1
16004,2.8515,1.9932,12.4091,1383,2996.1
16009,-3.8223,-1.6915,13.1394,1396,2996.1
16014,-4.8985,2.1081,8.6227,1391,2995.96
16019,1.9656,3.6547,9.1794,1382,2995.96
16024,2.8814,1.986,12.3852,1379,2995.96
16029,-3.8176,-1.6987,13.21,1391,2995.96
16034,-4.9596,2.0734,8.576,1384,2995.81
16039,1.9896,3.6739,9.153,1381,2995.81
16044,2.9353,1.9896,12.4223,1375,2995.81
16049,-3.784,-1.6735,13.1645,1386,2995.81
16054,-4.9452,2.0889,8.5629,1383,2995.81
16059,1.986,3.6966,9.177,1385,2995.81
16064,2.9317,1.9824,12.4032,1381,2995.81
16069,-3.6751,-1.7346,13.2447,1385,2995.81
16074,-4.9979,2.0016,8.6431,1385,2995.36
16079,1.9908,3.6966,9.0728,1380,2995.36
16084,2.9544,2.0387,12.4439,1383,2995.36
16089,-3.6799,-1.7119,13.2316,1387,2995.36
16094,-5.0685,2.0363,8.6323,1389,2996.1
16099,1.9944,3.6488,9.104,1381,2996.1
16104,3.0071,2.0638,12.4163,1383,2996.1
16109,-3.6775,-1.7178,13.2292,1385,2996.1
16114,-5.0494,2.0039,8.6754,1391,2995.51
16119,1.9477,3.5889,9.0776,1383,2995.51
16124,3.0083,2.1141,12.4044,1383,2995.51
16129,-3.6583,-1.7035,13.2723,1385,2995.51
16134,-5.0853,2.0207,8.6814,1391,2995.51
16139,1.9309,3.6164,9.0944,1381,2995.51
16144,3.0023,2.1488,12.3972,1385,2995.51
16149,-3.632,-1.7274,13.2244,1385,2995.51
16154,-5.1308,1.9489,8.6215,1387,2995.36
16159,1.8806,3.5853,9.0609,1379,2995.36
16164,2.9856,2.162,12.4618,1385,2995.36
16169,-3.5937,-1.6903,13.21,1384,2995.36
16174,-5.1679,1.9609,8.7221,1391,2994.91
16179,1.8555,3.5985,9.0824,1381,2994.91
16184,3.0227,2.1871,12.3565,1387,2994.91
16189,-3.6009,-1.658,13.2878,1384,2994.91
16194,-5.2158,1.9453,8.7233,1387,2993.71
16199,1.8639,3.5877,9.0597,1379,2993.71
16204,3.0837,2.2098,12.3158,1388,2993.71
16209,-3.5434,-1.6209,13.3118,1381,2993.71
16214,-5.2206,1.9345,8.8202,1389,2994.91
16219,1.834,3.5638,9.0597,1379,2994.91
16224,3.1364,2.2613,12.3086,1388,2994.91
16229,-3.4716,-1.6508,13.277,1383,2994.91
16234,-5.2852,1.9393,8.7843,1395,2994.01
16239,1.8112,3.5841,8.9447,1379,2994.01
16244,3.1352,2.2529,12.3146,1386,2994.01
16249,-3.4285,-1.5742,13.2938,1373,2994.01
16254,-5.3379,1.9225,8.849,1385,2993.56
16259,1.8172,3.5901,9.0046,1375,2993.56
16264,3.1999,2.2769,12.3158,1387,2993.56
16269,-3.3351,-1.6137,13.3082,1372,2993.56
16274,-5.351,1.8926,8.8214,1384,2994.01
16279,1.8244,3.6117,8.9423,1379,2994.01
16284,3.2298,2.3355,12.2811,1388,2994.01
16289,-3.2537,-1.6245,13.3764,1373,2994.01
16294,-5.4253,1.8651,8.8645,1385,2993.86
16299,1.8268,3.5566,8.9256,1380,2993.86
16304,3.2932,2.326,12.2128,1387,2993.86
16309,-3.2801,-1.6376,13.3357,1367,2993.86
16314,-5.4767,1.8591,8.8765,1383,2993.71
16319,1.7214,3.535,8.9292,1375,2993.71
16324,3.2956,2.3918,12.2571,1388,2993.71
16329,-3.2226,-1.6328,13.3501,1373,2993.71
16334,-5.4875,1.7873,8.9878,1381,2993.71
16339,1.7645,3.4919,8.8585,1381,2993.71
16344,3.3399,2.4062,12.1949,1385,2993.71
16349,-3.2334,-1.6233,13.4039,1373,2993.71
16354,-5.5294,1.7789,9.0118,1383,2993.41
16359,1.6939,3.5111,8.8538,1381,2993.41
16364,3.3758,2.4684,12.1925,1385,2993.41
16369,-3.1328,-1.585,13.3908,1378,2993.41
16374,-5.5773,1.7059,9.074,1383,2993.41
16379,1.6041,3.4752,8.7903,1379,2993.86
16384,3.3722,2.4505,12.1218,1384,2993.86
16389,-3.1196,-1.573,13.4758,1379,2993.86
16394,-5.6348,1.743,9.0944,1380,2993.86
16399,1.6221,3.4728,8.8466,1383,2993.86
16404,3.4213,2.5343,12.1254,1383,2993.86
16409,-3.0909,-1.5467,13.4291,1381,2993.86
16414,-5.6587,1.7262,9.098,1375,2993.86
16419,1.6029,3.4848,8.7616,1383,2994.16
16424,3.4393,2.5379,12.0919,1379,2994.16
16429,-2.9892,-1.5012,13.4794,1381,2994.16
16434,-5.6719,1.7095,9.1961,1379,2994.16
16439,1.5455,3.4919,8.7915,1385,2994.61
16444,3.4716,2.5558,12.0919,1383,2994.61
16449,-2.9556,-1.4425,13.4363,1379,2994.61
16454,-5.7305,1.6448,9.1758,1383,2994.61
16459,1.5909,3.4943,8.764,1385,2994.91
16464,3.5434,2.5893,12.0752,1382,2994.91
16469,-2.8958,-1.4629,13.4889,1378,2994.91
16474,-5.7916,1.664,9.2009,1381,2994.91
16479,1.579,3.4824,8.7089,1389,2995.21
16484,3.5901,2.6061,12.0141,1380,2995.21
16489,-2.8563,-1.421,13.447,1379,2995.21
16494,-5.7904,1.6185,9.2404,1381,2995.21
16499,1.5921,3.4441,8.7412,1385,2994.91
16504,3.5841,2.6372,12.0261,1375,2994.91
16509,-2.8311,-1.4389,13.4794,1375,2994.91
16514,-5.8203,1.5945,9.2308,1381,2994.91
16519,1.5897,3.4536,8.6802,1383,2995.06
16524,3.5925,2.6504,11.9435,1379,2995.06
16529,-2.8216,-1.4509,13.5069,1379,2995.06
16534,-5.8634,1.5754,9.256,1382,2995.06
16539,1.5179,3.4225,8.734,1383,2994.91
16544,3.5961,2.6384,11.9399,1379,2994.91
16549,-2.8048,-1.47,13.5488,1379,2994.91
16554,-5.8969,1.5299,9.3087,1384,2994.91
16559,1.5227,3.3938,8.6323,1383,2995.66
16564,3.6392,2.6635,11.9447,1383,2995.66
16569,-2.7713,-1.4257,13.5476,1374,2995.66
16574,-5.9101,1.5275,9.3757,1383,2995.66
16579,1.4832,3.4165,8.6072,1383,2995.66
16584,3.5829,2.7066,11.8776,1383,2995.66
16589,-2.7426,-1.4341,13.5213,1379,2995.66
16594,-5.9077,1.5443,9.3865,1385,2995.66
16599,1.4222,3.4046,8.5952,1381,2996.25
16604,3.638,2.7916,11.9602,1383,2996.25
16609,-2.7749,-1.3707,13.5871,1373,2996.25
16614,-5.9424,1.5347,9.3972,1398,2996.25
16619,1.4533,3.3782,8.576,1383,2996.4
16624,3.644,2.7629,11.8513,1383,2996.4
16629,-2.6755,-1.3527,13.5703,1379,2996.4
16634,-5.9065,1.5095,9.3781,1387,2996.4
16639,1.4174,3.4369,8.576,1381,2996.55
16644,3.6907,2.7928,11.9004,1383,2996.55
16649,-2.6552,-1.2653,13.5823,1375,2996.55
16654,-5.9711,1.5335,9.4439,1391,2996.55
16659,1.4629,3.4081,8.5377,1379,2997.0
16664,3.6978,2.7737,11.8525,1385,2997.0
16669,-2.6288,-1.312,13.5655,1373,2997.0
16674,-5.928,1.4808,9.426,1395,2997.0
16679,1.397,3.401,8.5988,1379,2997.45
16684,3.7278,2.7701,11.9207,1383,2997.45
16689,-2.6073,-1.2749,13.5356,1371,2997.45
16694,-5.9604,1.4892,9.3661,1391,2997.45
16699,1.476,3.3818,8.5473,1379,2997.6
16704,3.7553,2.8204,11.8214,1383,2997.6
16709,-2.6228,-1.3276,13.6027,1379,2997.6
16714,-5.9592,1.4736,9.4439,1395,2997.6
16719,1.4545,3.3782,8.4994,1379,2997.9
16724,3.7769,2.7869,11.8393,1384,2997.9
16729,-2.6288,-1.3539,13.5727,1375,2997.9
16734,-5.9939,1.4198,9.3972,1391,2997.9
16739,1.4066,3.3746,8.521,1380,2997.9
16744,3.7218,2.7928,11.8441,1381,2997.9
16749,-2.569,-1.3515,13.6074,1375,2997.9
16754,-5.9843,1.4485,9.4583,1391,2997.9
16759,1.4042,3.3495,8.5413,1381,2997.75
16764,3.7218,2.8,11.8585,1383,2997.75
16769,-2.5786,-1.336,13.5823,1374,2997.75
16774,-6.013,1.4186,9.4822,1391,2997.75
16779,1.3862,3.3818,8.5365,1381,2997.75
16784,3.6895,2.8216,11.8453,1383,2997.75
16789,-2.5821,-1.3443,13.6386,1374,2997.75
16794,-5.9927,1.4329,9.5014,1391,2997.75
16799,1.3036,3.3531,8.5485,1384,2997.15
16804,3.6859,2.8659,11.8034,1379,2997.15
16809,-2.63,-1.3252,13.623,1373,2997.15
16814,-6.0394,1.4437,9.505,1395,2997.15
16819,1.3408,3.3351,8.4886,1379,2996.55
16824,3.6811,2.8635,11.8142,1382,2996.55
16829,-2.5714,-1.2785,13.5931,1373,2996.55
16834,-6.0154,1.4317,9.5313,1395,2996.55
16839,1.3372,3.3998,8.5281,1379,2996.4
16844,3.7278,2.8623,11.7879,1390,2996.4
16849,-2.4995,-1.2163,13.5799,1373,2996.4
16854,-6.0478,1.4126,9.5684,1387,2996.4
16859,1.342,3.3627,8.5844,1381,2996.1
16864,3.7146,2.903,11.813,1383,2996.1
16869,-2.4612,-1.2462,13.6254,1379,2996.1
16874,-6.0238,1.3731,9.5469,1389,2996.1
16879,1.3012,3.3243,8.4312,1379,2996.25
16884,3.7685,2.8754,11.7579,1378,2996.25
16889,-2.3942,-1.2007,13.6517,1375,2996.25
16894,-6.0418,1.3659,9.5924,1391,2996.25
16899,1.3084,3.3232,8.4839,1379,2996.1
16904,3.8199,2.9305,11.7316,1379,2996.1
16909,-2.4014,-1.2318,13.611,1378,2996.1
16914,-6.0801,1.3192,9.5876,1392,2996.1
16919,1.3072,3.3423,8.4168,1383,2996.1
16924,3.8044,2.9054,11.6909,1383,2996.1
16929,-2.2948,-1.1875,13.641,1375,2996.1
16934,-6.0202,1.3096,9.6642,1387,2996.1
16939,1.2833,3.3531,8.4719,1379,2995.96
16944,3.7721,2.9353,11.7029,1381,2995.96
16949,-2.3523,-1.227,13.5548,1379,2995.96
16954,-6.0621,1.2665,9.6163,1387,2995.96
16959,1.239,3.3279,8.3402,1379,2996.25
16964,3.7589,2.9556,11.6885,1381,2996.25
16969,-2.308,-1.2043,13.6577,1375,2996.25
16974,-6.1028,1.2833,9.6558,1387,2996.25
16979,1.2474,3.2932,8.4192,1381,2996.4
16984,3.6943,2.964,11.7256,1379,2996.4
16989,-2.2901,-1.1923,13.6134,1373,2996.4
16994,-6.1196,1.2582,9.6881,1387,2996.4
16999,1.1337,3.322,8.4467,1379,2996.4
17004,3.7469,2.9868,11.5843,1381,2996.4
17009,-2.2757,-1.1995,13.6877,1379,2996.4
17014,-6.1507,1.251,9.7348,1388,2996.4
17019,1.1983,3.3232,8.43,1380,2996.7
17024,3.7864,3.0634,11.6945,1379,2996.7
17029,-2.3044,-1.1468,13.7319,1375,2996.7
17034,-6.1327,1.3012,9.7133,1389,2996.7
17039,1.1672,3.2813,8.424,1381,2996.7
17044,3.7661,2.9916,11.6227,1375,2996.7
17049,-2.2206,-1.1241,13.6745,1379,2996.7
17054,-6.1196,1.239,9.7815,1385,2996.7
17059,1.1277,3.3232,8.4827,1379,2997.15
17064,3.8188,2.9652,11.5401,1379,2997.15
17069,-2.1787,-1.1349,13.5979,1375,2997.15
17074,-6.1806,1.2115,9.7432,1386,2997.15
17079,1.2115,3.3028,8.4084,1380,2997.3
17084,3.8116,3.0167,11.6777,1379,2997.3
17089,-2.2362,-1.0894,13.6098,1381,2997.3
17094,-6.1447,1.1756,9.7061,1389,2997.3
17099,1.172,3.3076,8.339,1384,2997.15
17104,3.8283,3.0562,11.5652,1375,2997.15
17109,-2.1356,-1.063,13.6888,1379,2997.15
17114,-6.1567,1.1313,9.7959,1387,2997.15
17119,1.1325,3.2453,8.3378,1383,2997.6
17124,3.8523,3.0394,11.5796,1381,2997.6
17129,-2.144,-1.0798,13.623,1377,2997.6
17134,-6.1902,1.1744,9.7827,1381,2997.6
17139,1.1696,3.2813,8.3929,1383,2997.75
17144,3.8188,3.0059,11.5676,1379,2997.75
17149,-2.1656,-1.1145,13.6853,1385,2997.75
17154,-6.189,1.1133,9.8126,1387,2997.75
17159,1.1085,3.2621,8.2983,1381,2997.75
17164,3.8439,3.0251,11.5879,1381,2997.75
17169,-2.1703,-1.0953,13.629,1381,2997.75
17174,-6.2201,1.1229,9.7959,1386,2997.75
17179,1.0942,3.2597,8.3534,1380,2997.75
17184,3.8223,3.049,11.6035,1379,2997.75
17189,-2.1452,-1.0774,13.6733,1383,2997.75
17194,-6.213,1.1205,9.8366,1387,2997.75
17199,1.0798,3.2561,8.3091,1383,2997.75
17204,3.784,3.0754,11.5137,1373,2997.75
17209,-2.2027,-1.0965,13.6637,1381,2997.75
17214,-6.2213,1.1708,9.8545,1388,2997.75
17219,1.0594,3.286,8.3701,1378,2997.9
17224,3.784,3.1089,11.5784,1379,2997.9
17229,-2.1428,-1.081,13.6841,1383,2997.9
17234,-6.1926,1.1504,9.8521,1384,2997.9
17239,1.0534,3.2765,8.3043,1381,2997.75
17244,3.8331,3.061,11.5293,1379,2997.75
17249,-2.1225,-1.0271,13.7248,1383,2997.75
17254,-6.189,1.1863,9.9527,1385,2997.75
17259,1.0283,3.2406,8.3713,1383,2998.05
17264,3.8607,3.0981,11.5891,1375,2998.05
17269,-2.0985,-1.0092,13.6769,1380,2998.05
17274,-6.213,1.1157,9.8545,1389,2998.05
17279,1.0762,3.2705,8.2923,1383,2998.35
17284,3.8571,3.1101,11.5341,1377,2998.35
17289,-2.0865,-0.9996,13.726,1383,2998.35
17294,-6.1555,1.1516,9.9108,1386,2998.35
17299,1.0786,3.2298,8.2361,1383,2998.8
17304,3.8846,3.1125,11.4395,1378,2998.8
17309,-2.0243,-1.0104,13.6565,1374,2998.8
17314,-6.1962,1.0523,9.8976,1385,2998.8
17319,1.0439,3.2286,8.2983,1383,2998.65
17324,3.8595,3.1125,11.4982,1379,2998.65
17329,-2.0782,-1.0008,13.7104,1386,2998.65
17334,-6.1926,1.069,9.8821,1382,2998.65
17339,1.1085,3.2417,8.2624,1381,2998.8
17344,3.8714,3.0945,11.5053,1379,2998.8
17349,-2.0494,-1.0762,13.6565,1383,2998.8
17354,-6.1818,1.0463,9.9084,1384,2998.8
17359,1.0199,3.2394,8.2588,1381,2998.65
17364,3.8295,3.0706,11.5341,1379,2998.65
17369,-2.065,-0.9924,13.6841,1385,2998.65
17374,-6.2417,1.0834,9.9036,1383,2998.65
17379,1.0534,3.2549,8.2588,1383,2998.5
17384,3.7948,3.0993,11.485,1381,2998.5
17389,-2.0865,-1.0259,13.6553,1381,2998.5
17394,-6.2417,1.0798,9.9192,1383,2998.5
17399,1.0367,3.225,8.2863,1383,2998.65
17404,3.8152,3.0969,11.5209,1379,2998.65
17409,-2.0782,-1.0534,13.629,1381,2998.65
17414,-6.2513,1.1193,9.8605,1383,2998.65
17419,0.99,3.304,8.2851,1383,2998.8
17424,3.8068,3.1208,11.5448,1380,2998.8
17429,-2.083,-1.002,13.6721,1381,2998.8
17434,-6.2345,1.0822,9.9168,1381,2998.8
17439,1.0439,3.2549,8.266,1379,2998.5
17444,3.7912,3.0993,11.4814,1382,2998.5
17449,-2.0614,-1.0127,13.6422,1382,2998.5
17454,-6.2405,1.0834,9.9,1375,2998.5
17459,1.0367,3.2717,8.248,1381,2998.35
17464,3.8451,3.1711,11.5149,1381,2998.35
17469,-2.0063,-1.0044,13.7068,1380,2998.35
17474,-6.2393,1.0786,9.9228,1379,2998.35
17479,1.0259,3.2226,8.26,1383,2998.05
17484,3.8583,3.1089,11.4838,1380,2998.05
17489,-2.0351,-0.9948,13.6673,1379,2998.05
17494,-6.2058,1.0331,9.9216,1380,2998.05
17499,1.0247,3.2298,8.2504,1383,2998.2
17504,3.8678,3.1687,11.4862,1385,2998.2
17509,-1.9812,-0.9445,13.7367,1383,2998.2
17514,-6.1758,1.0319,9.9695,1381,2998.2
17519,1.0199,3.2082,8.2361,1383,2998.2
17524,3.9169,3.1687,11.485,1383,2998.2
17529,-1.9836,-0.9768,13.69,1384,2998.2
17534,-6.2309,0.9948,9.9623,1381,2998.2
17539,1.0259,3.2154,8.2289,1379,2998.2
17544,3.8487,3.1615,11.4598,1381,2998.2
17549,-1.9692,-0.9589,13.5979,1381,2998.2
17554,-6.2106,1.0199,9.9407,1375,2998.2
17559,0.9804,3.1951,8.2432,1381,2998.35
17564,3.8954,3.1089,11.4814,1381,2998.35
17569,-1.9764,-1.0199,13.6733,1373,2998.35
17574,-6.2177,1.0104,9.9838,1379,2998.35
17579,0.9852,3.2274,8.2863,1382,2998.35
17584,3.8283,3.1472,11.4311,1379,2998.35
17589,-1.9848,-0.9804,13.6948,1381,2998.35
17594,-6.2285,1.0151,9.9467,1381,2998.35
17599,0.9708,3.1927,8.2337,1380,2998.35
17604,3.7769,3.0742,11.4395,1379,2998.35
17609,-1.998,-0.9409,13.7068,1383,2998.35
17614,-6.2034,1.0367,9.9635,1381,2998.35
17619,0.905,3.213,8.2492,1379,2998.5
17624,3.8451,3.1699,11.4586,1380,2998.5
17629,-1.974,-1.0127,13.6589,1379,2998.5
17634,-6.2309,1.0187,9.9,1375,2998.5
17639,0.9301,3.1939,8.254,1383,2998.65
17644,3.8487,3.1675,11.4742,1381,2998.65
17649,-1.9896,-0.9744,13.6888,1381,2998.65
17654,-6.2225,1.0642,10.0293,1374,2998.65
17659,0.9469,3.2633,8.2528,1373,2998.65
17664,3.7924,3.1819,11.4922,1383,2998.65
17669,-1.9573,-0.9433,13.6601,1383,2998.65
17674,-6.2357,0.9912,9.9742,1381,2998.65
17679,0.9673,3.1843,8.2073,1382,2999.1
17684,3.8714,3.1783,11.4467,1381,2999.1
17689,-1.9489,-0.9637,13.7188,1381,2999.1
17694,-6.2465,1.0187,9.9994,1379,2999.1
17699,0.9972,3.2573,8.26,1383,2998.95
17704,3.8918,3.1639,11.4084,1383,2998.95
17709,-1.9297,-0.9541,13.6948,1381,2998.95
17714,-6.2417,0.972,9.9898,1379,2998.95
17719,1.0056,3.2358,8.2791,1381,2998.95
17724,3.8666,3.1867,11.4407,1375,2998.95
17729,-1.9393,-0.9182,13.7487,1379,2998.95
17734,-6.2513,0.99,9.979,1381,2998.95
17739,0.9984,3.2022,8.187,1381,2998.95
17744,3.8798,3.1675,11.4383,1383,2998.95
17749,-1.9537,-0.9146,13.6661,1380,2998.95
17754,-6.2106,1.0127,10.0149,1377,2998.95
17759,1.0032,3.2621,8.2612,1383,2999.1
17764,3.8271,3.1424,11.3808,1381,2999.1
17769,-1.8842,-0.9313,13.6182,1382,2999.1
17774,-6.2465,1.008,9.9922,1378,2999.1
17779,0.9553,3.2465,8.2624,1381,2999.4
17784,3.8762,3.1759,11.4371,1383,2999.4
17789,-1.9405,-0.9792,13.6805,1380,2999.4
17794,-6.2537,1.0044,10.0066,1379,2999.4
17799,0.9756,3.2154,8.193,1379,3000.15
17804,3.8702,3.1173,11.4132,1379,3000.15
17809,-1.9944,-0.9816,13.6601,1382,3000.15
17814,-6.2668,0.9984,9.9599,1379,3000.15
17819,0.9541,3.219,8.2037,1380,3000.3
17824,3.8439,3.1065,11.4203,1381,3000.3
17829,-2.0087,-1.0068,13.702,1380,3000.3
17834,-6.2956,1.0283,9.9886,1382,3000.3
17839,0.9505,3.2142,8.2241,1383,3000.3
17844,3.8954,3.128,11.467,1380,3000.3
17849,-1.998,-1.0116,13.7104,1381,3000.3
17854,-6.256,1.0451,10.0197,1375,3000.3
17859,0.9768,3.2441,8.2289,1381,3000.3
17864,3.8678,3.1556,11.4359,1381,3000.3
17869,-1.9968,-0.9697,13.7272,1380,3000.3
17874,-6.256,1.0163,9.9898,1378,3000.3
17879,1.0211,3.201,8.2373,1389,3000.15
17884,3.8247,3.1448,11.4515,1383,3000.15
17889,-2.0135,-0.9804,13.7188,1379,3000.15
17894,-6.2417,1.0666,9.9611,1373,3000.15
17899,1.0139,3.2286,8.2576,1370,2999.85
17904,3.6571,3.7194,10.7428,1375,2999.85
17909,-0.7207,-0.1592,13.629,1377,2999.85
17914,-6.0908,-0.091,11.0217,1377,2999.85
17919,-0.2765,2.8742,7.8003,1381,2999.7
17924,3.5913,3.7002,10.6805,1381,2999.7
17929,-0.7482,-0.1161,13.6158,1381,2999.7
17934,-6.1208,-0.1149,10.9966,1381,2999.7
17939,-0.2466,2.8778,7.7907,1380,2999.4
17944,3.5781,3.6811,10.7308,1380,2999.4
17949,-0.7171,-0.1401,13.641,1381,2999.4
17954,-6.0968,-0.0958,10.9942,1381,2999.4
17959,-0.2358,2.8455,7.7632,1379,2999.7
17964,3.5817,3.6296,10.6662,1383,2999.7
17969,-0.7051,-0.1161,13.6613,1379,2999.7
17974,-6.1124,-0.0958,11.0026,1379,2999.7
17979,-0.2969,2.8659,7.7931,1381,2999.55
17984,3.5769,3.6978,10.7488,1379,2999.55
17989,-0.7709,-0.1245,13.6027,1382,2999.55
17994,-6.1734,-0.079,10.981,1378,2999.55
17999,-0.2897,2.8575,7.8362,1379,2999.7
18004,3.5793,3.6428,10.7392,1379,2999.7
18009,-0.7458,-0.1604,13.6242,1383,2999.7
18014,-6.1746,-0.0347,11.0121,1380,2999.7
18019,-0.2969,2.8671,7.8039,1383,2999.55
18024,3.5207,3.7134,10.7009,1379,2999.55
18029,-0.7829,-0.1568,13.6194,1374,2999.55
18034,-6.1579,-0.0503,11.0133,1372,2999.55
18039,-0.2693,2.8455,7.853,1372,3000.0
18044,3.5446,3.6583,10.7715,1378,3000.0
18049,-0.7195,-0.1257,13.6709,1373,3000.0
18054,-6.2118,-0.0263,11.0061,1374,3000.0
18059,-0.249,2.9161,7.8302,1379,3000.15
18064,3.5889,3.7218,10.7248,1371,3000.15
18069,-0.7793,-0.1544,13.6541,1373,3000.15
18074,-6.1579,-0.0048,11.0445,1375,3000.15
18079,-0.2562,2.8838,7.8362,1373,3000.45
18084,3.6021,3.6571,10.7775,1371,3000.45
18089,-0.7757,-0.1341,13.6649,1371,3000.45
18094,-6.1411,-0.0204,10.9966,1366,3000.45
18099,-0.2251,2.9688,7.7931,1368,3000.6
18104,3.638,3.6823,10.7045,1368,3000.6
18109,-0.7638,-0.1532,13.702,1373,3000.6
18114,-6.1866,0.0144,10.9798,1366,3000.6
18119,-0.176,2.8946,7.8398,1369,3000.45
18124,3.6715,3.6344,10.7164,1367,3000.45
18129,-0.7446,-0.1676,13.5943,1371,3000.45
18134,-6.1351,0.0204,11.0026,1367,3000.45
18139,-0.1856,2.9209,7.8302,1371,2999.85
18144,3.626,3.6978,10.7296,1369,2999.85
18149,-0.759,-0.1125,13.6469,1367,2999.85
18154,-6.1543,-0.0215,11.0181,1368,2999.85
18159,-0.1688,2.8874,7.8147,1370,2999.25
18164,3.6296,3.6524,10.7643,1369,2999.25
18169,-0.7673,-0.1927,13.5955,1369,2999.25
18174,-6.1268,-0.0383,10.975,1369,2999.25
18179,-0.1784,2.9317,7.78,1371,2999.1
18184,3.6272,3.6428,10.7153,1371,2999.1
18189,-0.7518,-0.164,13.6493,1371,2999.1
18194,-6.1615,-0.0335,10.999,1365,2999.1
18199,-0.2107,2.8611,7.8398,1368,2998.8
18204,3.6045,3.6332,10.7188,1369,2998.8
18209,-0.7733,-0.1915,13.6182,1371,2998.8
18214,-6.1723,-0.0491,10.9666,1371,2998.8
18219,-0.2382,2.8407,7.8829,1372,2998.8
18224,3.5626,3.6164,10.7524,1369,2998.8
18229,-0.8056,-0.1712,13.5632,1371,2998.8
18234,-6.1854,-0.0227,10.9116,1369,2998.8
18239,-0.2215,2.8946,7.8123,1368,2998.8
18244,3.5733,3.6583,10.7248,1369,2998.8
18249,-0.7853,-0.1867,13.5955,1369,2998.8
18254,-6.1938,-0.0192,11.0085,1369,2998.8
18259,-0.2801,2.9377,7.8446,1367,2998.5
18264,3.5638,3.699,10.7548,1373,2998.5
18269,-0.8045,-0.1365,13.611,1371,2998.5
18274,-6.1591,0.0323,11.0014,1368,2998.5
18279,-0.2167,2.8958,7.7764,1371,2998.65
18284,3.5698,3.6871,10.7655,1369,2998.65
18289,-0.7997,-0.1448,13.6589,1369,2998.65
18294,-6.1591,0.0,11.0038,1371,2998.65
18299,-0.261,2.9209,7.8326,1369,2998.8
18304,3.6033,3.7038,10.7536,1371,2998.8
18309,-0.7626,-0.1425,13.635,1369,2998.8
18314,-6.1483,-0.0084,10.9762,1370,2998.8
18319,-0.2023,2.891,7.8183,1369,2999.1
18324,3.6129,3.6895,10.7141,1382,2999.1
18329,-0.7518,-0.1652,13.6458,1371,2999.1
18334,-6.0944,-0.0491,10.9954,1371,2999.1
18339,-0.2418,2.9329,7.829,1368,2999.25
18344,3.5901,3.7218,10.7416,1371,2999.25
18349,-0.7003,-0.1329,13.623,1368,2999.25
18354,-6.1603,-0.0718,10.9822,1371,2999.25
18359,-0.2298,2.8599,7.8243,1371,2998.95
18364,3.6404,3.6536,10.7775,1369,2998.95
18369,-0.6955,-0.1365,13.6446,1370,2998.95
18374,-6.1399,-0.0551,10.9966,1371,2998.95
18379,-0.2394,2.8946,7.8111,1371,2998.95
18384,3.6045,3.6524,10.6961,1374,2998.95
18389,-0.7183,-0.1688,13.6134,1371,2998.95
18394,-6.128,-0.1006,10.9822,1369,2998.95
18399,-0.3136,2.885,7.8195,1372,2998.95
18404,3.6105,3.6404,10.7368,1371,2998.95
18409,-0.6656,-0.1173,13.5739,1369,2998.95
18414,-6.1854,-0.0682,10.981,1365,2998.95
18419,-0.2897,2.8862,7.829,1371,2999.1
18424,3.571,3.6643,10.7129,1370,2999.1
18429,-0.7673,-0.17,13.5165,1373,2999.1
18434,-6.1974,-0.067,11.0073,1368,2999.1
18439,-0.267,2.903,7.8278,1371,2999.4
18444,3.5698,3.6643,10.7141,1369,2999.4
18449,-0.7242,-0.1784,13.5787,1371,2999.4
18454,-6.1758,-0.0395,11.0337,1371,2999.4
18459,-0.2837,2.8491,7.8446,1369,2999.4
18464,3.5626,3.6476,10.7464,1381,2999.4
18469,-0.7913,-0.1652,13.5907,1373,2999.4
18474,-6.1842,-0.0251,11.0121,1371,2999.4
18479,-0.2478,2.9137,7.8326,1373,2999.25
18484,3.5757,3.6955,10.7188,1371,2999.25
18489,-0.7913,-0.1508,13.6003,1371,2999.25
18494,-6.1268,0.0012,11.0277,1371,2999.25
18499,-0.2263,2.8946,7.7704,1369,2998.65
18504,3.6547,3.7314,10.7344,1369,2998.65
18509,-0.7458,-0.1389,13.6601,1370,2998.65
18514,-6.1339,0.0012,11.054,1375,2998.65
18519,-0.2179,2.9245,7.8338,1373,2998.35
18524,3.632,3.6739,10.7033,1375,2998.35
18529,-0.7709,-0.1413,13.617,1371,2998.35
18534,-6.0873,-0.0599,11.0205,1372,2998.35
18539,-0.249,2.9413,7.78,1374,2998.35
18544,3.6404,3.723,10.6745,1370,2998.35
18549,-0.7015,-0.1269,13.5943,1371,2998.35
18554,-6.0681,-0.0407,11.0612,1378,2998.35
18559,-0.2945,2.8431,7.7859,1373,2998.5
18564,3.5889,3.6679,10.7009,1378,2998.5
18569,-0.6823,-0.158,13.556,1372,2998.5
18574,-6.0861,-0.1161,11.0109,1373,2998.5
18579,-0.2873,2.8647,7.7464,1373,2998.2
18584,3.5913,3.6823,10.6985,1375,2998.2
18589,-0.6835,-0.1149,13.6302,1373,2998.2
18594,-6.0693,-0.0886,11.0253,1375,2998.2
18599,-0.31,2.8455,7.7883,1369,2997.6
18604,3.5518,3.6368,10.6602,1379,2997.6
18609,-0.65,-0.158,13.5943,1373,2997.6
18614,-6.1136,-0.164,11.0061,1373,2997.6
18619,-0.3304,2.8347,7.8638,1373,2997.75
18624,3.5542,3.6571,10.7571,1375,2997.75
18629,-0.6704,-0.0922,13.5464,1369,2997.75
18634,-6.11,-0.146,11.0026,1375,2997.75
18639,-0.3519,2.818,7.8087,1372,2997.75
18644,3.4596,3.7206,10.665,1377,2997.75
18649,-0.7063,-0.1041,13.5751,1373,2997.75
18654,-6.0789,-0.1269,11.0947,1371,2997.75
18659,-0.3843,2.8623,7.8254,1367,2998.65
18664,3.5338,3.6811,10.7129,1379,2998.65
18669,-0.6357,-0.0718,13.5524,1371,2998.65
18674,-6.1699,-0.1077,11.0433,1379,2998.65
18679,-0.3759,2.8515,7.8027,1375,2998.95
18684,3.5243,3.6859,10.7452,1381,2998.95
18689,-0.7027,-0.0946,13.5847,1371,2998.95
18694,-6.1387,-0.067,11.0624,1373,2998.95
18699,-0.3448,2.8862,7.8386,1369,2998.65
18704,3.5733,3.7481,10.7536,1380,2998.65
18709,-0.6692,-0.0946,13.5428,1369,2998.65
18714,-6.1064,-0.1233,11.0792,1374,2998.65
18719,-0.3603,2.9197,7.8554,1374,2998.8
18724,3.6021,3.7338,10.7045,1382,2998.8
18729,-0.6895,-0.0838,13.6062,1371,2998.8
18734,-6.1327,-0.0982,11.048,1378,2998.8
18739,-0.3986,2.891,7.7656,1371,2999.1
18744,3.6081,3.6978,10.6853,1383,2999.1
18749,-0.6452,-0.0563,13.5775,1371,2999.1
18754,-6.0705,-0.0922,11.0768,1373,2999.1
18759,-0.3472,2.8934,7.8195,1377,2999.25
18764,3.614,3.7074,10.6877,1381,2999.25
18769,-0.5686,-0.0898,13.5703,1369,2999.25
18774,-6.1064,-0.1281,11.0576,1373,2999.25
18779,-0.3364,2.8323,7.7345,1373,2999.55
18784,3.638,3.6691,10.6745,1381,2999.55
18789,-0.6009,-0.0599,13.6398,1369,2999.55
18794,-6.0849,-0.1484,11.0935,1373,2999.55
18799,-0.3795,2.8479,7.7955,1378,2999.4
18804,3.5877,3.6811,10.6865,1381,2999.4
18809,-0.6153,-0.1305,13.5943,1369,2999.4
18814,-6.0944,-0.1736,11.0971,1377,2999.4
18819,-0.4166,2.8335,7.8231,1382,2999.7
18824,3.5554,3.6667,10.6602,1383,2999.7
18829,-0.6393,-0.0862,13.5751,1371,2999.7
18834,-6.1232,-0.1317,11.0935,1375,2999.7
18839,-0.3771,2.8683,7.7788,1371,2999.85
18844,3.535,3.6943,10.6494,1381,2999.85
18849,-0.6931,-0.0982,13.6015,1371,2999.85
18854,-6.1076,-0.1365,11.0456,1379,2999.85
18859,-0.3998,2.8491,7.75,1372,2999.85
18864,3.5051,3.6847,10.6961,1382,2999.85
18869,-0.6847,-0.085,13.6613,1371,2999.85
18874,-6.1471,-0.0718,11.0947,1379,2999.85
18879,-0.3256,2.8695,7.8554,1375,2999.85
18884,3.5458,3.7266,10.7141,1380,2999.85
18889,-0.7506,-0.1089,13.6266,1369,2999.85
18894,-6.1387,-0.1113,11.0852,1375,2999.85
18899,-0.3903,2.8611,7.8099,1371,3000.0
18904,3.5386,3.7002,10.671,1381,3000.0
18909,-0.6776,-0.0347,13.6074,1368,3000.0
18914,-6.0992,-0.0491,11.0935,1375,3000.0
18919,-0.2993,2.891,7.7943,1373,3000.3
18924,3.6093,3.7254,10.6901,1385,3000.3
18929,-0.723,-0.0838,13.6326,1370,3000.3
18934,-6.1639,-0.0443,11.0648,1379,3000.3
18939,-0.3053,2.9209,7.8446,1373,3000.75
18944,3.6691,3.7074,10.7332,1381,3000.75
18949,-0.6991,-0.067,13.6266,1371,3000.75
18954,-6.0908,-0.0874,11.0133,1373,3000.75
18959,-0.2682,2.8874,7.75,1374,3001.2
18964,3.6655,3.7409,10.6973,1383,3001.2
18969,-0.6596,-0.0994,13.6505,1373,3001.2
18974,-6.1375,-0.097,11.0456,1375,3001.2
18979,-0.255,2.8695,7.8039,1373,3002.1
18984,3.6667,3.6296,10.6566,1379,3002.1
18989,-0.6883,-0.1736,13.6218,1369,3002.1
18994,-6.1543,-0.0802,10.9583,1369,3002.1
18999,-0.2215,2.8862,7.7835,1374,3001.95
19004,3.6859,3.644,10.7117,1381,3001.95
19009,-0.6955,-0.1891,13.6254,1369,3001.95
19014,-6.104,-0.1041,11.0181,1377,3001.95
19019,-0.2322,2.8958,7.8231,1371,3001.95
19024,3.6332,3.65,10.7009,1380,3001.95
19029,-0.7147,-0.2071,13.641,1373,3001.95
19034,-6.1699,-0.0347,10.9535,1374,3001.95
19039,-0.1915,2.8718,7.8087,1378,3001.65
19044,3.6236,3.6152,10.7272,1379,3001.65
19049,-0.7901,-0.2047,13.6493,1373,3001.65
19054,-6.1758,-0.0072,10.9942,1373,3001.65
19059,-0.1784,2.9066,7.8266,1380,3001.8
19064,3.6093,3.6703,10.7224,1381,3001.8
19069,-0.8583,-0.2023,13.6314,1375,3001.8
19074,-6.2177,-0.0036,11.0181,1379,3001.8
19079,-0.1808,2.8802,7.8817,1373,3001.8
19084,3.6368,3.6547,10.8122,1379,3001.8
19089,-0.929,-0.2179,13.635,1375,3001.8
19094,-6.2249,0.0826,10.969,1375,3001.8
19099,-0.1185,2.9377,7.8039,1375,3001.95
19104,3.638,3.6392,10.7296,1375,3001.95
19109,-0.9493,-0.2179,13.6781,1378,3001.95
19114,-6.2297,0.1173,10.9595,1374,3001.95
19119,-0.0455,2.9281,7.8195,1373,3002.1
19124,3.6619,3.6368,10.7871,1381,3002.1
19129,-0.9433,-0.2131,13.6709,1375,3002.1
19134,-6.2369,0.1053,10.9607,1379,3002.1
19139,-0.0156,2.9197,7.7644,1375,3001.95
19144,3.6763,3.6272,10.799,1383,3001.95
19149,-0.9924,-0.2598,13.6745,1379,3001.95
19154,-6.1998,0.1532,10.9283,1381,3001.95
19159,-0.0024,2.958,7.8673,1381,3002.1
19164,3.705,3.6392,10.8481,1379,3002.1
19169,-0.9601,-0.2861,13.6769,1381,3002.1
19174,-6.183,0.1293,10.8565,1380,3002.1
19179,0.0479,2.9329,7.7943,1379,3001.65
19184,3.7697,3.5901,10.8553,1379,3001.65
19189,-0.9661,-0.2837,13.7319,1375,3001.65
19194,-6.2309,0.1867,10.8601,1379,3001.65
19199,0.079,2.9796,7.7883,1379,3002.85
19204,3.7493,3.5853,10.8565,1379,3002.85
19209,-0.9852,-0.3268,13.6733,1375,3002.85
19214,-6.1818,0.17,10.8194,1373,3002.85
19219,0.0826,2.9269,7.8015,1375,3002.25
19224,3.6966,3.5877,10.8457,1374,3002.25
19229,-0.9457,-0.3484,13.6434,1369,3002.25
19234,-6.2189,0.1867,10.7763,1373,3002.25
19239,0.085,2.9568,7.8805,1375,3001.95
19244,3.7529,3.5554,10.8793,1371,3001.95
19249,-1.057,-0.3543,13.6781,1373,3001.95
19254,-6.2549,0.1796,10.7643,1374,3001.95
19259,0.1341,2.9305,7.8745,1375,3001.5
19264,3.699,3.5482,10.9343,1379,3001.5
19269,-1.0511,-0.3651,13.6793,1379,3001.5
19274,-6.2632,0.2514,10.7799,1375,3001.5
19279,0.1293,2.9904,7.9057,1373,3001.65
19284,3.6703,3.5865,10.8625,1373,3001.65
19289,-1.1025,-0.4058,13.6912,1373,3001.65
19294,-6.2932,0.2023,10.7464,1374,3001.65
19299,0.1305,2.97,7.9224,1375,3001.5
19304,3.7338,3.5494,10.9223,1373,3001.5
19309,-1.1516,-0.3663,13.6493,1373,3001.5
19314,-6.3003,0.3089,10.7404,1372,3001.5
19319,0.1329,3.0023,7.8697,1384,3002.1
19324,3.7685,3.5662,10.8972,1371,3002.1
19329,-1.1612,-0.3831,13.6493,1373,3002.1
19334,-6.286,0.3172,10.6973,1371,3002.1
19339,0.2059,2.9844,7.9404,1375,3002.25
19344,3.7553,3.5291,10.9128,1372,3002.25
19349,-1.1696,-0.4178,13.6769,1371,3002.25
19354,-6.2979,0.3843,10.7153,1373,3002.25
19359,0.249,3.0011,7.9128,1375,3002.1
19364,3.8032,3.553,10.9666,1374,3002.1
19369,-1.2103,-0.4657,13.6996,1375,3002.1
19374,-6.2477,0.3519,10.7105,1377,3002.1
19379,0.2071,3.0227,7.9679,1379,3001.65
19384,3.796,3.4812,10.9858,1378,3001.65
19389,-1.1384,-0.425,13.6948,1379,3001.65
19394,-6.2549,0.3986,10.6374,1373,3001.65
19399,0.2957,3.0023,7.8889,1379,3001.35
19404,3.8571,3.5446,10.9918,1378,3001.35
19409,-1.1851,-0.4585,13.7188,1380,3001.35
19414,-6.256,0.3699,10.6805,1373,3001.35
19419,0.316,3.0023,7.938,1380,3001.65
19424,3.8211,3.486,10.9439,1374,3001.65
19429,-1.2019,-0.4729,13.635,1379,3001.65
19434,-6.256,0.425,10.6111,1374,3001.65
19439,0.3352,3.0167,7.9535,1378,3001.65
19444,3.7804,3.5267,11.0253,1374,3001.65
19449,-1.2378,-0.4657,13.7499,1379,3001.65
19454,-6.3063,0.3651,10.5967,1373,3001.65
19459,0.334,3.0071,7.932,1385,3001.2
19464,3.7733,3.4632,11.0373,1374,3001.2
19469,-1.2989,-0.5207,13.6817,1379,3001.2
19474,-6.2596,0.413,10.5716,1372,3001.2
19479,0.3735,3.0442,7.9464,1379,3001.2
19484,3.7912,3.4979,11.0002,1379,3001.2
19489,-1.3084,-0.5076,13.6481,1379,3001.2
19494,-6.2979,0.4369,10.5692,1378,3001.2
19499,0.3915,3.0311,7.9188,1381,3000.75
19504,3.7649,3.4907,11.0516,1379,3000.75
19509,-1.3192,-0.5112,13.6661,1381,3000.75
19514,-6.262,0.4393,10.5632,1377,3000.75
19519,0.395,3.0442,7.9571,1379,3000.9
19524,3.7541,3.4788,11.1067,1379,3000.9
19529,-1.3336,-0.5327,13.6709,1379,3000.9
19534,-6.2944,0.4836,10.5189,1370,3000.9
19539,0.3639,3.0107,7.9164,1380,3000.6
19544,3.79,3.4237,11.0923,1377,3000.6
19549,-1.3539,-0.5531,13.7415,1379,3000.6
19554,-6.2944,0.4848,10.5908,1379,3000.6
19559,0.3771,3.0718,7.999,1381,3000.6
19564,3.8056,3.468,11.0768,1375,3000.6
19569,-1.3192,-0.5602,13.6661,1379,3000.6
19574,-6.2477,0.4908,10.5034,1375,3000.6
19579,0.4585,3.049,7.926,1379,3000.45
19584,3.8451,3.3986,11.1163,1379,3000.45
19589,-1.3479,-0.571,13.6948,1381,3000.45
19594,-6.3075,0.5638,10.5584,1379,3000.45
19599,0.4322,3.0993,8.0074,1379,3000.9
19604,3.8259,3.4524,11.0756,1375,3000.9
19609,-1.336,-0.5351,13.6781,1379,3000.9
19614,-6.2441,0.4932,10.5129,1377,3000.9
19619,0.4489,3.0646,8.0002,1380,3000.45
19624,3.7804,3.4644,11.151,1379,3000.45
19629,-1.3396,-0.5638,13.7511,1379,3000.45
19634,-6.2872,0.5088,10.507,1373,3000.45
19639,0.4573,3.0825,7.9212,1383,2999.7
19644,3.8487,3.4979,11.06,1368,2999.7
19649,-1.3384,-0.577,13.6661,1333,2999.7
19654,-6.2489,0.4884,10.5477,1320,2999.7
19659,0.4393,3.0227,8.0038,1309,2998.95
19664,3.7481,3.4069,11.1582,1333,2998.95
19669,-1.3587,-0.5662,13.6733,1255,2998.95
19674,-6.2189,0.4848,10.4878,1335,2998.95
19679,0.4322,3.0347,7.9631,1331,2998.65
19684,3.7314,3.4333,11.048,1340,2998.65
19689,-1.3108,-0.5674,13.6529,1333,2998.65
19694,-6.2788,0.5471,10.568,1331,2998.65
19699,0.4082,3.0658,8.0086,1303,2998.35
19704,3.7649,3.4345,11.1079,1309,2998.35
19709,-1.3012,-0.5339,13.5955,1305,2998.35
19714,-6.256,0.5327,10.501,1293,2998.35
19719,0.4441,3.0299,7.9859,1292,2998.35
19724,3.7685,3.4453,11.0445,1275,2998.35
19729,-1.3372,-0.5878,13.6493,1269,2998.35
19734,-6.2525,0.5339,10.5369,1273,2998.35
19739,0.425,3.055,7.9715,1269,2998.05
19744,3.7984,3.4321,11.048,1269,2998.05
19749,-1.3384,-0.5399,13.611,1267,2998.05
19754,-6.2441,0.498,10.5477,1260,2998.05
19759,0.4106,3.0143,7.9547,1271,2997.9
19764,3.7996,3.4453,11.1139,1271,2997.9
19769,-1.3324,-0.5686,13.7008,1271,2997.9
19774,-6.2501,0.5136,10.5668,1269,2997.9
19779,0.3974,3.0478,7.9547,1267,2998.2
19784,3.7828,3.45,11.054,1267,2998.2
19789,-1.3096,-0.5519,13.6912,1267,2998.2
19794,-6.268,0.5303,10.477,1269,2998.2
19799,0.3879,3.0131,7.9739,1269,2998.5
19804,3.7972,3.4441,11.1139,1263,2998.5
19809,-1.3336,-0.5219,13.6853,1269,2998.5
19814,-6.2417,0.4956,10.5465,1257,2998.5
19819,0.4034,3.0598,7.9272,1263,2998.5
19824,3.7685,3.5015,11.0648,1261,2998.5
19829,-1.2809,-0.5339,13.6481,1261,2998.5
19834,-6.2118,0.4824,10.6063,1268,2998.5
19839,0.3891,3.049,7.9655,1262,2998.35
19844,3.7565,3.4752,11.0744,1257,2998.35
19849,-1.2426,-0.5064,13.7188,1258,2998.35
19854,-6.2261,0.4465,10.5896,1261,2998.35
19859,0.3687,3.0023,7.9272,1261,2998.2
19864,3.7505,3.48,11.06,1263,2998.2
19869,-1.2127,-0.5291,13.6517,1259,2998.2
19874,-6.2309,0.3998,10.5872,1259,2998.2
19879,0.3519,2.9856,8.0038,1257,2998.05
19884,3.7182,3.4548,11.0313,1257,2998.05
19889,-1.1875,-0.516,13.6302,1259,2998.05
19894,-6.2249,0.407,10.5321,1261,2998.05
19899,0.3196,3.0275,7.9559,1259,2997.75
19904,3.7553,3.5147,11.0636,1256,2997.75
19909,-1.2534,-0.4932,13.6709,1263,2997.75
19914,-6.2189,0.4106,10.6111,1273,2997.75
19919,0.2933,3.0287,7.9236,1269,2997.75
19924,3.6787,3.4752,11.0193,1275,2997.75
19929,-1.227,-0.4693,13.6074,1269,2997.75
19934,-6.2201,0.3962,10.5991,1265,2997.75
19939,0.2765,2.9748,8.029,1269,2998.05
19944,3.6907,3.456,11.0504,1269,2998.05
19949,-1.1744,-0.4585,13.6266,1267,2998.05
19954,-6.2453,0.4214,10.6039,1271,2998.05
19959,0.31,2.9916,8.017,1272,2997.9
19964,3.7685,3.4776,11.0193,1263,2997.9
19969,-1.2127,-0.5136,13.6493,1269,2997.9
19974,-6.256,0.3771,10.5955,1271,2997.9
19979,0.255,3.0179,7.9655,1270,2997.3
19984,3.7314,3.5015,11.0373,1271,2997.3
19989,-1.2163,-0.4752,13.6565,1269,2997.3
19994,-6.2465,0.4178,10.647,1271,2997.3
19999,0.2705,3.0287,7.9571,1271,2997.9
20004,3.7421,3.4907,10.9822,1272,2997.9
20009,-1.1756,-0.4525,13.6458,1269,2997.9
20014,-6.256,0.3926,10.6662,1287,2997.9
20019,0.2526,2.9999,7.9332,1272,2997.3
20024,3.7146,3.5027,11.0624,1273,2997.3
20029,-1.1779,-0.413,13.6493,1267,2997.3
20034,-6.2022,0.3783,10.6698,1271,2997.3
20039,0.2813,3.0083,7.9535,1263,2996.85
20044,3.7493,3.5566,10.9391,1269,2996.85
20049,-1.166,-0.3915,13.6146,1263,2996.85
20054,-6.1687,0.3448,10.7548,1269,2996.85
20059,0.1987,2.9999,7.9595,1266,2997.15
20064,3.6978,3.4943,10.9295,1263,2997.15
20069,-1.1109,-0.407,13.5811,1261,2997.15
20074,-6.1639,0.2598,10.6734,1273,2997.15
20079,0.231,3.0155,7.9128,1267,2997.15
20084,3.6775,3.5913,10.9595,1273,2997.15
20089,-1.1241,-0.3795,13.6996,1261,2997.15
20094,-6.2022,0.2897,10.7823,1268,2997.15
20099,0.1856,2.9748,7.9045,1272,2997.45
20104,3.6871,3.5231,10.9056,1274,2997.45
20109,-1.0942,-0.3783,13.6338,1269,2997.45
20114,-6.1782,0.2418,10.7033,1275,2997.45
20119,0.1149,2.9652,7.8973,1273,2997.6
20124,3.6871,3.5147,10.9822,1277,2997.6
20129,-1.0786,-0.3484,13.6601,1273,2997.6
20134,-6.2082,0.2526,10.7631,1279,2997.6
20139,0.1413,2.9413,7.865,1272,2998.05
20144,3.6715,3.5231,10.896,1285,2998.05
20149,-1.1073,-0.407,13.6027,1274,2998.05
20154,-6.1938,0.2646,10.7308,1260,2998.05
20159,0.1053,2.9712,7.9128,1277,2998.65
20164,3.7086,3.5602,11.0109,1287,2998.65
20169,-1.0965,-0.3412,13.6338,1275,2998.65
20174,-6.2213,0.2885,10.7392,1277,2998.65
20179,0.152,2.9509,7.8709,1277,2998.65
20184,3.6883,3.5542,10.8781,1285,2998.65
20189,-1.0965,-0.4202,13.6685,1269,2998.65
20194,-6.1746,0.2789,10.7715,1279,2998.65
20199,0.0874,2.9844,7.8865,1275,2998.35
20204,3.717,3.5925,10.9595,1289,2998.35
20209,-1.0367,-0.3603,13.6793,1273,2998.35
20214,-6.1962,0.255,10.7129,1279,2998.35
20219,0.1616,2.9868,7.8614,1276,2998.35
20224,3.7098,3.5542,10.9331,1288,2998.35
20229,-1.0463,-0.3519,13.6458,1275,2998.35
20234,-6.2106,0.2789,10.7164,1277,2998.35
20239,0.1077,3.0358,7.8865,1274,2998.05
20244,3.6811,3.6009,10.9666,1288,2998.05
20249,-1.0798,-0.3316,13.5715,1273,2998.05
20254,-6.1746,0.2263,10.7763,1287,2998.05
20259,0.0994,2.9832,7.8721,1284,2998.35
20264,3.6847,3.5985,10.9283,1287,2998.35
20269,-0.9792,-0.3232,13.6685,1275,2998.35
20274,-6.1495,0.2442,10.7512,1286,2998.35
20279,0.1389,2.9377,7.9344,1272,2997.9
20284,3.7074,3.5781,10.8828,1285,2997.9
20289,-1.0271,-0.3256,13.6469,1276,2997.9
20294,-6.1699,0.1867,10.8038,1293,2997.9
20299,0.085,2.9628,7.8925,1302,2998.05
20304,3.7014,3.541,10.8936,1311,2998.05
20309,-0.9373,-0.2981,13.6386,1304,2998.05
20314,-6.2034,0.2179,10.805,1319,2998.05
20319,0.0646,2.9329,7.9116,1316,2998.2
20324,3.6559,3.5698,10.8876,1327,2998.2
20329,-1.0068,-0.3292,13.6098,1319,2998.2
20334,-6.2094,0.1568,10.8278,1325,2998.2
20339,0.0599,2.9485,7.9057,1327,2998.65
20344,3.6835,3.553,10.8673,1336,2998.65
20349,-0.9685,-0.34,13.5644,1323,2998.65
20354,-6.1878,0.1688,10.8122,1331,2998.65
20359,0.0048,2.9221,7.8446,1331,2998.95
20364,3.6607,3.5662,10.8338,1335,2998.95
20369,-0.978,-0.3112,13.6122,1320,2998.95
20374,-6.2249,0.2155,10.8062,1331,2998.95
20379,0.0467,2.9437,7.8733,1324,2999.25
20384,3.6703,3.5638,10.835,1335,2999.25
20389,-1.0451,-0.3651,13.6314,1321,2999.25
20394,-6.2357,0.2107,10.7715,1333,2999.25
20399,0.0778,2.9772,7.8769,1331,2998.95
20404,3.6799,3.614,10.908,1335,2998.95
20409,-1.0259,-0.2586,13.6182,1326,2998.95
20414,-6.2489,0.2418,10.7428,1333,2998.95
20419,0.006,2.97,7.8494,1330,2998.65
20424,3.7086,3.5841,10.8793,1335,2998.65
20429,-1.0175,-0.2945,13.6434,1327,2998.65
20434,-6.201,0.1987,10.799,1333,2998.65
20439,0.0491,2.9413,7.8506,1333,2998.8
20444,3.6679,3.6428,10.8912,1337,2998.8
20449,-1.0163,-0.2885,13.7631,1330,2998.8
20454,-6.1962,0.1616,10.8924,1335,2998.8
20459,0.0455,2.9604,7.8266,1333,2999.1
20464,3.7026,3.6392,10.8948,1337,2999.1
20469,-0.9816,-0.2885,13.635,1327,2999.1
20474,-6.189,0.1939,10.744,1335,2999.1
20479,0.0682,2.9712,7.859,1332,2999.55
20484,3.7254,3.6045,10.9044,1339,2999.55
20489,-0.9888,-0.2861,13.6577,1329,2999.55
20494,-6.1734,0.1748,10.7691,1337,2999.55
20499,0.0311,2.9497,7.9045,1325,3000.0
20504,3.6763,3.5602,10.8266,1339,3000.0
20509,-0.923,-0.3041,13.6374,1332,3000.0
20514,-6.1711,0.1472,10.8553,1338,3000.0
20519,0.0371,2.9317,7.8805,1334,3000.15
20524,3.7098,3.5733,10.9511,1341,3000.15
20529,-0.9182,-0.3292,13.6074,1325,3000.15
20534,-6.2501,0.1796,10.8062,1333,3000.15
20539,0.1077,2.9365,7.8673,1336,3000.3
20544,3.6835,3.5566,10.8745,1342,3000.3
20549,-0.9852,-0.3567,13.5751,1336,3000.3
20554,-6.213,0.1508,10.8038,1337,3000.3
20559,0.0467,2.9209,7.8853,1335,3000.6
20564,3.6667,3.5662,10.8876,1341,3000.6
20569,-0.9697,-0.3555,13.641,1331,3000.6
20574,-6.2489,0.1676,10.7715,1337,3000.6
20579,0.0886,2.8898,7.8817,1337,3000.6
20584,3.7086,3.5542,10.8757,1341,3000.6
20589,-1.0726,-0.3747,13.6529,1332,3000.6
20594,-6.28,0.249,10.7835,1337,3000.6
20599,0.1113,2.9509,7.8602,1336,3000.9
20604,3.6943,3.5662,10.9223,1341,3000.9
20609,-1.1432,-0.3448,13.6398,1333,3000.9
20614,-6.2549,0.2334,10.7787,1337,3000.9
20619,0.1197,2.964,7.8338,1336,3000.9
20624,3.6835,3.5626,10.9247,1349,3000.9
20629,-1.0882,-0.3555,13.6314,1337,3000.9
20634,-6.2608,0.2562,10.8002,1341,3000.9
20639,0.1628,2.9521,7.8901,1335,3000.9
20644,3.7457,3.6057,10.9415,1343,3000.9
20649,-1.1349,-0.3723,13.6577,1331,3000.9
20654,-6.2716,0.2765,10.8146,1340,3000.9
20659,0.1389,2.9676,7.8721,1335,3000.9
20664,3.7242,3.5769,10.9619,1343,3000.9
20669,-1.0953,-0.3795,13.6912,1333,3000.9
20674,-6.2153,0.31,10.8074,1341,3000.9
20679,0.1748,2.9676,7.8147,1337,3000.9
20684,3.8116,3.559,10.8541,1349,3000.9
20689,-1.1265,-0.3316,13.6505,1335,3000.9
20694,-6.2189,0.322,10.75,1337,3000.9
20699,0.1963,2.964,7.914,1339,3001.2
20704,3.7673,3.5063,10.9439,1350,3001.2
20709,-1.0989,-0.3998,13.6661,1332,3001.2
20714,-6.213,0.31,10.7129,1339,3001.2
20719,0.2322,2.9796,7.8219,1336,3000.9
20724,3.7757,3.5338,10.8888,1343,3000.9
20729,-1.0989,-0.3807,13.6434,1333,3000.9
20734,-6.1938,0.2981,10.671,1337,3000.9
20739,0.249,2.9868,7.8697,1333,3001.05
20744,3.7565,3.4692,10.9559,1349,3001.05
20749,-1.1325,-0.4106,13.6661,1321,3001.05
20754,-6.2309,0.3041,10.6326,1339,3001.05
20759,0.267,2.97,7.9021,1339,3000.9
20764,3.7481,3.5075,10.9714,1343,3000.9
20769,-1.1265,-0.4298,13.6422,1335,3000.9
20774,-6.2608,0.3124,10.6267,1339,3000.9
20779,0.2574,2.964,7.9057,1337,3000.9
20784,3.7326,3.4991,10.9714,1341,3000.9
20789,-1.2151,-0.4429,13.7319,1334,3000.9
20794,-6.2956,0.3448,10.6231,1341,3000.9
20799,0.2837,2.9784,7.8685,1337,3001.2
20804,3.7158,3.5111,10.975,1343,3001.2
20809,-1.2127,-0.431,13.6517,1334,3001.2
20814,-6.28,0.3639,10.6338,1339,3001.2
20819,0.2837,2.976,7.9464,1337,3001.05
20824,3.7074,3.5338,11.0133,1342,3001.05
20829,-1.2258,-0.4561,13.6697,1335,3001.05
20834,-6.3231,0.4034,10.5955,1340,3001.05
20839,0.2705,3.0347,7.9452,1337,3001.35
20844,3.7421,3.4931,11.0289,1341,3001.35
20849,-1.2629,-0.4764,13.6805,1333,3001.35
20854,-6.2752,0.4501,10.6303,1339,3001.35
20859,0.3029,3.0382,7.9128,1337,3001.2
20864,3.7828,3.4931,10.9846,1321,3001.2
20869,-1.2833,-0.4824,13.6517,1333,3001.2
20874,-6.2608,0.4262,10.5943,1339,3001.2
20879,0.3244,3.0131,7.9859,1337,3000.9
20884,3.7972,3.5075,11.0241,1349,3000.9
20889,-1.2234,-0.51,13.708,1333,3000.9
20894,-6.2812,0.425,10.5584,1340,3000.9
20899,0.3938,3.0538,7.9176,1335,3000.6
20904,3.8319,3.4955,11.0049,1350,3000.6
20909,-1.2079,-0.5016,13.7068,1333,3000.6
20914,-6.2213,0.3926,10.5728,1339,3000.6
20919,0.3699,3.0335,7.9128,1341,3000.6
20924,3.7589,3.48,10.9798,1349,3000.6
20929,-1.245,-0.4944,13.6793,1334,3000.6
20934,-6.213,0.3938,10.5608,1341,3000.6
20939,0.4369,3.0514,7.9452,1338,3000.6
20944,3.7936,3.48,11.0253,1342,3000.6
20949,-1.2079,-0.5279,13.6134,1333,3000.6
20954,-6.2584,0.3747,10.5536,1337,3000.6
20959,0.3915,3.0215,7.9583,1335,3000.3
20964,3.7912,3.4776,11.0385,1343,3000.3
20969,-1.2845,-0.5303,13.7032,1333,3000.3
20974,-6.2165,0.4298,10.5692,1337,3000.3
20979,0.4034,3.0191,7.9416,1337,3000.15
20984,3.7565,3.4752,11.0349,1343,3000.15
20989,-1.3084,-0.565,13.7152,1333,3000.15
20994,-6.3063,0.4345,10.55,1338,3000.15
20999,0.401,3.0538,8.0026,1334,3000.15
21004,3.7589,3.4393,11.0433,1331,3000.15
21009,-1.324,-0.5447,13.6805,1332,3000.15
21014,-6.2752,0.4633,10.5333,1339,3000.15
21019,0.395,3.0299,7.9487,1335,3000.3
21024,3.7505,3.4692,11.0768,1351,3000.3
21029,-1.3719,-0.5243,13.7403,1334,3000.3
21034,-6.3039,0.486,10.6087,1341,3000.3
21039,0.3938,3.0215,7.9116,1337,3000.45
21044,3.7828,3.4345,11.0421,1352,3000.45
21049,-1.4102,-0.5291,13.6805,1335,3000.45
21054,-6.2908,0.4908,10.5465,1341,3000.45
21059,0.3891,3.0813,7.9607,1335,3000.75
21064,3.7661,3.4943,11.1438,1343,3000.75
21069,-1.409,-0.5387,13.7439,1324,3000.75
21074,-6.2405,0.5279,10.5093,1342,3000.75
21079,0.4693,3.0358,7.9356,1339,3000.75
21084,3.8379,3.462,11.0935,1349,3000.75
21089,-1.3731,-0.5674,13.7164,1333,3000.75
21094,-6.2752,0.5662,10.556,1339,3000.75
21099,0.425,3.0287,7.9523,1336,3000.9
21104,3.8427,3.4429,11.1091,1343,3000.9
21109,-1.3396,-0.5674,13.6769,1337,3000.9
21114,-6.2549,0.559,10.4411,1343,3000.9
21119,0.4992,3.0574,7.9499,1337,3001.05
21124,3.8427,3.4261,11.0756,1349,3001.05
21129,-1.342,-0.5447,13.7667,1337,3001.05
21134,-6.2513,0.4776,10.5453,1343,3001.05
21139,0.486,3.0658,7.9547,1349,3001.5
21144,3.8283,3.4261,11.0816,1351,3001.5
21149,-1.3779,-0.577,13.708,1336,3001.5
21154,-6.2333,0.5231,10.416,1340,3001.5
21159,0.5483,3.0742,7.9835,1341,3001.65
21164,3.8307,3.4249,11.1642,1341,3001.65
21169,-1.391,-0.6404,13.6805,1336,3001.65
21174,-6.28,0.5578,10.4507,1339,3001.65
21179,0.492,3.0478,8.0409,1337,3001.95
21184,3.8211,3.4548,11.0648,1343,3001.95
21189,-1.4449,-0.6524,13.6338,1335,3001.95
21194,-6.3183,0.5567,10.398,1340,3001.95
21199,0.5195,3.0813,7.9859,1340,3002.25
21204,3.8188,3.3591,11.1594,1343,3002.25
21209,-1.4976,-0.6381,13.7415,1335,3002.25
21214,-6.3039,0.6069,10.3669,1339,3002.25
21219,0.5818,3.1268,8.0038,1336,3002.25
21224,3.7852,3.3806,11.1606,1349,3002.25
21229,-1.5,-0.6752,13.6338,1337,3002.25
21234,-6.3231,0.644,10.3813,1343,3002.25
21239,0.577,3.1005,8.0158,1338,3001.65
21244,3.8092,3.395,11.1462,1352,3001.65
21249,-1.5467,-0.6883,13.7164,1337,3001.65
21254,-6.3375,0.6548,10.3358,1342,3001.65
21259,0.6261,3.0909,7.9954,1337,3001.5
21264,3.8199,3.3746,11.1103,1343,3001.5
21269,-1.6029,-0.68,13.7176,1339,3001.5
21274,-6.2788,0.6919,10.4136,1339,3001.5
21279,0.6057,3.1161,8.0481,1339,3001.5
21284,3.8427,3.4093,11.2073,1341,3001.5
21289,-1.5909,-0.7326,13.6661,1337,3001.5
21294,-6.2704,0.7051,10.3118,1339,3001.5
21299,0.6428,3.0981,8.0625,1340,3001.2
21304,3.8499,3.3411,11.2252,1341,3001.2
21309,-1.5993,-0.7075,13.7762,1336,3001.2
21314,-6.2692,0.6788,10.4052,1341,3001.2
21319,0.6979,3.1591,8.0493,1338,3000.9
21324,3.8607,3.3662,11.1414,1340,3000.9
21329,-1.5766,-0.6907,13.6888,1337,3000.9
21334,-6.2321,0.7123,10.3382,1341,3000.9
21339,0.6752,3.122,8.0481,1339,3000.9
21344,3.8199,3.3483,11.1989,1343,3000.9
21349,-1.5921,-0.7422,13.696,1339,3000.9
21354,-6.2944,0.6859,10.3322,1339,3000.9
21359,0.7003,3.1017,8.0218,1337,3000.6
21364,3.8834,3.3567,11.1725,1341,3000.6
21369,-1.6101,-0.7278,13.6888,1337,3000.6
21374,-6.2716,0.6728,10.3034,1339,3000.6
21379,0.6895,3.1232,8.0242,1339,3000.45
21384,3.8247,3.3232,11.2336,1341,3000.45
21389,-1.6388,-0.7135,13.6601,1337,3000.45
21394,-6.2608,0.6955,10.1502,1337,3000.45
21399,0.7302,3.0921,8.0074,1341,3000.75
21404,3.8415,3.3184,11.2707,1341,3000.75
21409,-1.6807,-0.7183,13.7056,1327,3000.75
21414,-6.2393,0.6835,10.2352,1341,3000.75
21419,0.7147,3.1137,8.0457,1337,3000.75
21424,3.7912,3.3016,11.2492,1341,3000.75
21429,-1.6484,-0.723,13.7068,1337,3000.75
21434,-6.2764,0.7111,10.234,1339,3000.75
21439,0.7015,3.1029,8.0744,1333,3000.9
21444,3.8774,3.2932,11.218,1341,3000.9
21449,-1.6712,-0.7709,13.7248,1336,3000.9
21454,-6.3051,0.7985,10.2675,1338,3000.9
21459,0.7721,3.1759,8.0673,1340,3001.05
21464,3.8475,3.3579,11.3342,1339,3001.05
21469,-1.6879,-0.7829,13.7116,1338,3001.05
21474,-6.28,0.8212,10.2436,1339,3001.05
21479,0.6967,3.1292,8.0517,1337,3000.9
21484,3.8343,3.2956,11.2827,1338,3000.9
21489,-1.7047,-0.7901,13.7128,1339,3000.9
21494,-6.2956,0.826,10.2256,1339,3000.9
21499,0.7709,3.152,8.1319,1335,3000.75
21504,3.8702,3.3255,11.2432,1341,3000.75
21509,-1.7166,-0.7805,13.7188,1336,3000.75
21514,-6.2788,0.8116,10.2053,1338,3000.75
21519,0.7745,3.1663,8.1187,1337,3000.45
21524,3.8307,3.2657,11.2659,1337,3000.45
21529,-1.7585,-0.7913,13.7104,1337,3000.45
21534,-6.268,0.8128,10.2149,1339,3000.45
21539,0.8284,3.2082,8.1151,1337,3000.6
21544,3.8846,3.316,11.2863,1341,3000.6
21549,-1.7011,-0.8045,13.7367,1339,3000.6
21554,-6.3027,0.7925,10.2149,1339,3000.6
21559,0.8045,3.1137,8.1463,1335,3000.6
21564,3.8642,3.2549,11.3222,1337,3000.6
21569,-1.7621,-0.7949,13.7583,1341,3000.6
21574,-6.2872,0.7949,10.1706,1343,3000.6
21579,0.8416,3.1675,8.0996,1343,3000.45
21584,3.8738,3.3196,11.2444,1341,3000.45
21589,-1.7119,-0.7793,13.7667,1339,3000.45
21594,-6.2477,0.8344,10.2041,1349,3000.45
21599,0.8104,3.1304,8.1618,1339,3000.45
21604,3.8307,3.3064,11.333,1343,3000.45
21609,-1.7693,-0.8116,13.6721,1341,3000.45
21614,-6.3015,0.8128,10.1813,1343,3000.45
21619,0.8475,3.1603,8.0661,1343,3000.6
21624,3.8595,3.2597,11.3246,1343,3000.6
21629,-1.7957,-0.8056,13.7535,1341,3000.6
21634,-6.2549,0.814,10.1634,1349,3000.6
21639,0.8152,3.1639,8.1451,1350,3000.6
21644,3.7912,3.2022,11.3353,1343,3000.6
21649,-1.7945,-0.8404,13.6374,1341,3000.6
21654,-6.2908,0.8918,10.1047,1351,3000.6
21659,0.8751,3.1855,8.0972,1343,3000.45
21664,3.8367,3.2717,11.3174,1349,3000.45
21669,-1.7777,-0.8248,13.6924,1350,3000.45
21674,-6.2692,0.8954,10.1598,1349,3000.45
21679,0.808,3.1532,8.1547,1341,3000.45
21684,3.8295,3.2214,11.3258,1343,3000.45
21689,-1.8328,-0.8966,13.7164,1343,3000.45
21694,-6.2572,0.8823,10.1406,1343,3000.45
21699,0.8212,3.1723,8.1666,1349,3000.3
21704,3.8211,3.2441,11.376,1349,3000.3
21709,-1.8471,-0.8835,13.7834,1349,3000.3
21714,-6.2285,0.8643,10.155,1351,3000.3
21719,0.9074,3.146,8.1594,1343,3000.0
21724,3.8607,3.1999,11.327,1354,3000.0
21729,-1.8423,-0.8727,13.7044,1349,3000.0
21734,-6.201,0.9146,10.1586,1351,3000.0
21739,0.8847,3.1867,8.1894,1350,3000.15
21744,3.863,3.2789,11.4012,1351,3000.15
21749,-1.8292,-0.8559,13.6972,1343,3000.15
21754,-6.2704,0.9002,10.1155,1351,3000.15
21759,0.8882,3.2094,8.2013,1342,3000.15
21764,3.8415,3.2789,11.3425,1351,3000.15
21769,-1.8711,-0.8811,13.7403,1351,3000.15
21774,-6.2776,0.8823,10.1442,1341,3000.15
21779,0.9038,3.2358,8.2097,1349,3000.45
21784,3.8654,3.2214,11.3342,1351,3000.45
21789,-1.8304,-0.832,13.7152,1349,3000.45
21794,-6.2656,0.8655,10.0736,1351,3000.45
21799,0.8823,3.1352,8.1211,1352,3000.9
21804,3.8451,3.2429,11.4335,1349,3000.9
21809,-1.8735,-0.8487,13.7403,1351,3000.9
21814,-6.2991,0.9266,10.1239,1351,3000.9
21819,0.9014,3.1783,8.1475,1351,3001.05
21824,3.8571,3.2082,11.4132,1351,3001.05
21829,-1.8519,-0.844,13.6493,1343,3001.05
21834,-6.2501,0.8918,9.9934,1343,3001.05
21839,0.9194,3.1831,8.169,1351,3001.5
21844,3.8894,3.1927,11.3401,1352,3001.5
21849,-1.8878,-0.9337,13.6781,1349,3001.5
21854,-6.2596,0.9206,10.088,1342,3001.5
21859,0.9565,3.1843,8.163,1351,3001.65
21864,3.9014,3.1747,11.3832,1349,3001.65
21869,-1.8902,-0.9768,13.69,1343,3001.65
21874,-6.262,0.972,9.991,1343,3001.65
21879,0.9685,3.1855,8.1882,1351,3001.5
21884,3.8523,3.1831,11.3796,1343,3001.5
21889,-1.974,-0.9768,13.7427,1349,3001.5
21894,-6.268,0.9697,10.0078,1351,3001.5
21899,0.9553,3.2022,8.2061,1351,3001.2
21904,3.8451,3.152,11.412,1343,3001.2
21909,-1.9908,-0.9972,13.6912,1351,3001.2
21914,-6.2549,0.9756,10.0137,1351,3001.2
21919,0.9756,3.1939,8.1834,1349,3001.35
21924,3.875,3.158,11.4527,1351,3001.35
21929,-2.0171,-0.9601,13.7116,1350,3001.35
21934,-6.274,0.9792,10.0161,1344,3001.35
21939,1.0235,3.2178,8.2061,1349,3001.2
21944,3.8211,3.1987,11.4036,1351,3001.2
21949,-2.0506,-0.9421,13.7128,1351,3001.2
21954,-6.2177,0.9984,10.0437,1351,3001.2
21959,0.978,3.2322,8.1666,1340,3001.05
21964,3.8487,3.1675,11.4144,1351,3001.05
21969,-2.0722,-0.9948,13.7451,1351,3001.05
21974,-6.2046,1.0726,9.9683,1351,3001.05
21979,1.0367,3.213,8.2013,1349,3001.2
21984,3.8726,3.1496,11.4443,1351,3001.2
21989,-2.0638,-0.9912,13.7116,1351,3001.2
21994,-6.2118,1.0798,10.0269,1342,3001.2
21999,1.0487,3.2549,8.163,1351,3000.9
22004,3.8487,3.1292,11.4383,1344,3000.9
22009,-2.0387,-0.9708,13.6984,1343,3000.9
22014,-6.2094,1.0247,9.9264,1351,3000.9
22019,1.0858,3.2705,8.2157,1343,3000.75
22024,3.863,3.1304,11.4646,1351,3000.75
22029,-2.0758,-0.9649,13.7786,1351,3000.75
22034,-6.2321,1.0618,9.9359,1349,3000.75
22039,1.069,3.2358,8.254,1352,3000.45
22044,3.8559,3.1065,11.4347,1343,3000.45
22049,-0.7877,-0.1413,13.5859,1351,3000.45
22054,-6.1579,-0.0634,10.9702,1343,3000.45
22059,1.0558,3.2633,8.2935,1351,3000.15
22064,3.5961,3.6847,10.7691,1343,3000.15
22069,-0.7913,-0.1544,13.6481,1349,3000.15
22074,-6.1639,-0.0215,10.9894,1349,3000.15
22079,-0.2167,2.8192,7.8003,1343,3000.3
22084,3.5757,3.614,10.7428,1351,3000.3
22089,-0.844,-0.158,13.6194,1353,3000.3
22094,-6.1675,-0.0658,10.9535,1343,3000.3
22099,-0.1879,2.909,7.8254,1342,3000.0
22104,3.6021,3.6823,10.7871,1351,3000.0
22109,-0.7949,-0.1305,13.6733,1343,3000.0
22114,-6.1292,0.0084,10.9654,1351,3000.0
22119,-0.1951,2.8814,7.8051,1343,3000.0
22124,3.62,3.6428,10.744,1349,3000.0
22129,-0.844,-0.2083,13.623,1352,3000.0
22134,-6.1507,0.0239,10.9798,1352,3000.0
22139,-0.1365,2.9556,7.8865,1352,3000.15
22144,3.5865,3.6667,10.7895,1350,3000.15
22149,-0.8763,-0.1664,13.6338,1353,3000.15
22154,-6.1495,0.0407,10.9882,1351,3000.15
22159,-0.1568,2.9449,7.8015,1338,3000.45
22164,3.6212,3.6476,10.6793,1353,3000.45
22169,-0.8188,-0.1772,13.6398,1353,3000.45
22174,-6.1746,0.0335,11.0097,1349,3000.45
22179,-0.1065,2.9712,7.8302,1342,3000.9
22184,3.6512,3.6823,10.75,1351,3000.9
22189,-0.8511,-0.1472,13.6098,1353,3000.9
22194,-6.1603,0.018,10.9535,1351,3000.9
22199,-0.1185,2.8862,7.829,1353,3001.35
22204,3.6416,3.5913,10.7536,1351,3001.35
22209,-0.8272,-0.1832,13.6505,1352,3001.35
22214,-6.1854,0.0251,10.9499,1343,3001.35
22219,-0.0814,2.9377,7.8135,1353,3001.5
22224,3.6775,3.6835,10.7595,1351,3001.5
22229,-0.7841,-0.1939,13.5584,1354,3001.5
22234,-6.2118,0.0491,10.92,1349,3001.5
22239,-0.079,2.8826,7.8039,1339,3001.65
22244,3.6655,3.5889,10.7955,1351,3001.65
22249,-0.8763,-0.2921,13.6912,1353,3001.65
22254,-6.1794,0.0706,10.9559,1351,3001.65
22259,-0.1006,2.8695,7.7907,1349,3001.65
22264,3.6643,3.6021,10.7679,1353,3001.65
22269,-0.8679,-0.2514,13.6434,1351,3001.65
22274,-6.1974,0.0706,10.9068,1343,3001.65
22279,-0.0503,2.8563,7.835,1343,3001.8
22284,3.6464,3.5769,10.8421,1352,3001.8
22289,-0.9625,-0.2705,13.6661,1355,3001.8
22294,-6.2189,0.0934,10.8745,1349,3001.8
22299,0.0084,2.9233,7.8111,1343,3001.5
22304,3.638,3.6236,10.8541,1351,3001.5
22309,-0.9876,-0.3089,13.6637,1353,3001.5
22314,-6.2237,0.164,10.8781,1343,3001.5
22319,-0.012,2.9401,7.865,1348,3001.5
22324,3.6284,3.6117,10.8577,1343,3001.5
22329,-1.0343,-0.2897,13.6577,1352,3001.5
22334,-6.2153,0.1604,10.8038,1348,3001.5
22339,0.0371,2.9377,7.8793,1349,3001.95
22344,3.6943,3.65,10.8493,1343,3001.95
22349,-1.081,-0.3136,13.7164,1353,3001.95
22354,-6.2381,0.1963,10.8505,1353,3001.95
22359,0.0922,2.9652,7.8374,1351,3002.25
22364,3.7038,3.6284,10.8577,1337,3002.25
22369,-1.0487,-0.3112,13.7607,1355,3002.25
22374,-6.2058,0.2203,10.7955,1353,3002.25
22379,0.0766,2.9868,7.8865,1351,3003.3
22384,3.717,3.5757,10.89,1344,3003.3
22389,-1.0606,-0.3136,13.7667,1353,3003.3
22394,-6.2668,0.2705,10.7524,1349,3003.3
22399,0.176,3.0131,7.8314,1351,3005.11
22404,3.7924,3.5901,10.8745,1341,3005.11
22409,-1.0894,-0.3831,13.7295,1354,3005.11
22414,-6.2848,0.2825,10.7476,1356,3005.11
22419,0.2167,2.9987,7.8614,1351,3006.46
22424,3.7781,3.5733,10.9164,1349,3006.46
22429,-1.154,-0.3747,13.7583,1353,3006.46
22434,-6.2991,0.3208,10.6506,1359,3006.46
22439,0.346,2.9916,7.9057,1349,3007.52
22444,3.8487,3.4465,10.9331,1343,3007.52
22449,-1.2163,-0.4968,13.72,1349,3007.52
22454,-6.3207,0.3711,10.5991,1358,3007.52
22459,0.3998,3.0047,7.8781,1349,3008.73
22464,3.8666,3.4848,10.9463,1351,3008.73
22469,-1.3216,-0.5722,13.7822,1343,3008.73
22474,-6.3674,0.4453,10.5656,1359,3008.73
22479,0.4609,3.0023,7.8997,1349,3009.18
22484,3.881,3.4201,11.0097,1351,3009.18
22489,-1.3934,-0.6081,13.7583,1341,3009.18
22494,-6.3829,0.5076,10.5022,1357,3009.18
22499,0.5327,3.0897,7.9476,1343,3009.03
22504,3.875,3.389,11.0887,1349,3009.03
22509,-1.4724,-0.662,13.7786,1340,3009.03
22514,-6.3877,0.5997,10.4363,1358,3009.03
22519,0.6321,3.0418,7.9667,1343,3007.97
22524,3.8642,3.3399,11.1079,1343,3007.97
22529,-1.6532,-0.7326,13.7822,1343,3007.97
22534,-6.4212,0.6931,10.386,1358,3007.97
22539,0.6632,3.1304,8.017,1343,3005.41
22544,3.8571,3.3291,11.2061,1352,3005.41
22549,-1.7478,-0.7099,13.7631,1343,3005.41
22554,-6.3015,0.7745,10.3202,1363,3005.41
22559,0.7015,3.1101,7.9942,1341,3003.45
22564,3.8032,3.3471,11.1965,1353,3003.45
22569,-1.7561,-0.7602,13.811,1351,3003.45
22574,-6.2979,0.7697,10.3585,1361,3003.45
22579,0.6967,3.1603,8.0278,1343,3002.55
22584,3.8547,3.3603,11.1929,1335,3002.55
22589,-1.7573,-0.7123,13.8445,1325,3002.55
22594,-6.262,0.7793,10.2987,1349,3002.55
22599,0.7638,3.1831,8.0589,1337,3001.95
22604,3.8523,3.3232,11.2731,1341,3001.95
22609,-1.7418,-0.7602,13.7978,1338,3001.95
22614,-6.2165,0.7829,10.319,1355,3001.95
22619,0.7757,3.1819,8.023,1349,3001.8
22624,3.8774,3.3148,11.2695,1351,3001.8
22629,-1.7406,-0.7434,13.7224,1337,3001.8
22634,-6.2489,0.7973,10.228,1356,3001.8
22639,0.7661,3.1448,8.0709,1341,3001.5
22644,3.9121,3.3064,11.248,1351,3001.5
22649,-1.7502,-0.7865,13.7559,1341,3001.5
22654,-6.2345,0.8164,10.149,1363,3001.5
22659,0.8164,3.1747,8.0194,1349,3001.5
22664,3.948,3.2932,11.2767,1353,3001.5
22669,-1.7358,-0.8104,13.6865,1343,3001.5
22674,-6.2285,0.8296,10.1945,1366,3001.5
22679,0.7901,3.1364,8.1343,1351,3001.05
22684,3.8654,3.2382,11.3138,1356,3001.05
22689,-1.7514,-0.8619,13.6888,1341,3001.05
22694,-6.2584,0.8248,10.0856,1365,3001.05
22699,0.8236,3.1268,8.0972,1353,3001.2
22704,3.8678,3.2477,11.3042,1356,3001.2
22709,-1.7968,-0.8535,13.7307,1349,3001.2
22714,-6.2764,0.8368,10.1239,1367,3001.2
22719,0.8308,3.1364,8.1463,1351,3001.05
22724,3.808,3.2034,11.3521,1355,3001.05
22729,-1.8148,-0.8906,13.6685,1349,3001.05
22734,-6.3111,0.838,10.1143,1365,3001.05
22739,0.8248,3.1424,8.1798,1353,3001.2
22744,3.8427,3.2525,11.3174,1355,3001.2
22749,-1.8651,-0.8715,13.7571,1351,3001.2
22754,-6.2944,0.9122,10.1359,1357,3001.2
22759,0.8631,3.1687,8.1535,1355,3001.05
22764,3.8056,3.201,11.3437,1357,3001.05
22769,-1.8986,-0.9002,13.6972,1349,3001.05
22774,-6.3099,0.9182,10.1347,1361,3001.05
22779,0.9014,3.1867,8.193,1353,3001.35
22784,3.8199,3.2286,11.3725,1357,3001.35
22789,-1.8783,-0.8667,13.7272,1352,3001.35
22794,-6.3075,0.917,10.1143,1369,3001.35
22799,0.8835,3.1903,8.2013,1352,3001.2
22804,3.8618,3.2358,11.3509,1357,3001.2
22809,-1.8723,-0.8703,13.7343,1351,3001.2
22814,-6.2824,0.972,10.088,1363,3001.2
22819,0.9074,3.2382,8.2049,1355,3001.35
22824,3.8726,3.2118,11.382,1359,3001.35
22829,-1.8711,-0.8679,13.6984,1349,3001.35
22834,-6.256,0.9601,10.0784,1369,3001.35
22839,0.9505,3.2214,8.1965,1357,3001.35
22844,3.9181,3.2154,11.382,1357,3001.35
22849,-1.889,-0.9409,13.7762,1353,3001.35
22854,-6.2788,0.9242,10.0676,1369,3001.35
22859,0.9565,3.1939,8.1642,1354,3001.05
22864,3.8942,3.2046,11.3988,1358,3001.05
22869,-1.9046,-0.9074,13.7439,1341,3001.05
22874,-6.1723,0.9421,9.9994,1369,3001.05
22879,0.9625,3.1927,8.1307,1357,3001.05
22884,3.8738,3.1879,11.376,1362,3001.05
22889,-1.913,-0.9254,13.6888,1353,3001.05
22894,-6.2082,0.9325,10.003,1369,3001.05
22899,0.9613,3.2262,8.1726,1351,3000.9
22904,3.9002,3.1615,11.3796,1357,3000.9
22909,-1.9201,-0.9481,13.6865,1354,3000.9
22914,-6.2309,0.9421,10.0365,1371,3000.9
22919,0.9792,3.1556,8.2025,1357,3000.9
22924,3.8379,3.1352,11.388,1361,3000.9
22929,-1.9692,-0.9685,13.6661,1343,3000.9
22934,-6.2273,0.9625,10.0126,1369,3000.9
22939,0.9589,3.1927,8.2289,1355,3001.35
22944,3.8583,3.146,11.4168,1359,3001.35
22949,-2.0135,-1.0355,13.6398,1351,3001.35
22954,-6.2836,0.9876,10.0114,1365,3001.35
22959,0.9864,3.2034,8.2181,1356,3001.2
22964,3.8427,3.1759,11.4622,1357,3001.2
22969,-2.0506,-0.972,13.7284,1353,3001.2
22974,-6.2309,1.0415,9.9707,1367,3001.2
22979,1.0175,3.2214,8.2181,1355,3001.5
22984,3.8247,3.1544,11.4203,1359,3001.5
22989,-2.065,-1.0044,13.72,1353,3001.5
22994,-6.2309,1.1013,10.0018,1365,3001.5
22999,0.99,3.2094,8.2696,1357,3001.65
23004,3.8439,3.1711,11.4898,1363,3001.65
23009,-2.083,-0.9948,13.7307,1354,3001.65
23014,-6.2812,1.0475,9.9228,1369,3001.65
23019,1.0558,3.2633,8.2181,1356,3002.25
23024,3.869,3.1544,11.4958,1359,3002.25
23029,-2.1093,-0.9637,13.7391,1355,3002.25
23034,-6.2429,1.0965,9.985,1369,3002.25
23039,1.1085,3.2501,8.2672,1362,3002.55
23044,3.9109,3.1316,11.4838,1361,3002.55
23049,-2.1177,-1.0092,13.7391,1357,3002.55
23054,-6.2489,1.1265,9.8186,1367,3002.55
23059,1.1121,3.2669,8.2241,1355,3003.15
23064,3.9456,3.0622,11.5017,1365,3003.15
23069,-2.1261,-1.0187,13.7475,1353,3003.15
23074,-6.2369,1.1169,9.8928,1365,3003.15
23079,1.1073,3.2693,8.2815,1359,3002.55
23084,3.8774,3.0777,11.5664,1358,3002.55
23089,-2.1308,-1.0403,13.6733,1355,3002.55
23094,-6.2237,1.1145,9.8186,1364,3002.55
23099,1.1001,3.2406,8.2911,1357,3001.8
23104,3.8547,3.0777,11.5508,1359,3001.8
23109,-2.1703,-1.0511,13.702,1355,3001.8
23114,-6.1758,1.1313,9.7755,1365,3001.8
23119,1.16,3.2609,8.2863,1358,3001.35
23124,3.8475,3.0658,11.5257,1357,3001.35
23129,-2.1847,-1.1492,13.6888,1356,3001.35
23134,-6.1866,1.1325,9.7636,1364,3001.35
23139,1.1432,3.2274,8.3354,1357,3000.9
23144,3.8487,3.0347,11.582,1363,3000.9
23149,-2.2134,-1.1169,13.69,1343,3000.9
23154,-6.1878,1.1959,9.8258,1365,3000.9
23159,1.1576,3.2944,8.3043,1359,3000.75
23164,3.8223,3.0358,11.5365,1363,3000.75
23169,-2.2841,-1.1444,13.6505,1356,3000.75
23174,-6.1471,1.1887,9.7731,1364,3000.75
23179,1.1432,3.2501,8.3438,1363,3000.9
23184,3.8032,2.9975,11.5628,1363,3000.9
23189,-2.2589,-1.1241,13.6936,1353,3000.9
23194,-6.1926,1.2151,9.839,1363,3000.9
23199,1.1863,3.2944,8.2815,1358,3000.9
23204,3.8128,3.0083,11.5772,1363,3000.9
23209,-2.2721,-1.1325,13.7367,1355,3000.9
23214,-6.1423,1.1935,9.7779,1363,3000.9
23219,1.2127,3.2825,8.333,1363,3001.2
23224,3.8092,3.0095,11.6035,1359,3001.2
23229,-2.3403,-1.1349,13.6888,1355,3001.2
23234,-6.1304,1.1863,9.7671,1361,3001.2
23239,1.2079,3.2717,8.339,1361,3001.8
23244,3.8152,3.0335,11.5664,1353,3001.8
23249,-2.3104,-1.1636,13.7236,1357,3001.8
23254,-6.201,1.2354,9.8258,1363,3001.8
23259,1.2222,3.3232,8.3582,1362,3002.25
23264,3.8618,3.0358,11.631,1359,3002.25
23269,-2.3236,-1.1337,13.6553,1353,3002.25
23274,-6.1316,1.2953,9.7157,1362,3002.25
23279,1.3001,3.3064,8.339,1357,3002.25
23284,3.8726,2.9808,11.6167,1356,3002.25
23289,-2.32,-1.166,13.7056,1355,3002.25
23294,-6.1268,1.2594,9.736,1359,3002.25
23299,1.2713,3.3196,8.3617,1365,3002.4
23304,3.8894,2.9245,11.6514,1354,3002.4
23309,-2.3906,-1.1468,13.6924,1357,3002.4
23314,-6.0932,1.3108,9.6798,1357,3002.4
23319,1.3324,3.3112,8.4228,1363,3002.55
23324,3.7924,2.9724,11.6717,1357,3002.55
23329,-2.4385,-1.1851,13.6948,1356,3002.55
23334,-6.1292,1.3048,9.6558,1356,3002.55
23339,1.33,3.3076,8.3977,1363,3002.85
23344,3.8379,2.9365,11.6622,1353,3002.85
23349,-2.4169,-1.2294,13.7056,1355,3002.85
23354,-6.0968,1.3001,9.5864,1353,3002.85
23359,1.3228,3.316,8.3893,1363,3002.55
23364,3.7673,2.9066,11.7819,1353,3002.55
23369,-2.4983,-1.2689,13.6733,1349,3002.55
23374,-6.0789,1.3731,9.5553,1357,3002.55
23379,1.3336,3.3064,8.4025,1359,3003.15
23384,3.7781,2.8742,11.6562,1357,3003.15
23389,-2.4995,-1.2797,13.6865,1354,3003.15
23394,-6.0777,1.4054,9.6091,1355,3003.15
23399,1.3647,3.3758,8.4527,1354,3003.45
23404,3.7589,2.9042,11.7388,1357,3003.45
23409,-2.6013,-1.3276,13.6793,1356,3003.45
23414,-6.11,1.3767,9.4882,1357,3003.45
23419,1.385,3.3148,8.4036,1363,3003.91
23424,3.8164,2.8276,11.734,1357,3003.91
23429,-2.6492,-1.3108,13.708,1343,3003.91
23434,-6.0573,1.4605,9.5708,1351,3003.91
23439,1.3719,3.3651,8.4599,1358,3003.45
23444,3.7565,2.8718,11.7795,1364,3003.45
23449,-2.6659,-1.3384,13.6685,1354,3003.45
23454,-6.0059,1.4413,9.5074,1359,3003.45
23459,1.4293,3.3447,8.4779,1362,3003.3
23464,3.7661,2.7988,11.874,1364,3003.3
23469,-2.715,-1.336,13.6841,1357,3003.3
23474,-6.025,1.5227,9.4643,1359,3003.3
23479,1.4784,3.3758,8.5006,1361,3003.15
23484,3.7577,2.8311,11.7819,1355,3003.15
23489,-2.7222,-1.2905,13.6649,1355,3003.15
23494,-5.9915,1.4653,9.4978,1358,3003.15
23499,1.4712,3.3339,8.5748,1363,3002.85
23504,3.7517,2.7102,11.819,1363,3002.85
23509,-2.7246,-1.3623,13.6398,1357,3002.85
23514,-5.952,1.506,9.4367,1363,3002.85
23519,1.5562,3.3986,8.5329,1359,3003.0
23524,3.7876,2.7306,11.8609,1364,3003.0
23529,-2.7892,-1.3755,13.6326,1355,3003.0
23534,-5.9604,1.5287,9.341,1358,3003.0
23539,1.5251,3.4153,8.5784,1361,3003.45
23544,3.7158,2.6791,11.874,1365,3003.45
23549,-2.8084,-1.4222,13.6158,1356,3003.45
23554,-5.8814,1.5574,9.2907,1363,3003.45
23559,1.5203,3.4058,8.5736,1357,3003.3
23564,3.6703,2.7222,11.8705,1367,3003.3
23569,-2.7964,-1.4377,13.6565,1357,3003.3
23574,-5.9053,1.5443,9.2919,1363,3003.3
23579,1.5718,3.377,8.5688,1353,3003.3
23584,3.6691,2.6061,11.904,1365,3003.3
23589,-2.8994,-1.4317,13.6206,1355,3003.3
23594,-5.8047,1.5754,9.2356,1359,3003.45
23599,1.585,3.4249,8.5868,1357,3003.45
23604,3.6188,2.6935,11.9147,1367,3003.45
23609,-2.9497,-1.4485,13.6039,1353,3003.45
23614,-5.8778,1.6161,9.2572,1359,3003.6
23619,1.555,3.3962,8.5988,1353,3003.6
23624,3.6368,2.5869,11.971,1365,3003.6
23629,-3.0191,-1.5215,13.5416,1353,3003.6
23634,-5.849,1.646,9.2093,1363,3003.91
23639,1.5933,3.4393,8.6012,1355,3003.91
23644,3.5853,2.6552,11.9997,1365,3003.91
23649,-3.0167,-1.5215,13.5991,1353,3003.91
23654,-5.8299,1.6568,9.2512,1363,3003.3
23659,1.6005,3.4034,8.6538,1358,3003.3
23664,3.5757,2.5917,12.038,1365,3003.3
23669,-3.049,-1.5024,13.5248,1355,3003.3
23674,-5.8035,1.6939,9.1674,1365,3003.0
23679,1.6412,3.4632,8.7017,1357,3003.0
23684,3.5721,2.5893,12.068,1367,3003.0
23689,-3.0825,-1.4892,13.5703,1355,3003.0
23694,-5.7521,1.6987,9.1842,1365,3002.7
23699,1.6221,3.4285,8.691,1357,3002.7
23704,3.5111,2.5019,12.0524,1367,3002.7
23709,-3.0646,-1.5048,13.544,1352,3002.7
23714,-5.7281,1.6843,9.1327,1365,3001.95
23719,1.6891,3.5207,8.7233,1357,3001.95
23724,3.5542,2.5642,12.0835,1365,3001.95
23729,-3.1244,-1.4832,13.55,1354,3001.95
23734,-5.7078,1.7669,9.1159,1364,3003.3
23739,1.7011,3.4752,8.7041,1357,3003.3
23744,3.5147,2.4708,12.135,1368,3003.3
23749,-3.1173,-1.5131,13.5189,1355,3003.3
23754,-5.6491,1.7741,9.1087,1367,3002.85
23759,1.7178,3.541,8.7233,1358,3002.85
23764,3.5219,2.4972,12.0955,1364,3002.85
23769,-3.1388,-1.5395,13.4997,1355,3002.85
23774,-5.6276,1.7322,9.0992,1369,3003.15
23779,1.7466,3.4752,8.7448,1355,3003.15
23784,3.5099,2.4313,12.1242,1369,3003.15
23789,-3.207,-1.5383,13.4961,1355,3003.15
23794,-5.624,1.7478,9.0597,1365,3003.15
23799,1.7561,3.5338,8.7424,1355,3003.15
23804,3.4716,2.4397,12.1278,1365,3003.15
23809,-3.2346,-1.5814,13.4638,1355,3003.15
23814,-5.5809,1.7681,8.9783,1365,3003.45
23819,1.7502,3.5111,8.7604,1357,3003.45
23824,3.4919,2.3918,12.1242,1365,3003.45
23829,-3.2836,-1.5945,13.5344,1368,3003.45
23834,-5.5929,1.8088,8.9926,1365,3003.15
23839,1.7777,3.486,8.7352,1355,3003.15
23844,3.4165,2.4014,12.1865,1367,3003.15
23849,-3.3184,-1.6005,13.453,1357,3003.15
23854,-5.5174,1.8208,9.0225,1368,3003.3
23859,1.7621,3.4979,8.7759,1353,3003.3
23864,3.3639,2.3954,12.208,1369,3003.3
23869,-3.4189,-1.6269,13.4746,1359,3003.3
23874,-5.539,1.8148,8.9471,1367,3003.45
23879,1.798,3.5255,8.7987,1353,3003.45
23884,3.3495,2.3391,12.2044,1368,3003.45
23889,-3.4333,-1.5886,13.4961,1356,3003.45
23894,-5.4935,1.8747,8.9136,1365,3003.6
23899,1.81,3.5386,8.8765,1355,3003.6
23904,3.3339,2.32,12.2499,1368,3003.6
23909,-3.5231,-1.6053,13.4626,1363,3003.6
23914,-5.4181,1.895,8.8957,1367,3003.15
23919,1.822,3.5829,8.8753,1355,3003.15
23924,3.3184,2.3188,12.2727,1365,3003.15
23929,-3.4824,-1.6376,13.4686,1361,3003.15
23934,-5.363,1.8878,8.8777,1367,3003.0
23939,1.8759,3.5566,8.8753,1356,3003.0
23944,3.2633,2.2697,12.3002,1365,3003.0
23949,-3.462,-1.6149,13.4195,1364,3003.0
23954,-5.3367,1.8926,8.8705,1368,3001.8
23959,1.8771,3.5841,8.8669,1356,3001.8
23964,3.2693,2.211,12.293,1359,3001.8
23969,-3.4943,-1.6257,13.4243,1364,3001.8
23974,-5.3079,1.9632,8.8454,1369,3000.9
23979,1.901,3.5865,8.9184,1355,3000.9
23984,3.237,2.2302,12.2667,1363,3000.9
23989,-3.4572,-1.6388,13.3991,1361,3000.9
23994,-5.302,1.8878,8.8298,1368,3000.45
23999,1.913,3.5961,8.934,1353,3000.45
24004,3.225,2.2661,12.3218,1363,3000.45
24009,-3.456,-1.658,13.3944,1363,3000.45
24014,-5.2972,1.8699,8.8394,1367,3000.3
24019,1.9022,3.5506,8.9388,1357,3000.3
24024,3.2214,2.2098,12.2775,1363,3000.3
24029,-3.4848,-1.67,13.3189,1363,3000.3
24034,-5.2912,1.8974,8.7855,1367,3000.0
24039,1.8914,3.565,8.9423,1357,3000.0
24044,3.2046,2.2673,12.3206,1369,3000.0
24049,-3.48,-1.6568,13.3872,1363,3000.0
24054,-5.29,1.8651,8.7783,1371,3000.3
24059,1.8699,3.5554,8.9352,1355,3000.3
24064,3.1939,2.1883,12.299,1365,3000.3
24069,-3.4943,-1.6831,13.3896,1366,3000.3
24074,-5.3044,1.9058,8.8753,1368,3000.45
24079,1.8328,3.571,8.9842,1355,3000.45
24084,3.2142,2.2338,12.3349,1363,3000.45
24089,-3.5111,-1.6508,13.3513,1363,3000.45
24094,-5.3079,1.9106,8.8095,1367,3000.75
24099,1.8627,3.5793,8.9052,1357,3000.75
24104,3.1639,2.1739,12.2835,1366,3000.75
24109,-3.5494,-1.6604,13.3752,1365,3000.75
24114,-5.2517,1.9537,8.77,1367,3000.75
24119,1.8567,3.5829,8.9232,1358,3000.75
24124,3.158,2.2398,12.3146,1365,3000.75
24129,-3.6093,-1.634,13.3441,1363,3000.75
24134,-5.2852,1.9716,8.8322,1367,3001.05
24139,1.907,3.5961,8.9771,1357,3001.05
24144,3.1508,2.1883,12.3182,1363,3001.05
24149,-3.5913,-1.658,13.3381,1364,3001.05
24154,-5.2265,1.9704,8.7819,1367,3001.2
24159,1.9094,3.6679,8.9902,1357,3001.2
24164,3.134,2.211,12.3134,1363,3001.2
24169,-3.5901,-1.646,13.3537,1364,3001.2
24174,-5.2493,1.9764,8.7831,1365,3002.25
24179,1.9285,3.62,8.9627,1357,3002.25
24184,3.1556,2.1237,12.3804,1365,3002.25
24189,-3.6404,-1.6209,13.3884,1365,3002.25
24194,-5.2062,1.9537,8.7424,1368,3003.15
24199,2.0039,3.6643,8.9795,1357,3003.15
24204,3.128,2.1332,12.372,1362,3003.15
24209,-3.6583,-1.6723,13.3788,1359,3003.15
24214,-5.1547,1.9752,8.6586,1365,3003.15
24219,2.0051,3.62,8.9376,1359,3003.15
24224,3.0993,2.1081,12.4151,1362,3003.15
24229,-3.7146,-1.7214,13.3405,1364,3003.15
24234,-5.1368,1.9752,8.6143,1365,3003.0
24239,1.9812,3.6308,8.9902,1357,3003.0
24244,3.1149,2.138,12.4139,1359,3003.0
24249,-3.7661,-1.7142,13.3106,1365,3003.0
24254,-5.0901,1.9932,8.6586,1363,3002.55
24259,1.98,3.6188,9.068,1358,3002.55
24264,3.0287,2.0806,12.4271,1363,3002.55
24269,-3.7373,-1.719,13.2926,1339,3002.55
24274,-4.9991,1.9537,8.6491,1305,3002.55
24279,1.98,3.6308,8.995,1311,3002.55
24284,3.0191,2.1117,12.3912,1301,3002.55
24289,-3.7864,-1.7561,13.3177,1365,3002.55
24294,-5.017,2.0099,8.6191,1363,3002.4
24299,1.9944,3.5973,9.0609,1367,3002.4
24304,2.9568,2.0039,12.3816,1369,3002.4
24309,-3.8104,-1.7526,13.2076,1373,3002.4
24314,-4.9548,2.0039,8.5868,1367,3002.7
24319,1.998,3.6452,9.0944,1369,3002.7
24324,2.97,2.059,12.4606,1373,3002.7
24329,-3.8714,-1.7166,13.2603,1379,3002.7
24334,-4.9333,2.0423,8.5988,1373,3002.4
24339,2.0183,3.6619,9.1602,1375,3002.4
24344,2.8778,2.0016,12.5528,1375,3002.4
24349,-14.7112,-0.0012,-0.0012,1383,3002.4
24354,-4.9488,2.083,8.5653,1387,3001.35
24359,2.0399,3.7002,9.092,1379,3001.35
24364,2.824,1.9968,12.5301,1381,3001.35
24369,-3.8726,-1.6616,13.2675,1389,3001.35
24374,-4.8782,2.1177,8.5928,1375,3002.4
24379,2.0782,3.705,9.1423,1371,3002.4
24384,2.8383,1.9836,12.4666,1367,3002.4
24389,-3.893,-1.6807,13.2208,1379,3002.4
24394,-4.859,2.0758,8.5736,1367,3002.1
24399,2.0997,3.7194,9.1255,1365,3002.1
24404,2.8311,1.9477,12.5157,1355,3002.1
24409,-3.9109,-1.6999,13.2196,1357,3002.1
24414,-4.8183,2.0758,8.5066,1342,3002.1
24419,2.0961,3.6883,9.1518,1357,3002.1
24424,2.873,1.8818,12.487,1353,3002.1
24429,-3.9097,-1.7131,13.1932,1367,3002.1
24434,-4.8064,2.0794,8.4815,1359,3002.25
24439,2.0865,3.6955,9.1351,1355,3002.25
24444,2.9042,1.913,12.5313,1352,3002.25
24449,-3.9828,-1.7298,13.1741,1355,3002.25
24454,-4.7405,2.059,8.4898,1355,3002.4
24459,2.1237,3.6691,9.1087,1353,3002.4
24464,2.8024,1.8818,12.548,1350,3002.4
24469,-3.954,-1.743,13.1645,1363,3002.4
24474,-4.7333,2.0877,8.4695,1353,3002.1
24479,2.1272,3.6943,9.1267,1356,3002.1
24484,2.7629,1.8711,12.5708,1353,3002.1
24489,-4.0235,-1.749,13.0939,1359,3002.1
24494,-4.7094,2.1069,8.4551,1355,3002.1
24499,2.1177,3.6655,9.1734,1359,3002.1
24504,2.6983,1.8627,12.566,1353,3002.1
24509,-4.0498,-1.731,13.1597,1359,3002.1
24514,-4.6735,2.1117,8.4599,1363,3000.9
24519,2.1045,3.6787,9.159,1358,3000.9
24524,2.6468,1.8531,12.5624,1351,3000.9
24529,-4.0342,-1.7478,13.1238,1363,3000.9
24534,-4.6388,2.1548,8.4384,1351,3000.6
24539,2.0614,3.6643,9.2213,1358,3000.6
24544,2.63,1.8364,12.6019,1352,3000.6
24549,-4.0666,-1.737,13.0999,1365,3000.6
24554,-4.6531,2.0973,8.4671,1363,3000.0
24559,2.1069,3.7158,9.2356,1359,3000.0
24564,2.5977,1.8687,12.6546,1352,3000.0
24569,-4.0785,-1.7071,13.1478,1363,3000.0
24574,-4.6112,2.1165,8.4384,1359,2999.4
24579,2.162,3.723,9.2117,1354,2999.4
24584,2.5702,1.8507,12.5588,1351,2999.4
24589,-4.0007,-1.6975,13.1693,1363,2999.4
24594,-4.6196,2.132,8.4671,1356,2999.85
24599,2.132,3.735,9.183,1362,2999.85
24604,2.6552,1.8579,12.5684,1355,2999.85
24609,-4.0881,-1.7059,13.1071,1363,2999.85
24614,-4.6436,2.1452,8.4192,1361,2999.4
24619,2.132,3.711,9.2392,1355,2999.4
24624,2.6324,1.8399,12.5815,1355,2999.4
24629,-4.0103,-1.7454,13.0927,1365,2999.4
24634,-4.6064,2.1057,8.4204,1363,2998.8
24639,2.1596,3.7134,9.2105,1359,2998.8
24644,2.6839,1.8723,12.6007,1355,2998.8
24649,-4.0055,-1.7214,13.1238,1365,2998.8
24654,-4.6711,2.0973,8.4743,1359,2998.95
24659,2.1332,3.7565,9.2428,1359,2998.95
24664,2.6971,1.8268,12.5396,1356,2998.95
24669,-3.9744,-1.7813,13.0352,1365,2998.95
24674,-4.6376,2.0818,8.4144,1353,2999.7
24679,2.1021,3.6943,9.2404,1359,2999.7
24684,2.6779,1.8567,12.5636,1357,2999.7
24689,-3.9959,-1.7765,13.1274,1365,2999.7
24694,-4.6771,2.1177,8.4563,1357,2999.55
24699,2.1045,3.6955,9.2009,1358,2999.55
24704,2.6815,1.8483,12.548,1351,2999.55
24709,-4.027,-1.7717,13.0891,1334,2999.55
24714,-4.6651,2.0973,8.4467,1341,2999.85
24719,2.1033,3.6476,9.2201,1359,2999.85
24724,2.6169,1.816,12.6139,1353,2999.85
24729,-4.0654,-1.7741,13.1418,1358,2999.85
24734,-4.6483,2.144,8.4408,1349,2999.7
24739,2.0542,3.729,9.2069,1351,2999.7
24744,2.636,1.8268,12.5708,1338,2999.7
24749,-4.0689,-1.7657,13.0903,1355,2999.7
24754,-4.6507,2.1129,8.4001,1353,2999.4
24759,2.1105,3.6847,9.2213,1369,2999.4
24764,2.5929,1.8507,12.5947,1359,2999.4
24769,-4.0558,-1.7406,13.1585,1367,2999.4
24774,-4.622,2.1632,8.4587,1355,2999.55
24779,2.1093,3.705,9.1901,1357,2999.55
24784,2.5917,1.8136,12.5851,1351,2999.55
24789,-4.0378,-1.7226,13.0604,1369,2999.55
24794,-4.6112,2.1272,8.4432,1365,2999.4
24799,2.1141,3.7445,9.1901,1367,2999.4
24804,2.6264,1.8232,12.6091,1364,2999.4
24809,-4.1025,-1.6616,13.1274,1368,2999.4
24814,-4.6507,2.1691,8.4539,1361,2999.7
24819,2.1536,3.7481,9.2141,1369,2999.7
24824,2.6109,1.8483,12.5815,1365,2999.7
24829,-4.0869,-1.6676,13.1334,1374,2999.7
24834,-4.6268,2.1344,8.4168,1369,3000.45
24839,2.1656,3.7362,9.2021,1368,3000.45
24844,2.6827,1.8411,12.5995,1365,3000.45
24849,-4.0474,-1.7238,13.1322,1373,3000.45
24854,-4.5801,2.0997,8.4216,1367,3000.9
24859,2.2158,3.7206,9.2153,1380,3000.9
24864,2.6312,1.7538,12.5983,1365,3000.9
24869,-4.0785,-1.7693,13.1226,1373,3000.9
24874,-4.6112,2.1261,8.406,1371,3000.45
24879,2.1751,3.7326,9.2524,1367,3000.45
24884,2.6252,1.7885,12.5588,1359,3000.45
24889,-4.0498,-1.7238,13.0831,1373,3000.45
24894,-4.5669,2.1189,8.4001,1365,3000.6
24899,2.1668,3.7014,9.2464,1368,3000.6
24904,2.5881,1.804,12.6258,1363,3000.6
24909,-4.1096,-1.7669,13.0963,1373,3000.6
24914,-4.5586,2.132,8.3761,1356,3000.45
24919,2.1811,3.7182,9.2296,1367,3000.45
24924,2.5498,1.7933,12.6091,1366,3000.45
24929,-4.1025,-1.7657,13.1286,1374,3000.45
24934,-4.5394,2.1512,8.3749,1365,3000.15
24939,2.0973,3.6799,9.2596,1371,3000.15
24944,2.4828,1.7813,12.6079,1359,3000.15
24949,-4.1288,-1.7849,13.0652,1375,3000.15
24954,-4.5466,2.1416,8.345,1369,3001.05
24959,2.1249,3.6871,9.2584,1370,3001.05
24964,2.4876,1.8088,12.6845,1367,3001.05
24969,-4.1767,-1.7166,13.0508,1374,3001.05
24974,-4.5346,2.1859,8.4144,1373,3000.9
24979,2.138,3.7134,9.2739,1375,3000.9
24984,2.4696,1.7765,12.6653,1367,3000.9
24989,-4.1384,-1.7059,13.034,1377,3000.9
24994,-4.5095,2.1488,8.3677,1372,3001.05
24999,2.1775,3.7362,9.2392,1373,3001.05
25004,2.5331,1.8052,12.6378,1363,3001.05
25009,-4.1635,-1.737,13.0819,1378,3001.05
25014,-4.4903,2.1871,8.3833,1375,3001.35
25019,2.1799,3.7637,9.3194,1370,3001.35
25024,2.4983,1.7478,12.6953,1366,3001.35
25029,-4.1875,-1.7394,13.0508,1372,3001.35
25034,-4.4424,2.1931,8.2887,1371,3001.65
25039,2.2087,3.7254,9.2644,1368,3001.65
25044,2.5355,1.6915,12.6749,1363,3001.65
25049,-4.197,-1.7226,13.1095,1371,3001.65
25054,-4.4317,2.2051,8.3546,1369,3001.95
25059,2.2625,3.8092,9.3063,1367,3001.95
25064,2.4792,1.6927,12.6426,1363,3001.95
25069,-4.2042,-1.7442,13.0496,1369,3001.95
25074,-4.3958,2.1572,8.3498,1370,3002.25
25079,2.2338,3.7302,9.2859,1367,3002.25
25084,2.4445,1.6628,12.7132,1363,3002.25
25089,-4.1934,-1.7454,13.0436,1372,3002.25
25094,-4.3179,2.1967,8.3043,1373,3002.4
25099,2.2685,3.7397,9.2285,1375,3002.4
25104,2.4612,1.6999,12.6917,1371,3002.4
25109,-4.2449,-1.7753,13.0257,1385,3002.4
25114,-4.3359,2.1668,8.3139,1381,3002.4
25119,2.2577,3.7254,9.3111,1383,3002.4
25124,2.3655,1.6652,12.7036,1375,3002.4
25129,-4.3096,-1.7454,12.9838,1384,3002.4
25134,-4.2904,2.2122,8.2576,1383,3001.35
25139,2.2613,3.7769,9.2847,1383,3001.35
25144,2.2805,1.6891,12.6941,1379,3001.35
25149,-4.3024,-1.7549,13.0041,1387,3001.35
25154,-4.2629,2.2146,8.2696,1383,3001.05
25159,2.2422,3.7733,9.329,1383,3001.05
25164,2.2793,1.6352,12.7324,1367,3001.05
25169,-4.3108,-1.7178,13.0185,1387,3001.05
25174,-4.2425,2.2505,8.2528,1384,3000.3
25179,2.2505,3.7745,9.3374,1385,3000.3
25184,2.2242,1.6592,12.7659,1379,3000.3
25189,-4.3598,-1.7166,12.9454,1383,3000.3
25194,-4.2198,2.2051,8.2456,1381,3001.2
25199,2.2051,3.7565,9.3829,1381,3001.2
25204,2.2697,1.6137,12.7276,1369,3001.2
25209,-4.3323,-1.7059,12.9658,1380,3001.2
25214,-4.1815,2.229,8.2313,1389,3001.5
25219,2.2841,3.8068,9.3793,1381,3001.5
25224,2.2996,1.6376,12.7791,1375,3001.5
25229,-4.3826,-1.7047,12.9239,1383,3001.5
25234,-4.1899,2.235,8.2588,1386,3001.35
25239,2.2434,3.7972,9.3625,1379,3001.35
25244,2.235,1.5502,12.7743,1373,3001.35
25249,-4.3515,-1.6855,12.949,1387,3001.35
25254,-4.1575,2.2362,8.2085,1387,3001.95
25259,2.2948,3.7972,9.4296,1382,3001.95
25264,2.2697,1.6029,12.7671,1379,3001.95
25269,-4.4209,-1.7202,12.9586,1385,3001.95
25274,-4.1503,2.2446,8.2253,1387,3002.1
25279,2.3523,3.8176,9.4212,1384,3002.1
25284,2.2661,1.5718,12.7647,1379,3002.1
25289,-4.373,-1.7502,12.8928,1383,3002.1
25294,-4.0761,2.223,8.2025,1385,3001.8
25299,2.326,3.8319,9.4236,1383,3001.8
25304,2.1835,1.5622,12.815,1373,3001.8
25309,-4.4233,-1.7298,12.9047,1385,3001.8
25314,-4.0486,2.2051,8.1726,1385,3001.8
25319,2.326,3.7529,9.4212,1384,3001.8
25324,2.1644,1.5323,12.7599,1379,3001.8
25329,-4.4879,-1.7214,12.9155,1382,3001.8
25334,-4.0318,2.296,8.2253,1385,3001.35
25339,2.3188,3.8068,9.4535,1385,3001.35
25344,2.0937,1.5048,12.7982,1375,3001.35
25349,-4.4568,-1.7095,12.8628,1386,3001.35
25354,-3.9899,2.2422,8.1307,1391,3002.25
25359,2.3499,3.7661,9.4164,1387,3002.25
25364,2.0674,1.4844,12.7814,1375,3002.25
25369,-4.5143,-1.6544,12.8353,1383,3002.25
25374,-4.0007,2.2733,8.1762,1391,3002.25
25379,2.3272,3.8331,9.4595,1385,3002.25
25384,2.0686,1.5143,12.7838,1375,3002.25
25389,-4.5322,-1.6771,12.8485,1383,3002.25
25394,-3.9313,2.2745,8.1654,1383,3002.4
25399,2.314,3.8056,9.481,1389,3002.4
25404,2.0315,1.4509,12.8269,1381,3002.4
25409,-4.5837,-1.6568,12.9047,1381,3002.4
25414,-3.9085,2.3403,8.1558,1391,3003.0
25419,2.3331,3.8259,9.4391,1383,3003.0
25424,2.0315,1.4629,12.8317,1380,3003.0
25429,-4.5909,-1.6759,12.8904,1381,3003.0
25434,-3.8523,2.2972,8.0888,1387,3003.15
25439,2.3978,3.8319,9.4894,1383,3003.15
25444,1.9788,1.3815,12.9012,1381,3003.15
25449,-4.6172,-1.6664,12.8676,1381,3003.15
25454,-3.8355,2.3331,8.1187,1381,3002.85
25459,2.399,3.8834,9.4798,1385,3002.85
25464,1.919,1.3934,12.888,1380,3002.85
25469,-4.6519,-1.6712,12.8281,1385,3002.85
25474,-3.7529,2.3152,8.0996,1385,3003.75
25479,2.46,3.8678,9.505,1384,3003.75
25484,1.9106,1.3803,12.9694,1379,3003.75
25489,-4.6388,-1.67,12.8581,1383,3003.75
25494,-3.7002,2.3391,8.084,1385,3003.3
25499,2.4864,3.8918,9.5349,1385,3003.3
25504,1.834,1.3815,12.949,1381,3003.3
25509,-4.6459,-1.6448,12.8293,1381,3003.3
25514,-3.6524,2.308,8.0924,1387,3003.0
25519,2.4373,3.863,9.4966,1379,3003.0
25524,1.8004,1.3503,12.9514,1381,3003.0
25529,-4.7453,-1.6352,12.73,1380,3003.0
25534,-3.5554,2.3475,8.0313,1389,3003.75
25539,2.5067,3.8583,9.5708,1382,3003.75
25544,1.6903,1.3479,12.955,1387,3003.75
25549,-4.7262,-1.6149,12.6749,1373,3003.75
25554,-3.5398,2.2913,8.0062,1389,3003.45
25559,2.4756,3.8247,9.5876,1381,3003.45
25564,1.6939,1.2965,12.9742,1380,3003.45
25569,-4.7669,-1.5694,12.6953,1382,3003.45
25574,-3.4692,2.3463,7.9787,1387,3003.75
25579,2.4948,3.7972,9.5804,1379,3003.75
25584,1.6975,1.2953,12.9802,1373,3003.75
25589,-4.8147,-1.6113,12.6881,1384,3003.75
25594,-3.4405,2.3343,7.9811,1388,3003.15
25599,2.5223,3.8295,9.5828,1383,3003.15
25604,1.6077,1.1923,12.9993,1383,3003.15
25609,-4.8291,-1.6041,12.6162,1381,3003.15
25614,-3.3495,2.375,7.9476,1395,3004.36
25619,2.5139,3.8774,9.6187,1385,3004.36
25624,1.5921,1.2522,13.0209,1380,3004.36
25629,-4.9297,-1.5838,12.6079,1379,3004.36
25634,-3.304,2.3667,7.9595,1396,3004.06
25639,2.5498,3.8415,9.6175,1387,3004.06
25644,1.5335,1.154,13.0017,1373,3004.06
25649,-4.9165,-1.5802,12.639,1381,3004.06
25654,-3.2573,2.4122,7.9511,1389,3003.6
25659,2.545,3.8906,9.6546,1384,3003.6
25664,1.5191,1.2115,13.0149,1381,3003.6
25669,-4.9392,-1.5562,12.5791,1381,3003.6
25674,-3.2178,2.3703,7.9009,1391,3003.6
25679,2.6264,3.8487,9.6642,1386,3003.6
25684,1.4557,1.1504,13.04,1373,3003.6
25689,-4.9955,-1.5586,12.5636,1379,3003.6
25694,-3.146,2.3954,7.9344,1392,3003.15
25699,2.6432,3.9397,9.6989,1385,3003.15
25704,1.4126,1.1624,13.0867,1381,3003.15
25709,-4.9895,-1.5095,12.5468,1380,3003.15
25714,-3.0933,2.4181,7.9392,1391,3003.0
25719,2.6396,3.869,9.681,1387,3003.0
25724,1.3396,1.1049,13.0783,1379,3003.0
25729,-5.0099,-1.482,12.5408,1379,3003.0
25734,-3.0538,2.4313,7.8829,1389,3002.25
25739,2.6971,3.9109,9.7145,1382,3002.25
25744,1.3324,1.1313,13.0987,1379,3002.25
25749,-4.9752,-1.4533,12.5073,1379,3002.25
25754,-3.0442,2.3882,7.8805,1389,3001.95
25759,2.6564,3.8918,9.7181,1385,3001.95
25764,1.2869,1.0523,13.1023,1379,3001.95
25769,-4.9763,-1.4796,12.4786,1381,3001.95
25774,-2.9736,2.4517,7.8961,1391,3001.95
25779,2.6779,3.9025,9.6965,1385,3001.95
25784,1.3168,1.0918,13.125,1380,3001.95
25789,-5.0458,-1.4509,12.4187,1379,3001.95
25794,-2.9628,2.4289,7.853,1392,3001.8
25799,2.7114,3.8595,9.7229,1389,3001.8
25804,1.2186,1.0187,13.1023,1381,3001.8
25809,-5.0482,-1.4353,12.4271,1379,3001.8
25814,-2.9102,2.4421,7.8518,1395,3001.8
25819,2.6492,3.8415,9.7217,1387,3001.8
25824,1.2246,1.0678,13.0903,1385,3001.8
25829,-5.0542,-1.4641,12.4127,1377,3001.8
25834,-2.8683,2.4433,7.8243,1397,3001.95
25839,2.7043,3.8307,9.7815,1391,3001.95
25844,1.1564,1.002,13.1394,1383,3001.95
25849,-5.0949,-1.4641,12.4032,1383,3001.95
25854,-2.8323,2.4541,7.847,1400,3001.95
25859,2.6779,3.8726,9.7444,1395,3001.95
25864,1.1301,1.0247,13.1023,1387,3001.95
25869,-5.0721,-1.4545,12.3996,1389,3001.95
25874,-2.8359,2.4385,7.8434,1391,3001.8
25879,2.7019,3.8762,9.7935,1397,3001.8
25884,1.1396,0.9732,13.1549,1387,3001.8
25889,-5.187,-1.4305,12.39,1386,3001.8
25894,-2.7773,2.4493,7.8147,1401,3001.95
25899,2.7198,3.9205,9.7923,1395,3001.95
25904,1.0942,1.0235,13.1561,1388,3001.95
25909,-5.1703,-1.397,12.396,1390,3001.95
25914,-2.7354,2.4397,7.8171,1399,3001.8
25919,2.7198,3.8978,9.8282,1399,3001.8
25924,1.069,0.972,13.143,1389,3001.8
25929,-5.1906,-1.3982,12.3349,1389,3001.8
25934,-2.7366,2.466,7.8398,1403,3001.8
25939,2.7366,3.9085,9.815,1401,3001.8
25944,1.087,0.9637,13.149,1384,3001.8
25949,-5.1799,-1.3192,12.3397,1389,3001.8
25954,-2.6767,2.4565,7.8326,1407,3002.25
25959,2.8096,3.899,9.8497,1403,3002.25
25964,1.0439,0.9577,13.1561,1387,3002.25
25969,-5.1643,-1.336,12.2882,1387,3002.25
25974,-2.6049,2.4445,7.8219,1402,3002.1
25979,2.8,3.9169,9.8725,1399,3002.1
25984,1.0511,0.9613,13.1645,1386,3002.1
25989,-5.2098,-1.3072,12.3505,1385,3002.1
25994,-2.6121,2.4708,7.8554,1404,3001.8
25999,2.8156,3.8858,9.7935,1399,3001.8
26004,1.0056,0.917,13.1597,1385,3001.8
26009,-5.2098,-1.3336,12.2499,1389,3001.8
26014,-2.551,2.484,7.7764,1405,3001.65
26019,2.7988,3.8798,9.8665,1399,3001.65
26024,1.0104,0.9242,13.2363,1388,3001.65
26029,-5.2349,-1.324,12.2583,1389,3001.65
26034,-2.5367,2.478,7.7824,1402,3001.95
26039,2.788,3.8894,9.8414,1399,3001.95
26044,0.9756,0.8499,13.2076,1388,3001.95
26049,-5.266,-1.306,12.202,1389,3001.95
26054,-2.4792,2.4636,7.75,1404,3002.25
26059,2.7964,3.8523,9.8928,1397,3002.25
26064,0.9158,0.8523,13.2591,1391,3002.25
26069,-5.29,-1.3228,12.2212,1389,3002.25
26074,-2.4409,2.4732,7.7847,1403,3002.55
26079,2.8264,3.8762,9.8545,1401,3002.55
26084,0.9062,0.8212,13.2375,1389,3002.55
26089,-5.3223,-1.3048,12.238,1389,3002.55
26094,-2.4313,2.5151,7.8039,1403,3002.55
26099,2.806,3.881,9.9,1400,3002.55
26104,0.8547,0.8643,13.2687,1386,3002.55
26109,-5.3965,-1.3001,12.1949,1391,3002.55
26114,-2.4026,2.5127,7.762,1404,3002.25
26119,2.8563,3.9002,9.8581,1403,3002.25
26124,0.7159,0.82,13.2974,1388,3002.25
26129,-5.3582,-1.2258,12.3062,1389,3002.25
26134,-2.3236,2.5307,7.7524,1402,3002.4
26139,2.8635,3.9576,9.9168,1400,3002.4
26144,0.7865,0.8655,13.3058,1390,3002.4
26149,-5.369,-1.2103,12.226,1391,3002.4
26154,-2.302,2.5127,7.7476,1399,3002.25
26159,2.9149,3.9181,9.918,1401,3002.25
26164,0.7123,0.8068,13.2878,1385,3002.25
26169,-5.3953,-1.1696,12.1961,1389,3002.25
26174,-2.211,2.4936,7.7309,1403,3001.95
26179,2.909,3.9385,9.8952,1403,3001.95
26184,2.2398,1.5814,12.7898,1389,3001.95
26189,-4.3874,-1.6867,12.9323,1391,3001.95
26194,-4.1132,2.217,8.2145,1403,3002.4
26199,2.3224,3.7613,9.3661,1401,3002.4
26204,2.2422,1.5646,12.8425,1391,3002.4
26209,-4.4233,-1.7418,12.8449,1391,3002.4
26214,-4.0929,2.2254,8.1427,1404,3001.95
26219,2.3367,3.7745,9.3613,1403,3001.95
26224,2.1739,1.5838,12.7635,1395,3001.95
26229,-4.3993,-1.7585,12.9143,1384,3001.95
26234,-4.0414,2.2565,8.1954,1405,3001.95
26239,2.2889,3.7649,9.3865,1401,3001.95
26244,2.1512,1.5012,12.8293,1397,3001.95
26249,-4.4688,-1.7322,12.9215,1389,3001.95
26254,-4.0139,2.2278,8.1918,1400,3002.25
26259,2.3296,3.7828,9.3709,1403,3002.25
26264,2.1392,1.5275,12.8521,1388,3002.25
26269,-4.5155,-1.7274,12.9,1395,3002.25
26274,-4.0211,2.2505,8.1558,1404,3002.55
26279,2.2948,3.7936,9.4415,1403,3002.55
26284,2.0949,1.494,12.8389,1397,3002.55
26289,-4.5574,-1.7142,12.9036,1395,3002.55
26294,-3.9923,2.2685,8.175,1401,3002.85
26299,2.3308,3.802,9.4032,1401,3002.85
26304,2.0818,1.5479,12.8712,1395,3002.85
26309,-4.5849,-1.6939,12.9251,1395,3002.85
26314,-3.9157,2.2948,8.2025,1403,3002.85
26319,2.3547,3.8211,9.4535,1403,3002.85
26324,1.974,1.4868,12.9155,1395,3002.85
26329,-4.6052,-1.6747,12.8473,1391,3002.85
26334,-3.8954,2.2577,8.1319,1403,3003.0
26339,2.381,3.8547,9.4403,1400,3003.0
26344,2.0243,1.4557,12.8521,1397,3003.0
26349,-4.6029,-1.6328,12.8748,1395,3003.0
26354,-3.8271,2.3068,8.1211,1404,3002.85
26359,2.4361,3.8427,9.432,1399,3002.85
26364,1.9644,1.4186,12.9083,1396,3002.85
26369,-4.6256,-1.6161,12.7922,1392,3002.85
26374,-3.7649,2.2924,8.0673,1406,3003.0
26379,2.4397,3.8403,9.4631,1397,3003.0
26384,1.9585,1.4509,12.9742,1395,3003.0
26389,-4.6783,-1.6388,12.7946,1391,3003.0
26394,-3.7122,2.3379,8.0038,1403,3002.7
26399,2.4732,3.8463,9.4224,1399,3002.7
26404,1.8986,1.3767,12.9179,1395,3002.7
26409,-4.6412,-1.6771,12.7958,1391,3002.7
26414,-3.6368,2.296,8.0732,1405,3002.7
26419,2.4732,3.8188,9.5325,1399,3002.7
26424,1.8483,1.3898,12.9347,1395,3002.7
26429,-4.6795,-1.6652,12.7048,1391,3002.7
26434,-3.5889,2.3487,8.0074,1403,3002.25
26439,2.4588,3.8056,9.499,1397,3002.25
26444,1.7837,1.3036,12.9275,1397,3002.25
26449,-4.689,-1.6963,12.7695,1391,3002.25
26454,-3.6416,2.308,7.999,1404,3002.7
26459,2.4433,3.796,9.4619,1396,3002.7
26464,1.7657,1.336,13.0209,1397,3002.7
26469,-4.7369,-1.664,12.7108,1391,3002.7
26474,-3.5757,2.3044,7.999,1407,3003.0
26479,2.496,3.796,9.4978,1395,3003.0
26484,1.7059,1.3192,12.9957,1400,3003.0
26489,-4.7932,-1.664,12.7982,1391,3003.0
26494,-3.5686,2.3487,7.9906,1403,3003.15
26499,2.4349,3.8451,9.5373,1397,3003.15
26504,1.6783,1.3192,12.9802,1398,3003.15
26509,-4.8507,-1.6185,12.6725,1392,3003.15
26514,-3.4836,2.3822,7.9667,1407,3003.75
26519,2.4624,3.8846,9.5792,1399,3003.75
26524,1.5957,1.3012,13.1202,1397,3003.75
26529,-4.8961,-1.6053,12.7336,1396,3003.75
26534,-3.4333,2.3451,7.9787,1415,3004.06
26539,2.5738,3.9361,9.6007,1397,3004.06
26544,1.6293,1.2701,13.0221,1398,3004.06
26549,-4.8698,-1.5766,12.6617,1389,3004.06
26554,-3.3579,2.3942,7.9835,1407,3004.06
26559,2.5821,3.8726,9.5553,1396,3004.06
26564,1.5383,1.2474,13.0388,1397,3004.06
26569,-4.9225,-1.5311,12.621,1392,3004.06
26574,-3.2765,2.4086,7.9392,1406,3003.6
26579,2.5941,3.9121,9.5996,1397,3003.6
26584,1.5131,1.2031,13.052,1397,3003.6
26589,-4.9033,-1.5538,12.615,1389,3003.6
26594,-3.2262,2.411,7.9296,1417,3003.45
26599,2.6372,3.8894,9.6199,1397,3003.45
26604,1.5071,1.1684,13.0448,1401,3003.45
26609,-4.9273,-1.5419,12.5468,1391,3003.45
26614,-3.1687,2.4026,7.8793,1406,3003.3
26619,2.6504,3.8487,9.651,1396,3003.3
26624,1.4497,1.1492,13.0747,1397,3003.3
26629,-4.9512,-1.5095,12.566,1395,3003.3
26634,-3.0969,2.4445,7.8721,1405,3003.0
26639,2.6217,3.8607,9.681,1396,3003.0
26644,1.3994,1.136,13.0783,1397,3003.0
26649,-4.9871,-1.5682,12.4726,1396,3003.0
26654,-3.0837,2.3559,7.8733,1405,3003.0
26659,2.648,3.8391,9.6331,1399,3003.0
26664,1.3803,1.1085,13.0688,1399,3003.0
26669,-5.0554,-1.5251,12.5205,1399,3003.0
26674,-3.0382,2.3858,7.8757,1399,3003.45
26679,2.624,3.8834,9.651,1391,3003.45
26684,1.2821,1.081,13.0915,1401,3003.45
26689,-5.0182,-1.5215,12.451,1397,3003.45
26694,-2.9772,2.3942,7.8494,1413,3003.6
26699,2.6169,3.8642,9.6666,1399,3003.6
26704,1.2653,1.0487,13.1525,1401,3003.6
26709,-5.1475,-1.4856,12.4822,1399,3003.6
26714,-2.9437,2.472,7.8458,1406,3003.6
26719,2.6576,3.8774,9.7217,1397,3003.6
26724,1.1971,1.0451,13.1406,1401,3003.6
26729,-5.1715,-1.47,12.4678,1397,3003.6
26734,-2.8898,2.4337,7.8266,1413,3003.6
26739,2.6552,3.8858,9.7755,1397,3003.6
26744,1.1277,1.0379,13.1861,1398,3003.6
26749,-5.1547,-1.409,12.4894,1400,3003.6
26754,-2.818,2.4457,7.8219,1415,3003.75
26759,2.7545,3.9708,9.7324,1398,3003.75
26764,1.1265,0.9924,13.1681,1401,3003.75
26769,-5.2253,-1.4006,12.4008,1397,3003.75
26774,-2.7593,2.4349,7.8147,1415,3003.6
26779,2.7617,3.9265,9.7947,1404,3003.6
26784,1.0463,0.9493,13.2208,1397,3003.6
26789,-5.1918,-1.3922,12.3589,1397,3003.6
26794,-2.6719,2.5055,7.7835,1416,3003.15
26799,2.8359,3.9624,9.7791,1399,3003.15
26804,1.0127,0.9661,13.2339,1406,3003.15
26809,-5.1906,-1.3384,12.3936,1403,3003.15
26814,-2.6348,2.4864,7.8254,1407,3002.55
26819,2.7988,3.9133,9.833,1400,3002.55
26824,1.0307,0.917,13.1861,1392,3002.55
26829,-5.1799,-1.3862,12.3098,1399,3002.55
26834,-2.5582,2.484,7.7919,1414,3002.1
26839,2.8599,3.9109,9.8665,1399,3002.1
26844,0.9541,0.9038,13.2208,1399,3002.1
26849,-5.1811,-1.3431,12.3385,1403,3002.1
26854,-2.5391,2.4445,7.7728,1414,3001.5
