timestamp_ms,ax,ay,az,acs_adc,rpm
16039,1.4329,3.213,10.5141,1295,2829.65
16044,-1.1672,-0.5531,12.232,1293,2829.65
16049,-4.0211,-0.0371,11.0828,1298,2829.65
16054,0.3795,2.7246,9.5493,1295,2828.99
16059,1.7945,3.8271,10.2747,1291,2828.99
16064,-1.6867,0.5854,11.8705,1287,2828.99
16069,-3.553,-0.8787,11.813,1293,2828.99
16074,-0.8224,2.3272,9.3063,1287,2829.12
16079,1.6676,3.9564,10.2077,1277,2829.12
16084,-1.8004,1.4305,11.4275,1274,2829.12
16089,-2.6157,-1.4317,12.2451,1271,2829.12
16094,-2.3607,1.798,9.4583,1273,2829.25
16099,1.561,3.711,10.1359,1273,2829.25
16104,-0.3124,2.1967,10.9212,1277,2829.25
16109,-1.6496,-1.403,12.3936,1262,2829.25
16114,-3.5937,1.0367,10.1095,1259,2829.25
16119,1.2486,3.2585,10.0042,1257,2829.12
16124,1.3671,3.0849,10.5237,1255,2829.12
16129,-1.1181,-0.6488,12.2212,1255,2829.12
16134,-4.0294,0.067,10.9092,1255,2829.12
16139,0.5028,2.8276,9.6259,1259,2829.39
16144,1.7334,3.7637,10.3166,1255,2829.39
16149,-1.5706,0.419,11.9818,1251,2829.39
16154,-3.7074,-0.8679,11.7304,1263,2829.39
16159,-0.6704,2.4026,9.323,1257,2829.12
16164,1.6604,3.9792,10.1933,1255,2829.12
16169,-1.9345,1.3144,11.5125,1260,2829.12
16174,-2.8371,-1.3491,12.2188,1259,2829.12
16179,-2.0638,1.8878,9.4547,1269,2829.25
16184,1.6747,3.8152,10.2101,1263,2829.25
16189,-0.6488,2.0818,10.9607,1261,2829.25
16194,-1.7334,-1.4246,12.4247,1257,2829.25
16199,-3.4046,1.1313,9.9371,1261,2829.25
16204,1.3276,3.3387,9.9551,1259,2829.25
16209,1.1325,2.8994,10.5728,1262,2829.25
16214,-1.1444,-0.8535,12.323,1255,2829.25
16219,-4.0402,0.1867,10.7931,1262,2829.25
16224,0.6045,2.8431,9.5984,1258,2829.12
16229,1.7154,3.6631,10.3549,1263,2829.12
16234,-1.5263,0.2358,11.9854,1258,2829.12
16239,-3.7972,-0.6357,11.6454,1263,2829.12
16244,-0.3771,2.5211,9.3589,1261,2829.25
16249,1.7262,4.039,10.3082,1259,2829.25
16254,-2.0399,1.2378,11.5448,1273,2829.25
16259,-2.9006,-1.2318,12.1649,1270,2829.25
16264,-1.8064,1.9872,9.3482,1267,2829.39
16269,1.7083,3.869,10.2376,1263,2829.39
16274,-0.9122,1.9573,11.0145,1265,2829.39
16279,-1.9609,-1.5,12.4056,1263,2829.39
16284,-3.2765,1.2366,9.8378,1270,2829.39
16289,1.3503,3.3974,10.0281,1273,2829.52
16294,0.9122,2.7928,10.6745,1267,2829.52
16299,-1.2749,-0.9996,12.2763,1259,2829.52
16304,-4.0007,0.3484,10.6901,1259,2829.52
16309,0.8128,2.9497,9.6833,1259,2828.99
16314,1.7514,3.6344,10.3908,1263,2828.99
16319,-1.4066,0.0886,12.0416,1263,2828.99
16324,-3.8032,-0.5327,11.564,1260,2828.99
16329,-0.1856,2.49,9.3398,1257,2828.99
16334,1.7502,3.9756,10.3058,1259,2828.99
16339,-1.9812,1.0259,11.5712,1270,2828.99
16344,-3.1125,-1.2414,12.1003,1259,2828.99
16349,-1.5993,2.0339,9.3087,1259,2828.99
16354,1.658,3.8738,10.2292,1262,2828.99
16359,-1.2091,1.7693,11.1175,1259,2828.99
16364,-2.0973,-1.4617,12.4247,1261,2828.99
16369,-3.0777,1.4569,9.7743,1261,2829.12
16374,1.4653,3.5662,10.1275,1259,2829.12
16379,0.662,2.6432,10.6937,1272,2829.12
16384,-1.2761,-1.0702,12.3098,1259,2829.12
16389,-3.9049,0.486,10.5117,1269,2829.12
16394,0.8727,2.9939,9.7671,1261,2828.59
16399,1.67,3.4249,10.4471,1259,2828.59
16404,-1.2737,-0.1616,12.0728,1262,2828.59
16409,-3.9145,-0.4369,11.406,1264,2828.59
16414,-0.067,2.557,9.4044,1263,2827.79
16419,1.6927,3.9552,10.2615,1263,2827.79
16424,-1.9992,0.8871,11.6478,1267,2827.79
16429,-3.2489,-1.1145,12.0416,1266,2827.79
16434,-1.4246,2.1727,9.3386,1259,2827.52
16439,1.7095,3.978,10.2843,1261,2827.52
16444,-1.4293,1.743,11.1809,1263,2827.52
16449,-2.2242,-1.4796,12.3373,1271,2827.52
16454,-2.8563,1.5,9.6917,1267,2827.65
16459,1.5479,3.5386,10.1478,1259,2827.65
16464,0.4669,2.496,10.7081,1260,2827.65
16469,-1.3443,-1.2953,12.3026,1255,2827.65
16474,-3.8846,0.6165,10.4615,1272,2827.65
16479,0.9469,3.0382,9.8809,1263,2827.79
16484,1.5706,3.4129,10.4794,1259,2827.79
16489,-1.3012,-0.2406,12.0787,1261,2827.79
16494,-3.9744,-0.2155,11.3126,1261,2827.79
16499,0.17,2.6935,9.5373,1271,2827.79
16504,1.7621,3.9456,10.2711,1259,2827.79
16509,-1.9393,0.8404,11.7088,1263,2827.79
16514,-3.2932,-1.008,11.9698,1263,2827.79
16519,-1.172,2.1668,9.3458,1261,2828.05
16524,1.7226,3.9217,10.1921,1263,2828.05
16529,-1.5802,1.6293,11.2216,1261,2828.05
16534,-2.3703,-1.5203,12.3182,1267,2828.05
16539,-2.7007,1.6089,9.6283,1267,2828.32
16544,1.5371,3.5841,10.1861,1260,2828.32
16549,0.2334,2.4672,10.799,1267,2828.32
16554,-1.4856,-1.2629,12.3792,1259,2828.32
16559,-3.7685,0.7518,10.3813,1275,2828.32
16564,1.1205,3.1424,9.8976,1262,2828.45
16569,1.5682,3.3172,10.4555,1257,2828.45
16574,-1.251,-0.3579,12.214,1257,2828.45
16579,-3.9504,-0.2083,11.1881,1263,2828.45
16584,0.261,2.6528,9.5158,1267,2828.45
16589,1.7238,3.8355,10.2735,1261,2828.45
16594,-1.8387,0.68,11.8345,1261,2828.45
16599,-3.4812,-1.0151,11.8908,1259,2828.45
16604,-1.0331,2.2709,9.3386,1259,2828.45
16609,1.7011,3.9911,10.2568,1267,2828.45
16614,-1.8268,1.5359,11.2767,1263,2828.45
16619,-2.5331,-1.4006,12.2823,1268,2828.45
16624,-2.5103,1.7561,9.6127,1263,2828.59
16629,1.6053,3.7433,10.137,1261,2828.59
16634,-0.0287,2.2996,10.8457,1271,2828.59
16639,-1.5479,-1.3587,12.3206,1263,2828.59
16644,-3.6643,0.8906,10.155,1278,2828.59
16649,1.1708,3.2394,9.997,1260,2828.85
16654,1.4401,3.1005,10.4447,1260,2828.85
16659,-1.1468,-0.6081,12.1973,1260,2828.85
16664,-4.0701,-0.0802,11.084,1267,2828.85
16669,0.3879,2.7569,9.5696,1263,2828.99
16674,1.7095,3.7781,10.3046,1261,2828.99
16679,-1.8244,0.5279,11.8968,1259,2828.99
16684,-3.6188,-0.7901,11.8621,1262,2828.99
16689,-0.7386,2.387,9.3805,1261,2828.99
16694,1.7609,3.9983,10.2759,1273,2828.99
16699,-1.8986,1.4664,11.3425,1261,2828.99
16704,-2.6193,-1.3886,12.2284,1261,2828.99
16709,-2.2553,1.7825,9.4583,1267,2828.99
16714,1.6616,3.6835,10.1071,1257,2828.99
16719,-0.322,2.1679,10.8757,1271,2828.99
16724,-1.6987,-1.4485,12.3481,1256,2828.99
16729,-3.5733,0.9876,10.1155,1267,2828.99
16734,1.2234,3.2513,9.9683,1256,2829.25
16739,1.2366,3.0777,10.5512,1263,2829.25
16744,-1.2426,-0.7027,12.238,1256,2829.25
16749,-4.0785,0.103,10.9487,1261,2829.25
16754,0.5794,2.8527,9.6403,1263,2829.39
16759,1.7813,3.7912,10.3705,1261,2829.39
16764,-1.7011,0.3855,11.8932,1257,2829.39
16769,-3.6248,-0.7649,11.7424,1269,2829.39
16774,-0.5471,2.3942,9.3063,1258,2829.39
16779,1.7358,3.954,10.2867,1259,2829.39
16784,-2.0183,1.239,11.3713,1259,2829.39
16789,-2.8204,-1.3815,12.214,1258,2829.39
16794,-2.0614,1.8842,9.4439,1267,2829.65
16799,1.6783,3.7888,10.2328,1263,2829.65
16804,-0.6979,1.9992,10.9511,1262,2829.65
16809,-1.8459,-1.4269,12.3756,1251,2829.65
16814,-3.3543,1.227,9.991,1258,2829.65
16819,1.3671,3.4069,10.0185,1257,2829.65
16824,1.1923,2.8898,10.5632,1259,2829.65
16829,-1.2067,-0.8452,12.2392,1255,2829.65
16834,-4.0079,0.2358,10.7715,1257,2829.65
16839,0.6883,2.8623,9.6833,1256,2830.32
16844,1.8028,3.6224,10.337,1256,2830.32
16849,-1.5155,0.1736,11.9339,1257,2830.32
16854,-3.8343,-0.6369,11.6047,1263,2830.32
16859,-0.3711,2.4804,9.3709,1263,2830.06
16864,1.7274,4.0067,10.2819,1255,2830.06
16869,-2.0889,1.1552,11.5269,1261,2830.06
16874,-3.0538,-1.1947,12.153,1261,2830.06
16879,-1.737,2.053,9.3829,1257,2829.92
16884,1.81,3.9109,10.2029,1269,2829.92
16889,-0.9852,1.9201,11.0445,1263,2829.92
16894,-2.0195,-1.4461,12.3481,1257,2829.92
16899,-3.1639,1.3144,9.8689,1261,2829.92
16904,1.4712,3.4285,10.0928,1262,2829.79
16909,0.8535,2.727,10.6195,1263,2829.79
16914,-1.3001,-1.1013,12.2248,1255,2829.79
16919,-3.9696,0.4118,10.6338,1261,2829.79
16924,0.8224,2.9293,9.7564,1256,2830.06
16929,1.6999,3.565,10.4196,1259,2830.06
16934,-1.5143,-0.0048,12.0991,1255,2830.06
16939,-3.8786,-0.4046,11.5448,1259,2830.06
16944,-0.0587,2.5953,9.414,1257,2830.06
16949,1.7777,3.9863,10.3214,1255,2830.06
16954,-2.0949,1.0104,11.5676,1261,2830.06
16959,-3.152,-1.1456,11.9902,1260,2830.06
16964,-1.4736,2.1141,9.3637,1256,2829.79
16969,1.7334,3.8654,10.2723,1259,2829.79
16974,-1.3324,1.7154,11.0768,1257,2829.79
16979,-2.1703,-1.5395,12.2823,1261,2829.79
16984,-2.9604,1.4401,9.7707,1263,2829.25
16989,1.482,3.4884,10.1562,1259,2829.25
16994,0.5435,2.5941,10.6853,1267,2829.25
16999,-1.4461,-1.1456,12.3661,1255,2829.25
17004,-3.875,0.6345,10.5153,1261,2829.25
17009,0.9864,3.0957,9.8234,1257,2829.12
17014,1.7154,3.4285,10.4148,1257,2829.12
17019,-1.3838,-0.1963,12.1314,1260,2829.12
17024,-3.9504,-0.3244,11.3928,1259,2829.12
17029,0.0539,2.569,9.5098,1255,2829.12
17034,1.7358,3.9002,10.2604,1260,2829.12
17039,-2.0135,0.838,11.7316,1259,2829.12
17044,-3.3531,-1.136,11.9961,1259,2829.12
17049,-1.2701,2.2063,9.3398,1259,2829.12
17054,1.6939,3.966,10.2065,1257,2829.12
17059,-1.5933,1.664,11.2144,1261,2829.12
17064,-2.3559,-1.4449,12.3301,1259,2829.12
17069,-2.7294,1.6472,9.6462,1259,2828.99
17074,1.6436,3.6224,10.1406,1255,2828.99
17079,0.3328,2.4505,10.7751,1262,2828.99
17084,-1.4126,-1.2641,12.3265,1251,2828.99
17089,-3.802,0.7386,10.3118,1261,2828.99
17094,1.0367,3.0777,9.8653,1267,2828.99
17099,1.5514,3.2322,10.4758,1256,2828.99
17104,-1.2641,-0.3711,12.1422,1257,2828.99
17109,-4.039,-0.2406,11.2001,1259,2828.99
17114,0.2131,2.66,9.578,1259,2828.85
17119,1.7298,3.8774,10.3765,1257,2828.85
17124,-1.9812,0.7326,11.7855,1255,2828.85
17129,-3.4548,-0.9074,11.9291,1263,2828.85
17134,-1.0032,2.3308,9.3829,1259,2828.85
17139,1.822,4.0354,10.2927,1260,2828.85
17144,-1.719,1.5682,11.2599,1260,2828.85
17149,-2.4146,-1.4377,12.3026,1263,2828.85
17154,-2.545,1.6807,9.5636,1263,2829.12
17159,1.6161,3.6236,10.1622,1257,2829.12
17164,0.0455,2.2505,10.7392,1267,2829.12
17169,-1.573,-1.4174,12.3421,1255,2829.12
17174,-3.7014,0.8691,10.1933,1263,2829.12
17179,1.1863,3.1915,9.9467,1259,2829.65
17184,1.4736,3.2034,10.4818,1256,2829.65
17189,-1.3348,-0.5004,12.2439,1255,2829.65
17194,-4.0522,-0.012,11.133,1257,2829.65
17199,0.431,2.7665,9.5277,1263,2829.65
17204,1.8364,3.8152,10.3573,1257,2829.65
17209,-1.8711,0.5854,11.7938,1255,2829.65
17214,-3.5662,-0.8523,11.819,1257,2829.65
17219,-0.7853,2.3571,9.347,1257,2829.52
17224,1.7406,3.9409,10.2675,1263,2829.52
17229,-1.9333,1.4293,11.3593,1254,2829.52
17234,-2.7102,-1.4281,12.2643,1260,2829.52
17239,-2.32,1.7741,9.5134,1257,2829.39
17244,1.6783,3.7218,10.2065,1255,2829.39
17249,-0.3759,2.1979,10.9259,1261,2829.39
17254,-1.7274,-1.3803,12.3876,1261,2829.39
17259,-3.5267,1.0331,10.1095,1267,2829.39
17264,1.3324,3.2896,9.9982,1255,2830.19
17269,1.3503,3.073,10.5931,1257,2830.19
17274,-1.2306,-0.668,12.1817,1257,2830.19
17279,-4.0151,0.0383,10.9044,1257,2830.19
17284,0.595,2.7737,9.6079,1261,2829.79
17289,1.737,3.7362,10.3825,1254,2829.79
17294,-1.737,0.3412,11.8537,1254,2829.79
17299,-3.7182,-0.7877,11.74,1261,2829.79
17304,-0.5962,2.4349,9.3721,1255,2829.92
17309,1.7382,4.0618,10.3238,1257,2829.92
17314,-2.0806,1.2713,11.4132,1256,2829.92
17319,-2.8754,-1.2354,12.2344,1257,2829.92
17324,-2.0375,1.9585,9.4332,1243,2829.39
17329,1.7885,3.8176,10.2185,1253,2829.39
17334,-0.6237,2.0243,10.9391,1263,2829.39
17339,-1.8603,-1.4413,12.3696,1255,2829.39
17344,-3.3303,1.1672,9.9719,1259,2829.39
17349,1.3599,3.3124,10.0461,1253,2830.32
17354,1.0798,2.8371,10.5764,1257,2830.32
17359,-1.3156,-0.978,12.2404,1267,2830.32
17364,-4.0079,0.2263,10.835,1256,2830.32
17369,0.6847,2.8024,9.7181,1259,2830.86
17374,1.7502,3.6583,10.416,1255,2830.86
17379,-1.6436,0.2095,11.9674,1253,2830.86
17384,-3.8211,-0.5363,11.6071,1268,2830.86
17389,-0.3053,2.5714,9.426,1255,2830.32
17394,1.7897,4.0019,10.2472,1258,2830.32
17399,-2.1141,1.1325,11.5472,1259,2830.32
17404,-3.0179,-1.233,12.0787,1255,2830.32
17409,-1.7274,2.0087,9.3565,1263,2830.59
17414,1.7466,3.8032,10.1861,1260,2830.59
17419,-1.0654,1.8747,11.0313,1259,2830.59
17424,-2.0698,-1.5083,12.2667,1252,2830.59
17429,-3.152,1.3539,9.7935,1259,2830.59
17434,1.4796,3.4369,10.0545,1258,2830.59
17439,0.8643,2.7557,10.6829,1258,2830.59
17444,-1.385,-1.0008,12.311,1253,2830.59
17449,-3.9433,0.48,10.6686,1256,2830.59
17454,0.9038,2.9844,9.7707,1251,2830.72
17459,1.7968,3.5674,10.3813,1257,2830.72
17464,-1.4509,-0.0036,12.0153,1253,2830.72
17469,-3.8858,-0.4585,11.4156,1255,2830.72
17474,-0.079,2.575,9.4116,1257,2830.99
17479,1.7861,3.9325,10.3106,1256,2830.99
17484,-2.0865,0.9445,11.6215,1261,2830.99
17489,-3.2406,-1.1863,11.983,1255,2830.99
17494,-1.4413,2.1344,9.3661,1255,2830.99
17499,1.7322,3.9037,10.2197,1260,2830.99
17504,-1.4054,1.7466,11.1175,1257,2830.99
17509,-2.2924,-1.4868,12.3421,1255,2830.99
17514,-2.8826,1.5658,9.7947,1259,2831.12
17519,1.5682,3.5518,10.1227,1257,2831.12
17524,0.5578,2.5438,10.7153,1261,2831.12
17529,-1.3815,-1.1636,12.3265,1251,2831.12
17534,-3.8834,0.6297,10.4267,1256,2831.12
17539,1.0319,3.0442,9.8402,1255,2831.39
17544,1.67,3.3519,10.4351,1255,2831.39
17549,-1.3743,-0.2646,12.1374,1255,2831.39
17554,-3.984,-0.2729,11.2982,1258,2831.39
17559,0.17,2.6384,9.4858,1253,2831.26
17564,1.7669,3.9229,10.2879,1255,2831.26
17569,-2.053,0.814,11.7436,1255,2831.26
17574,-3.4201,-0.9984,11.886,1243,2831.26
17579,-1.1492,2.2805,9.3302,1257,2831.66
17584,1.816,3.9959,10.2891,1257,2831.66
17589,-1.6508,1.6161,11.2659,1254,2831.66
17594,-2.4493,-1.4509,12.2835,1260,2831.66
17599,-2.5714,1.6652,9.6127,1259,2831.52
17604,1.7011,3.6152,10.1873,1253,2831.52
17609,0.1329,2.3415,10.799,1256,2831.52
17614,-1.6005,-1.3922,12.3122,1251,2831.52
17619,-3.7493,0.8033,10.2532,1263,2831.52
17624,1.136,3.1376,9.9443,1255,2831.52
17629,1.4892,3.2358,10.4794,1253,2831.52
17634,-1.3731,-0.492,12.1649,1257,2831.52
17639,-4.0199,-0.0347,11.1127,1253,2831.52
17644,0.4106,2.7725,9.5565,1261,2831.93
17649,1.8615,3.869,10.3082,1269,2831.93
17654,-1.901,0.5746,11.7879,1251,2831.93
17659,-3.559,-0.8595,11.9064,1256,2831.93
17664,-0.814,2.3116,9.3829,1252,2831.66
17669,1.7561,3.978,10.2903,1257,2831.66
17674,-1.9884,1.4269,11.2839,1255,2831.66
17679,-2.6863,-1.403,12.2368,1259,2831.66
17684,-2.3068,1.8004,9.4667,1258,2831.39
17689,1.7023,3.7146,10.228,1253,2831.39
17694,-0.3029,2.2063,10.8685,1261,2831.39
17699,-1.737,-1.3707,12.384,1246,2831.39
17704,-3.5255,1.0104,10.0868,1261,2831.39
17709,1.3431,3.286,9.9527,1253,2830.99
17714,1.3611,3.0299,10.5596,1253,2830.99
17719,-1.318,-0.6788,12.1985,1255,2830.99
17724,-4.0618,0.085,10.9451,1257,2830.99
17729,0.583,2.7665,9.6654,1259,2830.99
17734,1.7885,3.723,10.3825,1254,2830.99
17739,-1.7693,0.3759,11.8357,1251,2830.99
17744,-3.6859,-0.7111,11.6921,1257,2830.99
17749,-0.5459,2.405,9.3458,1254,2831.12
17754,1.7657,3.9624,10.2915,1257,2831.12
17759,-2.0446,1.2641,11.4706,1256,2831.12
17764,-2.8539,-1.2785,12.1985,1256,2831.12
17769,-1.9836,1.9609,9.4691,1251,2831.12
17774,1.7705,3.8439,10.2065,1255,2831.12
17779,-0.7302,1.9836,10.987,1261,2831.12
17784,-1.8926,-1.4222,12.3182,1255,2831.12
17789,-3.3411,1.2294,9.9323,1262,2831.12
17794,1.4126,3.3734,10.0592,1251,2830.86
17799,1.0906,2.8335,10.6638,1257,2830.86
17804,-1.2845,-0.9565,12.2356,1253,2830.86
17809,-4.033,0.3065,10.7524,1255,2830.86
17814,0.7649,2.9078,9.7157,1259,2830.99
17819,1.7585,3.626,10.4088,1255,2830.99
17824,-1.6149,0.1161,11.9902,1255,2830.99
17829,-3.8547,-0.5231,11.5987,1263,2830.99
17834,-0.255,2.5043,9.4284,1255,2831.26
17839,1.8232,4.0127,10.3058,1256,2831.26
17844,-2.1524,1.075,11.5137,1255,2831.26
17849,-3.0275,-1.154,12.0871,1251,2831.26
17854,-1.6568,2.0626,9.3134,1262,2831.52
17859,1.7885,3.8415,10.2173,1263,2831.52
17864,-1.0977,1.8088,11.0887,1261,2831.52
17869,-2.1261,-1.4916,12.4068,1257,2831.52
17874,-3.0813,1.3599,9.839,1259,2831.52
17879,1.4712,3.4285,10.1263,1259,2831.26
17884,0.7745,2.6671,10.6781,1261,2831.26
17889,-1.4054,-1.1241,12.3349,1251,2831.26
17894,-3.9229,0.5267,10.5644,1255,2831.26
17899,0.9409,3.0071,9.8222,1255,2831.12
17904,1.7861,3.48,10.4471,1255,2831.12
17909,-1.4617,-0.0682,12.0991,1254,2831.12
17914,-3.9073,-0.3998,11.4084,1257,2831.12
17919,0.0694,2.5833,9.4068,1263,2830.99
17924,1.8124,3.9025,10.2268,1253,2830.99
17929,-2.1428,0.8344,11.625,1253,2830.99
17934,-3.2525,-1.1301,11.9447,1255,2830.99
17939,-1.3312,2.1644,9.3314,1255,2831.12
17944,1.7753,3.9181,10.2448,1261,2831.12
17949,-1.5036,1.7083,11.1965,1255,2831.12
17954,-2.3116,-1.4281,12.3026,1255,2831.12
17959,-2.8323,1.5742,9.7085,1256,2831.12
17964,1.585,3.5566,10.1347,1259,2831.26
17969,0.4776,2.5115,10.7907,1257,2831.26
17974,-1.4341,-1.2318,12.3649,1251,2831.26
17979,-3.8283,0.6752,10.41,1255,2831.26
17984,1.0846,3.1005,9.8773,1255,2831.39
17989,1.6257,3.3686,10.4495,1255,2831.39
17994,-1.3288,-0.3208,12.0895,1253,2831.39
17999,-4.0282,-0.2322,11.2061,1255,2831.39
18004,0.1927,2.648,9.5181,1252,2831.39
18009,1.8184,3.8846,10.3286,1255,2831.39
18014,-2.0339,0.7135,11.7579,1256,2831.39
18019,-3.4656,-0.9541,11.9327,1255,2831.39
18024,-1.1145,2.302,9.3565,1253,2831.26
18029,1.7753,3.9732,10.2867,1255,2831.26
18034,-1.7286,1.5814,11.2444,1256,2831.26
18039,-2.5307,-1.4222,12.2751,1255,2831.26
18044,-2.5007,1.7549,9.5445,1257,2831.39
18049,1.6759,3.6667,10.1706,1246,2831.39
18054,0.0108,2.3056,10.8362,1253,2831.39
18059,-1.6137,-1.397,12.372,1245,2831.39
18064,-3.7026,0.8691,10.1969,1259,2831.39
18069,1.2163,3.1927,9.9707,1255,2831.52
18074,1.4748,3.1448,10.5058,1255,2831.52
18079,-1.3348,-0.5902,12.1757,1257,2831.52
18084,-4.0761,-0.0275,11.0971,1255,2831.52
18089,0.4609,2.7988,9.6235,1260,2831.66
18094,1.81,3.8164,10.337,1251,2831.66
18099,-1.8914,0.5124,11.8764,1255,2831.66
18104,-3.5757,-0.8188,11.8118,1257,2831.66
18109,-0.7219,2.375,9.3446,1253,2831.66
18114,1.816,3.9744,10.3142,1259,2831.66
18119,-2.0099,1.3623,11.3509,1258,2831.66
18124,-2.7461,-1.3683,12.2068,1263,2831.66
18129,-2.2278,1.8304,9.4176,1257,2831.39
18134,1.6999,3.7206,10.1957,1254,2831.39
18139,-0.4453,2.0973,10.8972,1264,2831.39
18144,-1.8076,-1.4545,12.2787,1259,2831.39
18149,-3.5147,1.0487,10.07,1272,2831.39
18154,1.3767,3.2825,9.9635,1259,2831.26
18159,1.2534,2.9844,10.5908,1261,2831.26
18164,-1.3168,-0.7649,12.2523,1257,2831.26
18169,-4.0055,0.1437,10.9259,1258,2831.26
18174,0.644,2.8647,9.5708,1264,2830.19
18179,1.7777,3.6775,10.3741,1261,2830.19
18184,-1.6975,0.2741,11.8681,1261,2830.19
18189,-3.7517,-0.6919,11.6514,1261,2830.19
18194,-0.4836,2.4217,9.262,1264,2829.65
18199,1.7992,3.9732,10.2568,1271,2829.65
18204,-2.0973,1.2031,11.4515,1271,2829.65
18209,-2.9413,-1.2414,12.1625,1263,2829.65
18214,-1.9058,1.9968,9.4104,1267,2829.12
18219,1.7609,3.8595,10.2376,1261,2829.12
18224,-0.8619,1.968,11.0588,1273,2829.12
18229,-1.8783,-1.421,12.3672,1267,2829.12
18234,-3.298,1.2474,9.9084,1275,2829.12
18239,1.4425,3.3866,10.0305,1259,2830.19
18244,1.1013,2.8192,10.6566,1267,2830.19
18249,-1.2546,-0.9325,12.2044,1261,2830.19
18254,-3.9816,0.2729,10.6925,1269,2830.19
18259,0.753,2.8946,9.7229,1271,2829.52
18264,1.81,3.5865,10.4244,1267,2829.52
18269,-1.5969,0.1149,11.9866,1262,2829.52
18274,-3.8834,-0.5315,11.5508,1273,2829.52
18279,-0.2562,2.5343,9.4032,1263,2829.52
18284,1.8352,4.0175,10.3382,1267,2829.52
18289,-2.1668,1.0558,11.558,1263,2829.52
18294,-3.0191,-1.148,12.1218,1262,2829.52
18299,-1.6879,2.047,9.3769,1271,2829.39
18304,1.7669,3.8618,10.258,1267,2829.39
18309,-1.1241,1.8423,11.1091,1270,2829.39
18314,-2.1153,-1.494,12.2667,1261,2829.39
18319,-3.134,1.3599,9.8438,1267,2829.39
18324,1.5275,3.4237,10.1011,1257,2829.25
18329,0.8224,2.6767,10.6338,1261,2829.25
18334,-1.4126,-1.1049,12.2308,1263,2829.25
18339,-3.9588,0.4729,10.6219,1267,2829.25
18344,0.9397,2.9868,9.7983,1263,2829.39
18349,1.7621,3.5303,10.4615,1261,2829.39
18354,-1.5179,-0.0407,12.0237,1261,2829.39
18359,-3.8774,-0.4429,11.4335,1275,2829.39
18364,-0.0311,2.6109,9.4236,1269,2829.65
18369,1.8064,3.9409,10.2855,1261,2829.65
18374,-2.1021,0.9074,11.5927,1263,2829.65
18379,-3.2022,-1.1456,11.9985,1267,2829.65
18384,-1.3946,2.1093,9.3482,1270,2829.39
18389,1.7549,3.8774,10.252,1263,2829.39
18394,-1.4413,1.7334,11.1953,1268,2829.39
18399,-2.2302,-1.4461,12.3038,1263,2829.39
18404,-2.8922,1.5143,9.7516,1271,2829.39
18409,1.567,3.547,10.1215,1273,2829.92
18414,0.5231,2.5307,10.7164,1271,2829.92
18419,-1.47,-1.1444,12.2954,1271,2829.92
18424,-3.8559,0.6476,10.4423,1271,2829.92
18429,1.0283,3.0634,9.8354,1267,2830.06
18434,1.7142,3.3914,10.4519,1273,2830.06
18439,-1.3934,-0.2143,12.1099,1271,2830.06
18444,-3.9744,-0.2682,11.2958,1272,2830.06
18449,0.1065,2.6528,9.5301,1273,2830.06
18454,1.7454,3.8714,10.3537,1272,2830.06
18459,-2.059,0.741,11.7196,1273,2830.06
18464,-3.4261,-0.9972,11.9566,1275,2830.06
18469,-1.2175,2.2745,9.4008,1273,2830.32
18474,1.8208,3.966,10.2448,1271,2830.32
18479,-1.6532,1.6436,11.2683,1272,2830.32
18484,-2.4457,-1.4018,12.3062,1272,2830.32
18489,-2.6384,1.6676,9.6235,1275,2830.46
18494,1.6652,3.6164,10.1263,1275,2830.46
18499,0.2023,2.3679,10.7799,1277,2830.46
18504,-1.567,-1.3324,12.2392,1261,2830.46
18509,-3.7613,0.7709,10.2903,1272,2830.46
18514,1.1696,3.0945,9.8892,1269,2830.86
18519,1.5598,3.2417,10.4854,1271,2830.86
18524,-1.3575,-0.4585,12.1757,1269,2830.86
18529,-4.039,-0.1281,11.1678,1268,2830.86
18534,0.3508,2.7605,9.5205,1267,2830.46
18539,1.7957,3.8618,10.3166,1269,2830.46
18544,-1.9692,0.5974,11.7687,1275,2830.46
18549,-3.5075,-0.8368,11.8369,1269,2830.46
18554,-0.8392,2.3248,9.3721,1271,2830.59
18559,1.8004,3.978,10.2867,1271,2830.59
18564,-1.9297,1.4389,11.2707,1268,2830.59
18569,-2.5929,-1.4533,12.2224,1273,2830.59
18574,-2.3487,1.7549,9.4798,1272,2830.46
18579,1.6939,3.6583,10.2304,1269,2830.46
18584,-0.2334,2.2003,10.8338,1271,2830.46
18589,-1.7657,-1.3982,12.3577,1261,2830.46
18594,-3.5829,0.996,10.1586,1275,2830.46
18599,1.2965,3.2585,10.0114,1269,2830.72
18604,1.3695,3.1065,10.5321,1269,2830.72
18609,-1.3348,-0.6141,12.1865,1269,2830.72
18614,-4.0342,0.0551,10.999,1269,2830.72
18619,0.5914,2.7665,9.6127,1277,2831.12
18624,1.8256,3.7757,10.3693,1263,2831.12
18629,-1.7813,0.4058,11.8429,1269,2831.12
18634,-3.6775,-0.7554,11.7041,1271,2831.12
18639,-0.5914,2.4086,9.3721,1268,2831.39
18644,1.798,3.9624,10.3465,1273,2831.39
18649,-2.0674,1.2869,11.4,1271,2831.39
18654,-2.8228,-1.2845,12.1997,1271,2831.39
18659,-2.1105,1.8914,9.5193,1274,2831.39
18664,1.7609,3.8235,10.2376,1272,2831.39
18669,-0.6177,2.0674,10.9666,1272,2831.39
18674,-1.8507,-1.3551,12.3349,1272,2831.39
18679,-3.4069,1.1839,9.9599,1278,2831.39
18684,1.4676,3.3507,9.9719,1267,2831.26
18689,1.2115,2.8718,10.5919,1272,2831.26
18694,-1.2845,-0.8655,12.22,1263,2831.26
18699,-4.027,0.2251,10.7978,1261,2831.26
18704,0.6991,2.818,9.6259,1274,2831.12
18709,1.7753,3.62,10.4208,1262,2831.12
18714,-1.7035,0.176,11.9507,1263,2831.12
18719,-3.8199,-0.5746,11.6298,1267,2831.12
18724,-0.3256,2.5043,9.3565,1264,2831.26
18729,1.8208,4.0318,10.3106,1271,2831.26
18734,-2.1512,1.1636,11.5424,1271,2831.26
18739,-3.0023,-1.1684,12.1254,1267,2831.26
18744,-1.7621,2.047,9.3518,1263,2831.39
18749,1.816,3.875,10.2125,1263,2831.39
18754,-0.9936,1.8675,11.0624,1272,2831.39
18759,-2.0566,-1.4928,12.3074,1267,2831.39
18764,-3.1412,1.2797,9.7899,1273,2831.39
18769,1.4545,3.3866,10.1047,1260,2831.66
18774,0.8212,2.6659,10.7787,1263,2831.66
18779,-1.3587,-1.1097,12.2823,1267,2831.66
18784,-4.0043,0.4932,10.5979,1264,2831.66
18789,0.8739,3.0071,9.7923,1269,2832.06
18794,1.7597,3.5638,10.4327,1267,2832.06
18799,-1.5036,-0.0108,12.0141,1261,2832.06
18804,-3.9097,-0.395,11.4886,1271,2832.06
18809,-0.0491,2.6252,9.4822,1263,2832.06
18814,1.8375,3.9301,10.2879,1267,2832.06
18819,-2.1213,0.9637,11.6286,1267,2832.06
18824,-3.2513,-1.1025,12.0177,1267,2832.06
18829,-1.4114,2.1129,9.2871,1269,2831.66
18834,1.7765,3.8942,10.2424,1272,2831.66
18839,-1.4856,1.658,11.1378,1264,2831.66
18844,-2.3128,-1.4509,12.2835,1259,2831.66
18849,-2.9197,1.506,9.7264,1260,2831.66
18854,1.6137,3.5326,10.1299,1266,2831.52
18859,0.4884,2.545,10.805,1268,2831.52
18864,-1.4772,-1.2055,12.293,1261,2831.52
18869,-3.8511,0.6823,10.4172,1263,2831.52
18874,1.0558,3.0442,9.7959,1261,2831.66
18879,1.6951,3.3495,10.4902,1263,2831.66
18884,-1.3779,-0.2945,12.147,1263,2831.66
18889,-3.948,-0.2933,11.2994,1263,2831.66
18894,0.1532,2.6169,9.4667,1263,2831.39
18899,1.7657,3.8738,10.3382,1263,2831.39
18904,-2.0375,0.7602,11.7603,1268,2831.39
18909,-3.4656,-0.978,11.8932,1263,2831.39
18914,-1.1265,2.2793,9.3589,1263,2831.79
18919,1.8208,3.9708,10.3693,1269,2831.79
18924,-1.7597,1.585,11.303,1263,2831.79
18929,-2.4888,-1.3946,12.2176,1260,2831.79
18934,-2.5893,1.6903,9.5768,1261,2830.99
18939,1.6855,3.6308,10.1406,1271,2830.99
18944,0.1365,2.2889,10.8386,1269,2830.99
18949,-1.5802,-1.3731,12.3182,1262,2830.99
18954,-3.7266,0.8272,10.2113,1263,2830.99
18959,1.1839,3.1556,9.9276,1261,2832.86
18964,1.4892,3.1603,10.495,1267,2832.86
18969,-1.3671,-0.5387,12.1685,1271,2832.86
18974,-4.0713,-0.0275,11.0552,1264,2832.86
18979,0.4214,2.7773,9.6283,1259,2831.93
18984,1.8304,3.8415,10.3118,1267,2831.93
18989,-1.9225,0.5531,11.8944,1269,2831.93
18994,-3.6332,-0.7805,11.825,1271,2831.93
18999,-0.7602,2.3727,9.3039,1271,2832.33
19004,1.8543,3.9708,10.2376,1263,2832.33
19009,-1.9824,1.4509,11.3509,1267,2832.33
19014,-2.709,-1.3922,12.1781,1273,2832.33
19019,-2.223,1.8076,9.5134,1270,2832.86
19024,1.6831,3.6715,10.2304,1259,2832.86
19029,-0.4202,2.1656,10.993,1262,2832.86
19034,-1.8292,-1.4437,12.3541,1261,2832.86
19039,-3.5374,1.1325,10.0473,1273,2832.86
19044,1.3767,3.2801,10.0066,1263,2832.86
19049,1.2713,3.0011,10.6147,1261,2832.86
19054,-1.2701,-0.747,12.2308,1262,2832.86
19059,-4.027,0.2095,10.8613,1255,2832.86
19064,0.6476,2.8647,9.56,1263,2832.73
19069,1.8531,3.7182,10.4327,1267,2832.73
19074,-1.6927,0.2705,11.8489,1259,2832.73
19079,-3.7362,-0.7159,11.6478,1267,2832.73
19084,-0.4501,2.4253,9.3099,1258,2832.46
19089,1.7968,3.948,10.3549,1261,2832.46
19094,-2.1823,1.1887,11.4766,1262,2832.46
19099,-2.9963,-1.2139,12.1961,1268,2832.46
19104,-1.8998,2.0111,9.3937,1267,2832.33
19109,1.7585,3.8367,10.2173,1259,2832.33
19114,-0.9002,1.968,11.0385,1271,2832.33
19119,-1.98,-1.4054,12.3074,1257,2832.33
19124,-3.2693,1.3024,9.8665,1272,2832.33
19129,1.494,3.4321,10.0245,1264,2832.59
19134,1.0439,2.7509,10.7476,1261,2832.59
19139,-1.3659,-1.0008,12.202,1261,2832.59
19144,-3.9959,0.334,10.6099,1263,2832.59
19149,0.8475,2.9257,9.6726,1269,2833.26
19154,1.7286,3.5542,10.4495,1263,2833.26
19159,-1.5718,0.0251,12.0033,1261,2833.26
19164,-3.9181,-0.4633,11.4634,1269,2833.26
19169,-0.1688,2.563,9.3805,1259,2833.93
19174,1.7837,3.9899,10.3322,1263,2833.93
19179,-2.1428,0.9936,11.6358,1261,2833.93
19184,-3.219,-1.069,12.0811,1263,2833.93
19189,-1.4653,2.138,9.2727,1269,2834.2
19194,1.8615,3.9037,10.2208,1263,2834.2
19199,-1.3791,1.7322,11.1737,1269,2834.2
19204,-2.2637,-1.4617,12.3517,1261,2834.2
19209,-2.8742,1.4569,9.651,1263,2834.2
19214,1.561,3.474,10.0664,1261,2834.07
19219,0.4717,2.5259,10.823,1263,2834.07
19224,-1.4461,-1.2653,12.2894,1262,2834.07
19229,-3.8523,0.6369,10.3908,1261,2834.07
19234,1.0762,3.0227,9.8126,1260,2834.33
19239,1.7047,3.3806,10.6207,1268,2834.33
19244,-1.4246,-0.2945,12.1302,1260,2834.33
19249,-4.0247,-0.1939,11.303,1257,2834.33
19254,0.2322,2.6492,9.4487,1261,2834.87
19259,1.9082,3.9157,10.3669,1263,2834.87
19264,-2.0554,0.6943,11.7017,1268,2834.87
19269,-3.4213,-0.972,11.9183,1252,2834.87
19274,-1.0534,2.223,9.2823,1263,2835.4
19279,1.8232,3.9097,10.2795,1260,2835.4
19284,-1.8016,1.5263,11.3174,1262,2835.4
19289,-2.5678,-1.4018,12.2475,1261,2835.4
19294,-2.5187,1.7705,9.5828,1269,2835.4
19299,1.6999,3.6559,10.1957,1263,2835.4
19304,-0.0192,2.3116,10.9212,1271,2835.4
19309,-1.6927,-1.3479,12.2667,1257,2835.4
19314,-3.6188,0.9541,10.1742,1271,2835.4
19319,1.2653,3.225,9.9228,1261,2835.94
19324,1.5179,3.1149,10.5668,1262,2835.94
19329,-1.257,-0.6105,12.1925,1261,2835.94
19334,-3.9959,0.0395,11.0217,1264,2835.94
19339,0.5183,2.7569,9.5648,1260,2835.54
19344,1.8507,3.7314,10.3789,1269,2835.54
19349,-1.822,0.3843,11.8621,1269,2835.54
19354,-3.7086,-0.7649,11.7364,1269,2835.54
19359,-0.6404,2.4289,9.3063,1269,2835.14
19364,1.8124,3.9792,10.2161,1267,2835.14
19369,-2.0674,1.3228,11.4946,1269,2835.14
19374,-2.9018,-1.2629,12.2236,1271,2835.14
19379,-2.0674,1.9656,9.4104,1272,2834.87
19384,1.7837,3.7661,10.1885,1267,2834.87
19389,-0.6704,2.0291,11.0588,1269,2834.87
19394,-1.8998,-1.4736,12.3469,1267,2834.87
19399,-3.3339,1.2127,9.8737,1277,2834.87
19404,1.4509,3.2741,10.0281,1259,2834.47
19409,1.1337,2.8323,10.72,1255,2834.47
19414,-1.3264,-0.9313,12.2523,1261,2834.47
19419,-4.0306,0.3723,10.6937,1269,2834.47
19424,0.7889,2.8874,9.6498,1273,2834.33
19429,1.8004,3.6308,10.4447,1269,2834.33
19434,-1.6281,0.1101,12.0021,1261,2834.33
19439,-3.869,-0.4609,11.5185,1264,2834.33
19444,-0.1736,2.545,9.3733,1267,2834.33
19449,1.8316,3.9923,10.3418,1271,2834.33
19454,-2.1404,1.1121,11.5712,1266,2834.33
19459,-3.1376,-1.1253,12.0907,1267,2834.33
19464,-1.5802,2.0925,9.3757,1267,2833.66
19469,1.8304,3.8343,10.2651,1263,2833.66
19474,-1.2653,1.8064,11.0947,1275,2833.66
19479,-2.2087,-1.4928,12.2942,1267,2833.66
19484,-3.0586,1.3803,9.7145,1275,2833.66
19489,1.5443,3.4943,10.1011,1263,2833.93
19494,0.6596,2.6001,10.7895,1266,2833.93
19499,-1.415,-1.1013,12.3002,1269,2833.93
19504,-3.9301,0.559,10.5129,1269,2833.93
19509,1.0223,3.0406,9.8078,1269,2833.4
19514,1.7298,3.4237,10.4651,1263,2833.4
19519,-1.4557,-0.1784,12.0416,1263,2833.4
19524,-3.9588,-0.3531,11.3593,1275,2833.4
19529,0.1401,2.5989,9.4451,1269,2833.53
19534,1.8184,3.9097,10.3441,1277,2833.53
19539,-2.1165,0.8212,11.6993,1263,2833.53
19544,-3.3722,-1.0367,11.9878,1268,2833.53
19549,-1.2246,2.2434,9.2775,1271,2833.13
19554,1.8232,3.9409,10.2627,1275,2833.13
19559,-1.6568,1.579,11.2683,1275,2833.13
19564,-2.4744,-1.3958,12.311,1267,2833.13
19569,-2.6612,1.6855,9.6271,1269,2833.13
19574,1.6987,3.632,10.1311,1271,2834.07
19579,0.2011,2.3547,10.8828,1272,2834.07
19584,-1.5778,-1.3024,12.3014,1267,2834.07
19589,-3.735,0.8056,10.2484,1263,2834.07
19594,1.1911,3.134,9.8474,1266,2833.4
19599,1.5419,3.201,10.6015,1271,2833.4
19604,-1.3384,-0.4465,12.1434,1269,2833.4
19609,-4.0426,-0.0946,11.145,1269,2833.4
19614,0.3723,2.6959,9.5134,1267,2833.26
19619,1.8435,3.8199,10.392,1268,2833.26
19624,-1.9393,0.5794,11.7831,1271,2833.26
19629,-3.6583,-0.7997,11.8465,1270,2833.26
19634,-0.8152,2.3499,9.3338,1269,2832.86
19639,1.8531,3.984,10.3573,1272,2832.86
19644,-2.0063,1.4257,11.3976,1277,2832.86
19649,-2.6863,-1.3276,12.2272,1263,2832.86
19654,-2.2817,1.8399,9.4643,1273,2832.73
19659,1.7561,3.6871,10.1801,1267,2832.73
19664,-0.3615,2.1452,10.8996,1272,2832.73
19669,-1.7729,-1.4305,12.3589,1260,2832.73
19674,-3.5614,1.0271,10.1155,1275,2832.73
19679,1.2989,3.2872,9.9671,1267,2832.86
19684,1.3192,2.9832,10.5572,1267,2832.86
19689,-1.3838,-0.7542,12.1613,1269,2832.86
19694,-4.0761,0.1772,10.914,1269,2832.86
19699,0.6656,2.8623,9.6043,1269,2832.86
19704,1.8555,3.711,10.3896,1269,2832.86
19709,-1.7825,0.334,11.995,1269,2832.86
19714,-3.7038,-0.6237,11.7053,1273,2832.86
19719,-0.4393,2.4648,9.2967,1262,2832.86
19724,1.8387,3.9456,10.2424,1275,2832.86
19729,-2.1177,1.2222,11.4814,1268,2832.86
19734,-2.9724,-1.257,12.1159,1275,2832.86
19739,-1.8771,1.9285,9.4056,1271,2832.86
19744,1.7777,3.7733,10.2508,1271,2832.86
19749,-0.9038,1.9752,11.0971,1272,2832.86
19754,-2.0111,-1.4246,12.2559,1267,2832.86
19759,-3.2681,1.2833,9.8821,1287,2832.86
19764,1.4976,3.3902,10.0916,1271,2832.73
19769,1.0199,2.8108,10.6961,1271,2832.73
19774,-1.3036,-0.9936,12.2535,1263,2832.73
19779,-3.9576,0.3675,10.7428,1271,2832.73
19784,0.832,2.9149,9.669,1275,2832.86
19789,1.8016,3.5398,10.4483,1269,2832.86
19794,-1.5933,0.0299,11.983,1263,2832.86
19799,-3.8726,-0.5004,11.5317,1270,2832.86
19804,-0.176,2.5235,9.396,1278,2833.13
19809,1.8531,3.9468,10.337,1273,2833.13
19814,-2.1392,0.9816,11.6466,1271,2833.13
19819,-3.2034,-1.1265,12.0955,1271,2833.13
19824,-1.5335,2.1656,9.3314,1268,2833.4
19829,1.816,3.9121,10.3106,1267,2833.4
19834,-1.2869,1.7609,11.151,1273,2833.4
19839,-2.223,-1.4629,12.3481,1273,2833.4
19844,-2.9724,1.4892,9.7073,1277,2833.4
19849,1.5874,3.5243,10.1562,1264,2833.4
19854,0.6213,2.5678,10.7715,1267,2833.4
19859,-1.4353,-1.2007,12.2799,1272,2833.4
19864,-3.9229,0.6057,10.4435,1271,2833.4
19869,1.0415,3.0215,9.8138,1275,2833.8
19874,1.6735,3.3758,10.4974,1271,2833.8
19879,-1.4389,-0.249,12.0919,1259,2833.8
19884,-4.0187,-0.2322,11.2887,1277,2833.8
19889,0.1724,2.6528,9.4798,1267,2833.53
19894,1.8531,3.8942,10.3489,1269,2833.53
19899,-2.0961,0.8607,11.7531,1269,2833.53
19904,-3.4393,-0.9625,11.9531,1269,2833.53
19909,-1.093,2.2733,9.2811,1275,2833.26
19914,1.8244,3.9241,10.2448,1275,2833.26
19919,-1.7921,1.5826,11.2647,1277,2833.26
19924,-2.4852,-1.4222,12.2823,1267,2833.26
19929,-2.6288,1.6508,9.5505,1270,2833.26
19934,1.6376,3.5877,10.1873,1273,2832.99
19939,0.0682,2.326,10.8948,1275,2832.99
19944,-1.6544,-1.3755,12.372,1270,2832.99
19949,-3.7194,0.8056,10.222,1270,2832.99
19954,1.2438,3.2034,9.9371,1268,2832.99
19959,1.5215,3.1951,10.5704,1277,2832.99
19964,-1.3563,-0.5171,12.1422,1269,2832.99
19969,-4.0462,-0.0599,11.1055,1272,2832.99
19974,0.4764,2.7366,9.5229,1273,2832.59
19979,1.8507,3.8235,10.3968,1271,2832.59
19984,-1.9082,0.5459,11.7483,1279,2832.59
19989,-3.5889,-0.8559,11.7567,1274,2832.59
19994,-0.7853,2.3475,9.2883,1269,2834.07
19999,1.8184,3.9253,10.3058,1279,2834.07
20004,-1.998,1.3587,11.3425,1272,2834.07
20009,-2.7773,-1.3647,12.2428,1275,2834.07
20014,-2.229,1.8483,9.4284,1276,2833.4
20019,1.7837,3.7565,10.2053,1271,2833.4
20024,-0.4214,2.1272,10.9595,1275,2833.4
20029,-1.7657,-1.3743,12.2978,1267,2833.4
20034,-3.5243,1.1085,10.0808,1285,2833.4
20039,1.3922,3.2753,9.9814,1273,2833.4
20044,1.3096,2.9401,10.6386,1271,2833.4
20049,-1.2713,-0.7805,12.1709,1275,2833.4
20054,-4.057,0.1939,10.817,1274,2833.4
20059,0.6728,2.7833,9.6247,1275,2833.4
20064,1.8459,3.6332,10.4447,1273,2833.4
20069,-1.7394,0.2191,11.9602,1277,2833.4
20074,-3.8116,-0.6165,11.7388,1272,2833.4
20079,-0.4357,2.4936,9.3194,1267,2833.26
20084,1.8387,3.9612,10.319,1275,2833.26
20089,-2.2158,1.1827,11.5401,1271,2833.26
20094,-3.0095,-1.1564,12.202,1279,2833.26
20099,-1.8124,2.0279,9.3158,1272,2833.4
20104,1.8208,3.8343,10.2256,1271,2833.4
20109,-0.9924,1.9297,11.1151,1273,2833.4
20114,-2.0303,-1.4952,12.2823,1267,2833.4
20119,-3.1867,1.2977,9.7648,1277,2833.4
20124,1.4964,3.3375,9.9946,1274,2833.26
20129,0.9182,2.715,10.7021,1271,2833.26
20134,-1.385,-1.0666,12.2715,1269,2833.26
20139,-3.9863,0.4106,10.7416,1271,2833.26
20144,0.9158,2.9401,9.76,1275,2832.86
20149,1.7681,3.5614,10.495,1263,2832.86
20154,-1.5479,-0.0287,12.0093,1269,2832.86
20159,-3.8882,-0.3711,11.4958,1271,2832.86
20164,-0.0611,2.6145,9.3984,1271,2832.59
20169,1.8926,3.9433,10.2711,1276,2832.59
20174,-2.1428,0.9493,11.6119,1273,2832.59
20179,-3.2202,-1.0965,11.9926,1270,2832.59
20184,-1.4198,2.2122,9.3625,1272,2832.59
20189,1.7992,3.8726,10.2987,1271,2832.59
20194,-1.4808,1.7131,11.1953,1275,2832.59
20199,-2.3056,-1.4688,12.2475,1271,2832.59
20204,-2.8922,1.4521,9.7121,1279,2832.59
20209,1.6041,3.4955,10.1382,1263,2832.46
20214,0.5004,2.5965,10.8074,1271,2832.46
20219,-1.4892,-1.16,12.3134,1271,2832.46
20224,-3.8798,0.6883,10.4256,1275,2832.46
20229,1.0846,3.0765,9.8055,1278,2832.86
20234,1.7442,3.3818,10.5129,1271,2832.86
20239,-1.4461,-0.2502,12.1075,1271,2832.86
20244,-3.9828,-0.2646,11.2731,1287,2832.86
20249,0.1808,2.6432,9.4463,1273,2832.73
20254,1.8088,3.8307,10.3513,1268,2832.73
20259,-2.1117,0.729,11.7938,1273,2832.73
20264,-3.4381,-1.0008,11.9135,1272,2832.73
20269,-1.1229,2.2398,9.2943,1275,2832.86
20274,1.7968,3.9648,10.2843,1277,2832.86
20279,-1.798,1.5706,11.3078,1277,2832.86
20284,-2.5391,-1.4186,12.2583,1271,2832.86
20289,-2.5379,1.7298,9.6019,1269,2832.86
20294,1.7286,3.6547,10.1682,1275,2832.86
20299,0.0311,2.3463,10.8828,1277,2832.86
20304,-1.6269,-1.3168,12.2463,1269,2832.86
20309,-3.6619,0.8823,10.1311,1272,2832.86
20314,1.2534,3.1472,9.894,1271,2832.99
20319,1.5155,3.152,10.5716,1273,2832.99
20324,-1.3132,-0.5962,12.1889,1271,2832.99
20329,-4.0677,-0.006,11.0696,1275,2832.99
20334,0.48,2.8,9.6462,1268,2832.99
20339,1.8411,3.7936,10.3765,1273,2832.99
20344,-1.962,0.5447,11.8621,1275,2832.99
20349,-3.6667,-0.7494,11.7938,1273,2832.99
20354,-0.6955,2.405,9.3051,1272,2832.86
20359,1.8711,3.954,10.307,1287,2832.86
20364,-2.047,1.3827,11.4084,1273,2832.86
20369,-2.7258,-1.3372,12.2009,1275,2832.86
20374,-2.1596,1.8148,9.3649,1275,2831.79
20379,1.4497,3.304,10.0353,1276,2831.79
20384,-0.4322,2.1009,10.914,1287,2831.79
20389,-1.3862,-0.9313,12.299,1260,2831.79
20394,-3.4931,1.0858,10.0269,1272,2831.79
20399,0.8535,2.9437,9.6989,1270,2833.8
20404,1.2426,3.0071,10.586,1276,2833.8
20409,-1.652,0.1437,12.0177,1275,2833.8
20414,-3.8511,-0.4932,11.4982,1274,2833.8
20419,-0.1616,2.5331,9.3446,1271,2832.73
20424,1.8483,3.9433,10.3118,1277,2832.73
20429,-2.1787,1.0211,11.5927,1277,2832.73
20434,-3.0897,-1.2079,12.1039,1273,2832.73
20439,-1.6173,2.077,9.2979,1273,2832.19
20444,1.7573,3.8116,10.2675,1277,2832.19
20449,-1.2653,1.7645,11.1414,1271,2832.19
20454,-2.1859,-1.5119,12.2954,1279,2832.19
20459,-3.0167,1.415,9.7719,1277,2831.66
20464,1.555,3.5314,10.1263,1271,2831.66
20469,0.6273,2.6169,10.7943,1271,2831.66
20474,-1.3898,-1.0654,12.2212,1263,2831.66
20479,-3.869,0.5495,10.507,1279,2831.66
20484,1.0008,3.0215,9.7576,1275,2831.52
20489,1.7382,3.4273,10.4818,1269,2831.52
20494,-1.4281,-0.1772,12.0021,1271,2831.52
20499,-3.9588,-0.3962,11.3916,1273,2831.52
20504,0.0371,2.5965,9.4535,1277,2831.26
20509,1.8232,3.9002,10.3465,1269,2831.26
20514,-2.1691,0.8464,11.7148,1275,2831.26
20519,-3.3567,-0.99,12.0117,1274,2831.26
20524,-1.2653,2.2553,9.3422,1272,2830.86
20529,1.8088,3.9947,10.2711,1275,2830.86
20534,-1.6939,1.6604,11.23,1273,2830.86
20539,-2.3379,-1.4257,12.3242,1277,2830.86
20544,-2.7174,1.5538,9.6223,1273,2830.46
20549,1.6712,3.5769,10.0975,1267,2830.46
20554,0.3304,2.3727,10.7763,1279,2830.46
20559,-1.5239,-1.3001,12.2344,1271,2830.46
20564,-3.7781,0.7087,10.3382,1285,2830.46
20569,1.1193,3.0574,9.8378,1273,2830.32
20574,1.5323,3.2741,10.5333,1269,2830.32
20579,-1.4174,-0.3771,12.1769,1268,2830.32
20584,-4.0139,-0.1652,11.2899,1275,2830.32
20589,0.2777,2.6971,9.517,1271,2830.32
20594,1.8076,3.8954,10.331,1270,2830.32
20599,-2.071,0.7302,11.7627,1271,2830.32
20604,-3.4285,-0.8535,11.91,1275,2830.32
20609,-0.9397,2.2781,9.2979,1263,2830.32
20614,1.8543,3.9564,10.2532,1279,2830.32
20619,-1.8627,1.4808,11.3258,1273,2830.32
20624,-2.5235,-1.4593,12.1925,1271,2830.32
20629,-2.472,1.6759,9.584,1269,2830.32
20634,1.6927,3.6069,10.1885,1267,2830.32
20639,-0.1269,2.2817,10.9044,1279,2830.32
20644,-1.6532,-1.3755,12.3086,1273,2830.32
20649,-3.6416,0.9182,10.2687,1271,2830.32
20654,1.221,3.207,9.9766,1269,2830.19
20659,1.4712,3.1939,10.5273,1271,2830.19
20664,-1.3324,-0.5279,12.1135,1271,2830.19
20669,-4.0127,-0.0072,11.0468,1271,2830.19
20674,0.4836,2.7497,9.6163,1274,2830.19
20679,1.8663,3.7733,10.2915,1271,2830.19
20684,-1.8818,0.4429,11.8202,1269,2830.19
20689,-3.6236,-0.8511,11.8046,1276,2830.19
20694,-0.7183,2.3056,9.3182,1271,2830.32
20699,1.7849,3.9732,10.2592,1267,2830.32
20704,-2.0554,1.3647,11.4215,1275,2830.32
20709,-2.7521,-1.3551,12.2188,1267,2830.32
20714,-2.2302,1.8459,9.511,1277,2830.46
20719,1.7526,3.7589,10.1837,1269,2830.46
20724,-0.4621,2.1679,10.9535,1273,2830.46
20729,-1.7992,-1.397,12.3242,1263,2830.46
20734,-3.4453,1.1193,10.0293,1271,2830.46
20739,1.4102,3.2394,9.9695,1262,2830.46
20744,1.3396,2.9425,10.5824,1273,2830.46
20749,-1.2594,-0.7829,12.1745,1263,2830.46
20754,-4.0175,0.0802,10.884,1271,2830.46
20759,0.6237,2.7761,9.6786,1269,2830.72
20764,1.7777,3.7098,10.3968,1273,2830.72
20769,-1.7921,0.2945,11.9818,1268,2830.72
20774,-3.7529,-0.6273,11.722,1273,2830.72
20779,-0.4513,2.5055,9.3805,1275,2830.86
20784,1.8555,4.0318,10.2592,1272,2830.86
20789,-2.1703,1.2689,11.479,1274,2830.86
20794,-2.8587,-1.2354,12.1829,1275,2830.86
20799,-1.8687,1.9944,9.4487,1277,2830.72
20804,1.7681,3.7828,10.258,1277,2830.72
20809,-0.8033,1.9393,10.9678,1275,2830.72
20814,-1.9022,-1.5215,12.2763,1273,2830.72
20819,-3.2777,1.221,9.8474,1277,2830.72
20824,1.4329,3.3375,10.058,1278,2831.93
20829,1.0187,2.8096,10.6817,1276,2831.93
20834,-1.4078,-1.0127,12.2751,1271,2831.93
20839,-4.0522,0.3519,10.6925,1269,2831.93
20844,0.8727,2.9509,9.7659,1273,2832.59
20849,1.8124,3.6296,10.3741,1273,2832.59
20854,-1.658,0.0898,11.983,1271,2832.59
20859,-3.8463,-0.4729,11.546,1273,2832.59
20864,-0.1053,2.5486,9.402,1270,2832.73
20869,1.8483,3.9325,10.3022,1273,2832.73
20874,-2.1835,1.0247,11.5748,1275,2832.73
20879,-3.158,-1.2115,12.0931,1273,2832.73
20884,-1.5526,2.0806,9.2883,1273,2832.99
20889,1.7382,3.8235,10.2723,1273,2832.99
20894,-1.3659,1.7621,11.1546,1271,2832.99
20899,-2.2541,-1.4281,12.3601,1275,2832.99
20904,-2.9676,1.488,9.7576,1271,2833.26
20909,1.5886,3.5769,10.1335,1267,2833.26
20914,0.6668,2.6372,10.7248,1273,2833.26
20919,-1.4521,-1.1145,12.2703,1271,2833.26
20924,-3.8918,0.5818,10.4734,1285,2833.26
20929,1.0355,3.0179,9.7659,1269,2832.86
20934,1.7538,3.3758,10.507,1271,2832.86
20939,-1.4425,-0.2562,12.0345,1273,2832.86
20944,-3.972,-0.3579,11.3078,1273,2832.86
20949,0.0814,2.6444,9.4344,1275,2832.46
20954,1.7669,3.8894,10.3645,1270,2832.46
20959,-2.1404,0.7506,11.7256,1259,2832.46
20964,-3.3686,-0.99,12.0273,1275,2832.46
20969,-1.2007,2.2661,9.3146,1271,2832.46
20974,1.8459,4.0079,10.3082,1276,2832.46
20979,-1.7083,1.5838,11.2408,1273,2832.46
20984,-2.4062,-1.3886,12.2966,1277,2832.46
20989,-2.636,1.6376,9.5948,1271,2832.59
20994,1.7274,3.5913,10.1107,1267,2832.59
20999,0.1915,2.3212,10.8038,1278,2832.59
21004,-1.5874,-1.3372,12.2643,1273,2832.59
21009,-3.7721,0.7757,10.2627,1277,2832.59
21014,1.1911,3.0921,9.8641,1269,2832.86
21019,1.5646,3.2417,10.5632,1271,2832.86
21024,-1.3838,-0.4884,12.1769,1271,2832.86
21029,-4.0378,-0.0299,11.2085,1270,2832.86
21034,0.4274,2.7677,9.5433,1273,2832.73
21039,1.8208,3.8714,10.3537,1271,2832.73
21044,-2.0375,0.5698,11.7603,1267,2832.73
21049,-3.5674,-0.7817,11.874,1275,2832.73
21054,-0.8009,2.3032,9.3302,1269,2832.86
21059,1.889,3.9648,10.2675,1273,2832.86
21064,-1.9944,1.4114,11.3186,1277,2832.86
21069,-2.6528,-1.4018,12.2104,1271,2832.86
21074,-2.3236,1.7466,9.4786,1274,2832.46
21079,1.6927,3.6679,10.2113,1273,2832.46
21084,-0.346,2.1644,10.9583,1277,2832.46
21089,-1.7789,-1.4653,12.3397,1263,2832.46
21094,-3.5303,1.0534,10.0724,1269,2832.46
21099,1.3827,3.2813,9.9647,1263,2832.46
21104,1.3647,3.0861,10.5764,1270,2832.46
21109,-1.3096,-0.723,12.1685,1273,2832.46
21114,-4.0043,0.1628,10.9331,1273,2832.46
21119,0.6692,2.8264,9.6091,1273,2832.46
21124,1.8747,3.7086,10.3633,1269,2832.46
21129,-1.7717,0.261,11.8848,1267,2832.46
21134,-3.705,-0.7087,11.6765,1278,2832.46
21139,-0.5171,2.4134,9.3218,1275,2832.59
21144,1.8052,3.9624,10.2747,1275,2832.59
21149,-2.1679,1.2019,11.5436,1271,2832.59
21154,-2.958,-1.2414,12.1625,1273,2832.59
21159,-1.9453,2.0159,9.4942,1277,2832.86
21164,1.7945,3.8367,10.2711,1277,2832.86
21169,-0.7889,2.0027,11.0397,1271,2832.86
21174,-1.986,-1.4042,12.2655,1267,2832.86
21179,-3.2801,1.2869,9.9395,1271,2832.86
21184,1.5263,3.3854,10.0353,1288,2832.59
21189,1.1049,2.8252,10.7129,1275,2832.59
21194,-1.2881,-0.9924,12.2272,1269,2832.59
21199,-3.9696,0.3124,10.6518,1269,2832.59
21204,0.8296,2.8647,9.669,1271,2832.73
21209,1.7681,3.62,10.3932,1272,2832.73
21214,-1.6628,0.0251,11.9782,1272,2832.73
21219,-3.881,-0.4788,11.5592,1269,2832.73
21224,-0.1748,2.5522,9.4571,1269,2832.73
21229,1.8244,3.984,10.331,1270,2832.73
21234,-2.2087,1.0846,11.6454,1275,2832.73
21239,-3.1256,-1.0762,12.1171,1273,2832.73
21244,-1.5275,2.1308,9.3757,1271,2832.73
21249,1.8543,3.8954,10.2244,1273,2832.73
21254,-1.2354,1.7717,11.1223,1269,2832.73
21259,-2.1691,-1.5263,12.3122,1274,2832.73
21264,-2.9784,1.4365,9.7683,1275,2832.86
21269,1.5479,3.4273,10.1502,1267,2832.86
21274,0.6177,2.5941,10.756,1273,2832.86
21279,-1.4904,-1.1791,12.3194,1263,2832.86
21284,-3.8978,0.6201,10.3944,1277,2832.86
21289,1.0594,3.0478,9.833,1271,2833.13
21294,1.7071,3.4321,10.4794,1269,2833.13
21299,-1.488,-0.1844,12.1087,1273,2833.13
21304,-3.9289,-0.2143,11.2899,1267,2833.13
21309,0.1245,2.66,9.5002,1272,2833.13
21314,1.8184,3.9289,10.2544,1268,2833.13
21319,-2.1308,0.7949,11.6789,1269,2833.13
21324,-3.3842,-1.0403,11.9411,1273,2833.13
21329,-1.1947,2.1883,9.2919,1268,2832.99
21334,1.7813,3.8798,10.2939,1273,2832.99
21339,-1.749,1.585,11.2097,1271,2832.99
21344,-2.4816,-1.4317,12.2535,1275,2832.99
21349,-2.6576,1.6305,9.6115,1272,2832.73
21354,1.6532,3.5961,10.173,1271,2832.73
21359,0.1867,2.405,10.8852,1272,2832.73
21364,-1.5658,-1.2402,12.3385,1263,2832.73
21369,-3.7338,0.8296,10.3118,1275,2832.73
21374,1.2354,3.1771,9.894,1269,2832.73
21379,1.6233,3.2166,10.5046,1263,2832.73
21384,-1.33,-0.4848,12.1302,1269,2832.73
21389,-4.0235,-0.1425,11.1534,1269,2832.73
21394,0.395,2.7066,9.4763,1273,2833.13
21399,1.7885,3.8523,10.3741,1269,2833.13
21404,-1.9776,0.5459,11.8202,1263,2833.13
21409,-3.5865,-0.8715,11.8872,1273,2833.13
21414,-0.8679,2.3918,9.3015,1267,2833.4
21419,1.8471,4.0378,10.2855,1275,2833.4
21424,-2.0279,1.403,11.3772,1271,2833.4
21429,-2.6815,-1.2929,12.2499,1269,2833.4
21434,-2.2649,1.8483,9.4679,1269,2833.66
21439,1.804,3.7505,10.2041,1271,2833.66
21444,-0.2861,2.1021,10.9726,1278,2833.66
21449,-1.7609,-1.4569,12.3325,1269,2833.66
21454,-3.4812,1.0044,10.0449,1269,2833.66
21459,1.3384,3.1675,9.9048,1263,2833.66
21464,1.3192,3.0035,10.6518,1269,2833.66
21469,-1.324,-0.7877,12.1901,1263,2833.66
21474,-4.057,0.1389,10.8984,1268,2833.66
21479,0.656,2.8467,9.681,1273,2833.8
21484,1.8196,3.7673,10.4291,1269,2833.8
21489,-1.828,0.2717,11.9147,1263,2833.8
21494,-3.7816,-0.6009,11.6789,1275,2833.8
21499,-0.431,2.4612,9.3817,1272,2834.07
21504,1.8818,3.9564,10.337,1271,2834.07
21509,-2.144,1.1791,11.4958,1269,2834.07
21514,-2.9293,-1.2534,12.1613,1271,2834.07
21519,-1.8794,1.9609,9.3913,1273,2834.2
21524,1.7669,3.7745,10.2268,1273,2834.2
21529,-0.9349,1.8783,11.0672,1270,2834.2
21534,-2.0051,-1.4617,12.2799,1267,2834.2
21539,-3.2932,1.3096,9.8521,1270,2834.2
21544,1.4856,3.3686,10.0628,1275,2834.2
21549,0.9972,2.8108,10.7703,1271,2834.2
21554,-1.391,-0.9517,12.293,1261,2834.2
21559,-3.9504,0.4657,10.6781,1269,2834.2
21564,0.9086,2.9604,9.7384,1279,2834.2
21569,1.8148,3.5434,10.4291,1271,2834.2
21574,-1.561,-0.0407,12.0045,1267,2834.2
21579,-3.875,-0.4657,11.4598,1270,2834.2
21584,-0.0994,2.5259,9.3913,1268,2834.07
21589,1.8064,3.9504,10.3394,1269,2834.07
21594,-2.1739,0.9361,11.661,1273,2834.07
21599,-3.2765,-1.1289,12.0799,1269,2834.07
21604,-1.4712,2.15,9.3589,1271,2834.87
21609,1.8495,3.8966,10.2149,1275,2834.87
21614,-1.4497,1.7023,11.2252,1269,2834.87
21619,-2.2745,-1.4473,12.3158,1269,2834.87
21624,-2.8826,1.5622,9.6762,1273,2834.47
21629,1.5921,3.5303,10.064,1268,2834.47
21634,0.5088,2.5343,10.805,1275,2834.47
21639,-1.488,-1.2462,12.2607,1263,2834.47
21644,-3.8355,0.6488,10.3717,1277,2834.47
21649,1.1001,3.0562,9.8617,1267,2835.0
21654,1.7023,3.2944,10.5153,1267,2835.0
21659,-1.4174,-0.3579,12.1326,1273,2835.0
21664,-4.0294,-0.2274,11.2539,1269,2835.0
21669,0.2693,2.6767,9.4942,1275,2835.54
21674,1.8352,3.893,10.325,1271,2835.54
21679,-2.0794,0.68,11.7759,1263,2835.54
21684,-3.5195,-0.8643,11.959,1270,2835.54
21689,-1.0271,2.3128,9.335,1267,2835.54
21694,1.8794,3.9684,10.2448,1272,2835.54
21699,-1.8148,1.5215,11.3593,1267,2835.54
21704,-2.5977,-1.3862,12.1997,1271,2835.54
21709,-2.4301,1.7478,9.5313,1272,2835.27
21714,1.7478,3.6512,10.1275,1268,2835.27
21719,-0.1077,2.2182,10.9343,1279,2835.27
21724,-1.7442,-1.421,12.3481,1269,2835.27
21729,-3.62,0.9553,10.1694,1273,2835.27
21734,1.3372,3.1687,9.9288,1267,2834.73
21739,1.4413,3.0921,10.5489,1269,2834.73
21744,-1.3683,-0.7075,12.2559,1269,2834.73
21749,-4.0259,0.1233,10.9319,1271,2834.73
21754,0.5914,2.8347,9.5936,1273,2834.73
21759,1.8998,3.784,10.343,1260,2834.73
21764,-1.8495,0.4106,11.9135,1263,2834.73
21769,-3.6811,-0.7374,11.7136,1275,2834.73
21774,-0.5207,2.4038,9.323,1263,2835.14
21779,1.8387,3.972,10.3058,1269,2835.14
21784,-2.156,1.2354,11.4946,1271,2835.14
21789,-2.8718,-1.3132,12.153,1269,2835.14
21794,-2.0458,1.9166,9.3709,1279,2834.73
21799,1.7645,3.7601,10.2819,1273,2834.73
21804,-0.741,1.9992,11.0349,1268,2834.73
21809,-1.9644,-1.4341,12.3337,1263,2834.73
21814,-3.322,1.2186,9.8485,1267,2834.73
21819,1.5167,3.383,10.0377,1267,2835.0
21824,1.1049,2.8192,10.6374,1271,2835.0
21829,-1.3539,-0.9086,12.2595,1263,2835.0
21834,-4.0187,0.2981,10.6793,1271,2835.0
21839,0.8392,2.9066,9.73,1263,2835.27
21844,1.8256,3.5482,10.4303,1277,2835.27
21849,-1.6149,0.0144,12.0165,1263,2835.27
21854,-3.9121,-0.5243,11.5484,1269,2835.27
21859,-0.164,2.5115,9.3613,1273,2835.27
21864,1.8423,3.9756,10.2711,1271,2835.27
21869,-2.2685,1.0056,11.5987,1273,2835.27
21874,-3.237,-1.0822,12.1398,1273,2835.27
21879,-1.506,2.1584,9.3948,1268,2835.4
21884,1.8615,3.9157,10.246,1275,2835.4
21889,-1.3719,1.7825,11.1618,1270,2835.4
21894,-2.2338,-1.4377,12.2727,1273,2835.4
21899,-2.9437,1.4676,9.6666,1271,2835.54
21904,1.6448,3.4704,10.0664,1273,2835.54
21909,0.6381,2.5271,10.8457,1274,2835.54
21914,-1.4437,-1.1971,12.2619,1263,2835.54
21919,-3.8942,0.6033,10.4184,1272,2835.54
21924,1.0953,3.0203,9.7719,1269,2835.67
21929,1.7059,3.4022,10.4878,1267,2835.67
21934,-1.4988,-0.2873,12.0476,1269,2835.67
21939,-3.9935,-0.1939,11.2911,1271,2835.67
21944,0.243,2.6372,9.4236,1271,2835.4
21949,1.8818,3.9361,10.3896,1269,2835.4
21954,-2.1189,0.7434,11.7675,1271,2835.4
21959,-3.4369,-0.8751,11.9435,1272,2835.4
21964,-1.0642,2.2637,9.2847,1267,2835.4
21969,1.883,3.9468,10.2855,1268,2835.4
21974,-1.8064,1.4952,11.3162,1267,2835.4
21979,-2.5343,-1.4377,12.2368,1269,2835.4
21984,-2.5295,1.6735,9.5457,1271,2835.54
21989,1.6939,3.6308,10.2077,1261,2835.54
21994,-0.0204,2.2901,10.8601,1273,2835.54
21999,-1.7262,-1.3539,12.2799,1273,2835.54
22004,-3.6416,0.9529,10.167,1277,2835.54
22009,1.3108,3.2142,9.9048,1267,2835.14
22014,1.4784,3.1639,10.5117,1268,2835.14
22019,-1.3755,-0.6057,12.1841,1261,2835.14
22024,-4.0007,0.0575,11.0385,1269,2835.14
22029,0.5136,2.7821,9.5577,1272,2834.6
22034,1.8747,3.8188,10.2951,1271,2834.6
22039,-1.8926,0.3843,11.8621,1263,2834.6
22044,-3.6775,-0.7602,11.7783,1273,2834.6
22049,-0.583,2.4026,9.3242,1266,2834.73
22054,1.7753,3.9708,10.2556,1269,2834.73
22059,-2.1428,1.2713,11.461,1269,2834.73
22064,-2.8491,-1.3336,12.1721,1267,2834.73
22069,-2.0997,1.901,9.4679,1263,2835.0
22074,1.7597,3.8008,10.1622,1271,2835.0
22079,-0.6201,2.0375,11.0612,1277,2835.0
22084,-1.9237,-1.4102,12.3122,1267,2835.0
22089,-3.3579,1.2151,9.9683,1269,2835.0
22094,1.4581,3.3124,10.0018,1262,2835.0
22099,1.1911,2.8407,10.6542,1267,2835.0
22104,-1.2869,-0.9397,12.1877,1269,2835.0
22109,-4.0007,0.2813,10.7045,1271,2835.0
22114,0.7865,2.8407,9.6726,1267,2835.67
22119,1.8148,3.6129,10.3932,1267,2835.67
22124,-1.6652,0.1305,12.0572,1261,2835.67
22129,-3.8607,-0.5207,11.5927,1271,2835.67
22134,-0.2107,2.5103,9.396,1269,2835.81
22139,1.8627,3.9684,10.2927,1267,2835.81
22144,-2.1955,1.0846,11.5867,1267,2835.81
22149,-3.1831,-1.0606,12.0895,1270,2835.81
22154,-1.5838,2.0722,9.3589,1267,2836.07
22159,1.8411,3.8762,10.252,1269,2836.07
22164,-1.2713,1.7585,11.1522,1271,2836.07
22169,-2.1931,-1.5071,12.287,1263,2836.07
22174,-2.9832,1.4317,9.7061,1268,2836.07
22179,1.5886,3.4213,10.1359,1273,2836.07
22184,0.6536,2.5522,10.7009,1275,2836.07
22189,-1.4545,-1.2258,12.2679,1261,2836.07
22194,-3.9145,0.6021,10.4663,1273,2836.07
22199,1.0977,3.043,9.8174,1267,2836.48
22204,1.7394,3.4153,10.3992,1263,2836.48
22209,-1.5,-0.2251,12.1578,1271,2836.48
22214,-4.0498,-0.2693,11.3006,1271,2836.48
22219,0.2406,2.6815,9.4715,1264,2836.48
22224,1.8651,3.9217,10.319,1271,2836.48
22229,-2.1404,0.7278,11.7591,1271,2836.48
22234,-3.4093,-0.99,11.9626,1271,2836.48
22239,-1.0463,2.2769,9.2548,1263,2836.61
22244,1.8124,3.9014,10.2699,1268,2836.61
22249,-1.7789,1.5467,11.3318,1263,2836.61
22254,-2.6001,-1.4293,12.3122,1273,2836.61
22259,-2.5666,1.6592,9.5636,1271,2835.94
22264,1.6951,3.62,10.1909,1267,2835.94
22269,-0.0694,2.2673,10.92,1270,2835.94
22274,-1.7214,-1.3228,12.3122,1267,2835.94
22279,-3.6547,0.9146,10.1706,1275,2835.94
22284,1.2881,3.1999,9.9288,1263,2835.4
22289,1.5323,3.1556,10.6051,1268,2835.4
22294,-1.3479,-0.5938,12.1087,1264,2835.4
22299,-4.0701,0.0239,11.0217,1269,2835.4
22304,0.516,2.7174,9.5708,1273,2835.4
22309,1.8483,3.7481,10.4028,1263,2835.4
22314,-1.9297,0.3855,11.8333,1255,2835.4
22319,-3.729,-0.814,11.7938,1267,2835.4
22324,-0.6261,2.3715,9.2811,1263,2835.54
22329,1.804,4.0139,10.3166,1271,2835.54
22334,-2.1668,1.2833,11.4359,1269,2835.54
22339,-2.8754,-1.2582,12.202,1269,2835.54
22344,-2.0614,1.9166,9.4236,1268,2835.54
22349,1.834,3.802,10.2304,1269,2835.54
22354,-0.6823,2.0494,11.0109,1276,2835.54
22359,-1.9225,-1.4449,12.293,1269,2835.54
22364,-3.3686,1.1983,9.9036,1271,2835.54
22369,1.4808,3.2992,9.9635,1259,2835.67
22374,1.1528,2.8276,10.6338,1267,2835.67
22379,-1.3503,-0.9708,12.2631,1269,2835.67
22384,-4.0618,0.3065,10.8194,1269,2835.67
22389,0.8021,2.8958,9.681,1270,2835.81
22394,1.8627,3.644,10.4471,1263,2835.81
22399,-1.6927,0.0862,12.0117,1261,2835.81
22404,-3.9061,-0.4693,11.5951,1275,2835.81
22409,-0.1784,2.545,9.3613,1267,2835.67
22414,1.8794,4.039,10.2843,1259,2835.67
22419,-2.2182,1.0654,11.6083,1267,2835.67
22424,-3.14,-1.1073,12.1039,1269,2835.67
22429,-1.549,2.0925,9.2979,1271,2835.94
22434,1.81,3.8343,10.2364,1273,2835.94
22439,-1.3228,1.8028,11.1761,1269,2835.94
22444,-2.1847,-1.5467,12.2547,1267,2835.94
22449,-2.9999,1.4341,9.7468,1271,2835.94
22454,1.5598,3.4967,10.1023,1271,2836.07
22459,0.6165,2.5821,10.8086,1274,2836.07
22464,-1.5167,-1.1696,12.323,1263,2836.07
22469,-3.8906,0.5986,10.471,1263,2836.07
22474,1.1708,3.0454,9.8043,1267,2836.34
22479,1.7669,3.4117,10.4722,1271,2836.34
22484,-1.47,-0.2406,12.1075,1271,2836.34
22489,-3.9923,-0.2394,11.3006,1269,2836.34
22494,0.1927,2.63,9.4403,1263,2835.81
22499,1.8543,3.881,10.337,1269,2835.81
22504,-2.0901,0.6871,11.716,1264,2835.81
22509,-3.4536,-0.9589,11.8681,1269,2835.81
22514,-1.0678,2.2146,9.3063,1263,2836.48
22519,1.81,3.9205,10.2759,1267,2836.48
22524,-1.8471,1.5143,11.4263,1269,2836.48
22529,-2.569,-1.3563,12.3409,1272,2836.48
22534,-2.5211,1.7202,9.5828,1271,2835.94
22539,1.7705,3.6775,10.1215,1263,2835.94
22544,0.0108,2.3068,10.9044,1271,2835.94
22549,-1.6197,-1.3252,12.3038,1261,2835.94
22554,-3.6619,0.9182,10.2017,1277,2835.94
22559,1.2821,3.1424,9.9395,1251,2836.88
22564,1.506,3.1053,10.5788,1268,2836.88
22569,-1.3252,-0.6357,12.1482,1260,2836.88
22574,-4.051,0.0527,10.9427,1273,2836.88
22579,0.5674,2.7545,9.584,1267,2837.15
22584,1.8603,3.7517,10.3609,1267,2837.15
22589,-1.8854,0.3843,11.9566,1263,2837.15
22594,-3.7373,-0.7051,11.7867,1267,2837.15
22599,-0.5543,2.4301,9.3386,1267,2837.55
22604,1.8399,4.0091,10.2412,1275,2837.55
22609,-2.1524,1.2665,11.5053,1264,2837.55
22614,-2.8754,-1.2342,12.1685,1263,2837.55
22619,-1.9848,1.9201,9.3541,1263,2837.95
22624,1.8591,3.7697,10.2687,1269,2837.95
22629,-0.7111,1.9609,11.0397,1285,2837.95
22634,-1.9537,-1.5167,12.305,1263,2837.95
22639,-3.3016,1.1959,9.8294,1268,2837.95
22644,1.4545,3.2836,10.0533,1267,2838.22
22649,1.0139,2.8132,10.6662,1267,2838.22
22654,-1.4078,-1.0343,12.2559,1264,2838.22
22659,-4.0546,0.4417,10.665,1272,2838.22
22664,0.923,2.9724,9.7695,1263,2837.55
22669,1.8328,3.5949,10.4447,1269,2837.55
22674,-1.6245,0.0802,12.044,1261,2837.55
22679,-3.8954,-0.4298,11.5161,1273,2837.55
22684,-0.0491,2.5809,9.3709,1271,2837.68
22689,1.901,3.9708,10.3046,1268,2837.68
22694,-2.1679,0.9649,11.6083,1271,2837.68
22699,-3.2489,-1.1337,12.0704,1263,2837.68
22704,-1.4078,2.0961,9.3278,1268,2837.95
22709,1.8375,3.8738,10.2412,1271,2837.95
22714,-1.494,1.6951,11.1881,1267,2837.95
22719,-2.3607,-1.409,12.2918,1267,2837.95
22724,-2.8587,1.5694,9.645,1271,2837.68
22729,1.64,3.5913,10.1394,1271,2837.68
22734,0.4298,2.5055,10.8134,1271,2837.68
22739,-1.5682,-1.2474,12.3134,1263,2837.68
22744,-3.8343,0.723,10.3681,1273,2837.68
22749,1.1624,3.1077,9.8258,1267,2838.22
22754,1.7226,3.2789,10.5249,1267,2838.22
22759,-1.4126,-0.3926,12.1625,1269,2838.22
22764,-4.0354,-0.2011,11.2204,1271,2838.22
22769,0.3172,2.6516,9.5002,1269,2838.22
22774,1.8459,3.8235,10.4327,1267,2838.22
22779,-2.0267,0.6153,11.8357,1267,2838.22
22784,-3.6464,-0.8464,11.8992,1272,2838.22
22789,-0.8799,2.3272,9.2596,1267,2838.36
22794,1.828,4.0462,10.3011,1271,2838.36
22799,-1.986,1.4449,11.4551,1268,2838.36
22804,-2.7473,-1.3156,12.2176,1268,2838.36
22809,-2.308,1.8375,9.487,1269,2838.36
22814,1.8148,3.7158,10.1754,1263,2838.36
22819,-0.3364,2.1249,11.0301,1271,2838.36
22824,-1.7753,-1.4581,12.3122,1269,2838.36
22829,-3.535,1.0259,10.0078,1272,2838.36
22834,1.3647,3.2046,9.9419,1263,2838.49
22839,1.318,2.9928,10.6853,1267,2838.49
22844,-1.4126,-0.8404,12.2356,1269,2838.49
22849,-4.1216,0.2346,10.9128,1267,2838.49
22854,0.7458,2.8599,9.6546,1271,2838.49
22859,1.8615,3.8199,10.4507,1269,2838.49
22864,-1.8352,0.2274,11.9626,1257,2838.49
22869,-3.869,-0.5207,11.6406,1270,2838.49
22874,-0.2981,2.4636,9.3158,1263,2838.49
22879,1.8962,3.9995,10.3382,1267,2838.49
22884,-2.2075,1.0965,11.5149,1270,2838.49
22889,-3.0813,-1.2139,12.1063,1263,2838.49
22894,-1.6484,2.0339,9.3649,1271,2838.22
22899,1.8316,3.7517,10.2005,1269,2838.22
22904,-1.1193,1.828,11.1115,1269,2838.22
22909,-2.1775,-1.5407,12.3134,1260,2838.22
22914,-3.0801,1.4018,9.7444,1266,2838.22
22919,1.5658,3.3986,10.1538,1263,2838.09
22924,0.7123,2.6755,10.8158,1272,2838.09
22929,-1.4784,-1.1265,12.3098,1259,2838.09
22934,-3.9229,0.583,10.4866,1267,2838.09
22939,1.0702,3.0394,9.7276,1263,2837.42
22944,1.828,3.4536,10.5129,1268,2837.42
22949,-1.4401,-0.2263,12.0488,1267,2837.42
22954,-3.9277,-0.34,11.3222,1264,2837.42
22959,0.1472,2.6073,9.3889,1267,2837.15
22964,1.907,3.8678,10.3298,1269,2837.15
22969,-2.1213,0.7793,11.7519,1267,2837.15
22974,-3.4285,-1.002,11.9459,1273,2837.15
22979,-1.1672,2.2601,9.3027,1269,2837.42
22984,1.8184,3.9516,10.2663,1274,2837.42
22989,-1.7849,1.5706,11.3485,1263,2837.42
22994,-2.4995,-1.3755,12.2631,1271,2837.42
22999,-2.6205,1.6927,9.5421,1271,2837.55
23004,1.7226,3.6452,10.1347,1263,2837.55
23009,0.1413,2.3655,10.8733,1289,2837.55
23014,-1.6257,-1.3587,12.3038,1260,2837.55
23019,-3.7002,0.8715,10.2041,1272,2837.55
23024,1.3024,3.134,9.8928,1264,2837.42
23029,1.549,3.1244,10.5477,1263,2837.42
23034,-1.3491,-0.6057,12.2607,1271,2837.42
23039,-4.0821,-0.018,11.0672,1268,2837.42
23044,0.5231,2.7653,9.5636,1272,2837.42
23049,1.8304,3.8092,10.4112,1267,2837.42
23054,-1.9225,0.4525,11.8788,1263,2837.42
23059,-3.6966,-0.6943,11.7472,1271,2837.42
23064,-0.5866,2.4469,9.3338,1267,2837.55
23069,1.9309,4.0079,10.3094,1274,2837.55
23074,-2.0602,1.2917,11.4766,1265,2837.55
23079,-2.8515,-1.3024,12.2212,1269,2837.55
23084,-2.0375,1.8962,9.335,1271,2837.42
23089,1.8064,3.7254,10.1706,1259,2837.42
23094,-0.6967,1.9956,10.9666,1273,2837.42
23099,-1.9441,-1.488,12.3505,1268,2837.42
23104,-3.3758,1.2019,9.9216,1275,2837.42
23109,1.4676,3.2848,10.0413,1259,2837.95
23114,1.0618,2.8359,10.7464,1263,2837.95
23119,-1.391,-0.9553,12.232,1262,2837.95
23124,-4.0366,0.3615,10.6722,1267,2837.95
23129,0.8894,2.964,9.6498,1272,2838.09
23134,1.8806,3.6452,10.4543,1264,2838.09
23139,-1.652,0.0431,12.0105,1259,2838.09
23144,-3.899,-0.4621,11.4934,1271,2838.09
23149,-0.1532,2.5666,9.3398,1263,2837.82
23154,1.8615,3.9804,10.2951,1263,2837.82
23159,-2.1787,0.9445,11.6011,1263,2837.82
23164,-3.2453,-1.1516,12.1542,1271,2837.82
23169,-1.5071,2.1105,9.3027,1267,2837.55
23174,1.8052,3.899,10.2699,1271,2837.55
23179,-1.4293,1.7238,11.2132,1263,2837.55
23184,-2.3272,-1.4018,12.3074,1259,2837.55
23189,-2.9221,1.5263,9.6546,1272,2837.55
23194,1.6484,3.5171,10.0533,1269,2837.15
23199,0.5171,2.5031,10.8062,1271,2837.15
23204,-1.4868,-1.1779,12.2846,1262,2837.15
23209,-3.8331,0.6668,10.4256,1263,2837.15
23214,1.1289,3.061,9.7863,1263,2836.34
23219,1.6999,3.3339,10.5369,1269,2836.34
23224,-1.4341,-0.3627,12.0297,1268,2836.34
23229,-4.0211,-0.2059,11.248,1269,2836.34
23234,0.2514,2.6671,9.4308,1263,2836.21
23239,1.8387,3.9002,10.3418,1263,2836.21
23244,-2.1249,0.6404,11.8453,1271,2836.21
23249,-3.5578,-0.899,11.9566,1268,2836.21
23254,-0.9613,2.332,9.2859,1263,2836.21
23259,1.8375,3.9923,10.2711,1268,2836.21
23264,-1.9178,1.47,11.382,1267,2836.21
23269,-2.5845,-1.3599,12.2619,1271,2836.21
23274,-2.4385,1.737,9.4751,1273,2836.34
23279,1.7514,3.6835,10.1526,1263,2836.34
23284,-0.1425,2.2063,10.9547,1267,2836.34
23289,-1.7478,-1.4389,12.3206,1260,2836.34
23294,-3.6009,0.9912,10.0904,1273,2836.34
23299,1.3108,3.201,9.8593,1263,2836.34
23304,1.3838,3.0957,10.6482,1263,2836.34
23309,-1.385,-0.7242,12.1985,1258,2836.34
23314,-4.0115,0.1448,10.975,1263,2836.34
23319,0.6644,2.7928,9.5888,1269,2836.48
23324,1.8878,3.7589,10.4387,1269,2836.48
23329,-1.8663,0.34,11.8836,1263,2836.48
23334,-3.7206,-0.6081,11.6969,1269,2836.48
23339,-0.4405,2.4157,9.3398,1267,2836.88
23344,1.9118,3.9971,10.2867,1272,2836.88
23349,-2.1775,1.1911,11.5041,1269,2836.88
23354,-2.9604,-1.3084,12.1326,1271,2836.88
23359,-1.889,1.9333,9.3853,1267,2837.01
23364,1.7382,3.7613,10.2197,1261,2837.01
23369,-0.9182,1.9501,11.054,1274,2837.01
23374,-2.0375,-1.4557,12.2775,1267,2837.01
23379,-3.2669,1.306,9.8881,1273,2837.01
23384,1.5203,3.3483,10.1071,1267,2836.88
23389,1.0092,2.7976,10.7416,1264,2836.88
23394,-1.3707,-1.0127,12.2823,1263,2836.88
23399,-3.9708,0.4573,10.6027,1267,2836.88
23404,0.9194,2.9497,9.6989,1271,2836.75
23409,1.8675,3.5279,10.4196,1266,2836.75
23414,-1.5694,-0.079,12.05,1262,2836.75
23419,-3.9528,-0.4441,11.4551,1273,2836.75
23424,-0.0383,2.5821,9.3996,1269,2836.88
23429,1.8531,3.9157,10.307,1267,2836.88
23434,-2.1691,0.9242,11.6969,1262,2836.88
23439,-3.3172,-1.0511,12.0548,1262,2836.88
23444,-1.3587,2.235,9.3613,1267,2837.15
23449,1.8759,3.9181,10.2975,1271,2837.15
23454,-1.5155,1.7322,11.2252,1263,2837.15
23459,-2.3739,-1.4138,12.2787,1263,2837.15
23464,-2.824,1.6209,9.5672,1269,2837.15
23469,1.6544,3.5482,10.0592,1269,2837.28
23474,0.3735,2.411,10.7655,1271,2837.28
23479,-1.4988,-1.33,12.2703,1262,2837.28
23484,-3.7924,0.741,10.2663,1261,2837.28
23489,1.1815,3.0849,9.8533,1267,2837.15
23494,1.6065,3.2417,10.5189,1267,2837.15
23499,-1.4329,-0.4393,12.129,1263,2837.15
23504,-4.0558,-0.0862,11.1438,1268,2837.15
23509,0.3855,2.7198,9.5277,1263,2837.28
23514,1.8208,3.9002,10.4172,1267,2837.28
23519,-2.0578,0.6057,11.8046,1264,2837.28
23524,-3.5554,-0.7997,11.8082,1269,2837.28
23529,-0.8272,2.3391,9.3374,1267,2837.01
23534,1.8806,4.039,10.3118,1267,2837.01
23539,-1.9848,1.4413,11.3557,1263,2837.01
23544,-2.6432,-1.3563,12.22,1275,2837.01
23549,-2.2709,1.8028,9.4439,1273,2836.48
23554,1.7705,3.6966,10.2173,1261,2836.48
23559,-0.4501,2.1141,10.9499,1266,2836.48
23564,-1.8352,-1.4569,12.2918,1263,2836.48
23569,-3.5039,1.0475,10.082,1273,2836.48
23574,1.3862,3.2825,9.9623,1268,2836.34
23579,1.3108,2.9844,10.6506,1269,2836.34
23584,-1.3623,-0.7985,12.1901,1263,2836.34
23589,-4.0055,0.2119,10.8493,1267,2836.34
23594,0.7242,2.8395,9.5768,1269,2836.07
23599,1.9213,3.7026,10.4459,1263,2836.07
23604,-1.7621,0.2227,11.9483,1257,2836.07
23609,-3.7792,-0.6512,11.6861,1263,2836.07
23614,-0.3484,2.4768,9.2967,1263,2836.21
23619,1.8842,3.9744,10.3178,1269,2836.21
23624,-2.2122,1.1241,11.5281,1271,2836.21
23629,-3.037,-1.2127,12.1518,1266,2836.21
23634,-1.7873,2.0039,9.3565,1263,2836.07
23639,1.7885,3.8331,10.2867,1267,2836.07
23644,-1.1145,1.883,11.1809,1273,2836.07
23649,-2.0997,-1.403,12.3385,1262,2836.07
23654,-3.1376,1.3539,9.7312,1271,2836.07
23659,1.5586,3.4405,10.1023,1261,2836.07
23664,0.8859,2.7258,10.7356,1268,2836.07
23669,-1.4317,-1.0618,12.2104,1268,2836.07
23674,-3.8666,0.48,10.58,1267,2836.07
23679,0.9577,2.9281,9.7384,1269,2835.54
23684,1.7777,3.5015,10.4818,1267,2835.54
23689,-1.5048,-0.1472,11.9973,1260,2835.54
23694,-3.948,-0.3711,11.4383,1275,2835.54
23699,0.0455,2.5798,9.4236,1267,2835.14
23704,1.8615,3.9744,10.3525,1260,2835.14
23709,-2.2098,0.9014,11.6969,1263,2835.14
23714,-3.322,-0.9912,12.0249,1269,2835.14
23719,-1.3108,2.1955,9.3003,1269,2834.87
23724,1.8651,3.9672,10.2699,1270,2834.87
23729,-1.6305,1.6305,11.2827,1267,2834.87
23734,-2.3858,-1.4329,12.2356,1263,2834.87
23739,-2.7138,1.5467,9.6355,1267,2834.87
23744,1.7071,3.571,10.0916,1271,2835.27
23749,0.3208,2.3846,10.823,1269,2835.27
23754,-1.5359,-1.3372,12.2667,1262,2835.27
23759,-3.7733,0.7769,10.3034,1263,2835.27
23764,1.1911,3.073,9.8689,1263,2835.27
23769,1.6604,3.2501,10.5189,1268,2835.27
23774,-1.397,-0.4884,12.1494,1267,2835.27
23779,-4.0606,-0.0862,11.2025,1259,2835.27
23784,0.3915,2.7234,9.5373,1261,2835.14
23789,1.9046,3.8654,10.3489,1268,2835.14
23794,-1.998,0.5818,11.8321,1269,2835.14
23799,-3.547,-0.826,11.8345,1269,2835.14
23804,-0.7985,2.3355,9.2979,1267,2835.54
23809,1.8675,3.9588,10.2735,1269,2835.54
23814,-2.0327,1.3838,11.4299,1267,2835.54
23819,-2.715,-1.3491,12.2248,1268,2835.54
23824,-2.3092,1.8304,9.4583,1273,2835.81
23829,1.7286,3.723,10.1921,1263,2835.81
23834,-0.3292,2.2015,10.9882,1267,2835.81
23839,-1.8435,-1.4425,12.2942,1257,2835.81
23844,-3.535,1.0798,10.0521,1275,2835.81
23849,1.3695,3.2477,9.9826,1262,2836.07
23854,1.342,3.0526,10.647,1267,2836.07
23859,-1.33,-0.7614,12.2356,1259,2836.07
23864,-4.027,0.1628,10.8314,1269,2836.07
23869,0.6656,2.8323,9.6319,1268,2835.94
23874,1.8507,3.699,10.3453,1263,2835.94
23879,-1.7394,0.2131,11.9291,1260,2835.94
23884,-3.8092,-0.6668,11.6478,1269,2835.94
23889,-0.3699,2.4612,9.3075,1261,2836.21
23894,1.8256,3.9636,10.3394,1269,2836.21
23899,-2.1775,1.1636,11.6095,1267,2836.21
23904,-3.0406,-1.2043,12.153,1269,2836.21
23909,-1.798,2.0339,9.3158,1267,2836.34
23914,1.8435,3.8738,10.1957,1263,2836.34
23919,-1.0451,1.883,11.1007,1273,2836.34
23924,-2.0602,-1.4389,12.3505,1263,2836.34
23929,-3.2082,1.3647,9.7731,1273,2836.34
23934,1.5706,3.4417,10.0521,1263,2836.61
23939,0.9146,2.6348,10.7164,1263,2836.61
23944,-1.3791,-1.1013,12.2535,1267,2836.61
23949,-3.9684,0.4645,10.5189,1274,2836.61
23954,0.9876,2.9221,9.7528,1270,2836.75
23959,1.7549,3.4644,10.5082,1263,2836.75
23964,-1.5874,-0.164,12.1135,1261,2836.75
23969,-4.0187,-0.3472,11.4215,1271,2836.75
23974,0.0335,2.6217,9.4116,1269,2836.61
23979,1.8735,3.9552,10.3753,1266,2836.61
23984,-2.1512,0.9074,11.7316,1267,2836.61
23989,-3.3495,-0.9972,11.9914,1257,2836.61
23994,-1.2306,2.2039,9.2763,1269,2836.75
23999,1.8818,3.96,10.3094,1275,2836.75
24004,-1.6424,1.6293,11.2372,1269,2836.75
24009,-2.4098,-1.4988,12.2619,1261,2836.75
24014,-2.6911,1.5826,9.5732,1267,2836.75
24019,1.6688,3.5386,10.1694,1263,2836.61
24024,0.17,2.3786,10.8517,1269,2836.61
24029,-1.6077,-1.3312,12.3254,1259,2836.61
24034,-3.7936,0.8068,10.2783,1263,2836.61
24039,1.1899,3.134,9.8904,1261,2836.61
24044,1.5921,3.2358,10.55,1269,2836.61
24049,-1.391,-0.4717,12.123,1267,2836.61
24054,-4.0558,-0.0407,11.1642,1267,2836.61
24059,0.4657,2.7605,9.5158,1263,2836.48
24064,1.889,3.8738,10.4196,1269,2836.48
24069,-1.992,0.5207,11.8154,1267,2836.48
24074,-3.6164,-0.826,11.8812,1268,2836.48
24079,-0.7362,2.3427,9.2237,1264,2836.61
24084,1.8232,3.9409,10.2867,1268,2836.61
24089,-2.0339,1.3408,11.4096,1267,2836.61
24094,-2.739,-1.3156,12.2356,1273,2836.61
24099,-2.2254,1.8543,9.4092,1269,2836.75
24104,1.7849,3.7397,10.2292,1261,2836.75
24109,-0.4381,2.1213,10.9978,1268,2836.75
24114,-1.8699,-1.4078,12.2906,1261,2836.75
24119,-3.45,1.1396,9.9874,1274,2836.75
24124,1.4545,3.2968,9.9323,1262,2837.01
24129,1.2881,2.9245,10.6506,1263,2837.01
24134,-1.3551,-0.832,12.2284,1261,2837.01
24139,-4.0282,0.243,10.7727,1263,2837.01
24144,0.7374,2.8024,9.6355,1269,2836.88
24149,1.907,3.6571,10.4327,1268,2836.88
24154,-1.7178,0.1616,11.9686,1261,2836.88
24159,-3.8487,-0.5614,11.6083,1263,2836.88
24164,-0.2945,2.4612,9.3075,1262,2836.88
24169,1.889,4.0079,10.3166,1272,2836.88
24174,-2.2637,1.0894,11.6035,1267,2836.88
24179,-3.1041,-1.093,12.123,1258,2836.88
24184,-1.6855,2.1045,9.3757,1267,2837.01
24189,1.8771,3.869,10.2484,1264,2837.01
24194,-1.1935,1.8495,11.1294,1273,2837.01
24199,-2.1249,-1.5048,12.2978,1263,2837.01
24204,-3.0514,1.3922,9.7444,1273,2837.01
24209,1.5622,3.3854,10.0844,1259,2836.75
24214,0.7685,2.6157,10.7595,1263,2836.75
24219,-1.4952,-1.1983,12.2858,1263,2836.75
24224,-3.9349,0.5686,10.5058,1267,2836.75
24229,1.0355,3.0071,9.7839,1269,2837.01
24234,1.7023,3.4536,10.4998,1266,2837.01
24239,-1.5526,-0.2322,12.0716,1259,2837.01
24244,-4.0043,-0.2646,11.3186,1274,2837.01
24249,0.158,2.6779,9.4571,1264,2836.75
24254,1.9058,3.9409,10.3322,1267,2836.75
24259,-2.1943,0.8068,11.7304,1260,2836.75
24264,-3.4129,-0.9816,11.9112,1269,2836.75
24269,-1.0953,2.2517,9.2895,1269,2836.48
24274,1.8615,3.9193,10.2316,1267,2836.48
24279,-1.7549,1.5431,11.2539,1263,2836.48
24284,-2.4732,-1.4844,12.2619,1261,2836.48
24289,-2.5869,1.6245,9.5457,1271,2836.48
24294,1.6843,3.5686,10.1634,1271,2836.07
24299,0.0479,2.314,10.8924,1269,2836.07
24304,-1.6376,-1.3036,12.2906,1255,2836.07
24309,-3.6739,0.9038,10.1825,1269,2836.07
24314,1.2438,3.1771,9.8928,1263,2836.21
24319,1.5275,3.2022,10.5309,1269,2836.21
24324,-1.4078,-0.5243,12.208,1264,2836.21
24329,-4.0079,0.018,11.0397,1259,2836.21
24334,0.4908,2.7545,9.5277,1256,2836.34
24339,1.883,3.7326,10.4016,1263,2836.34
24344,-1.9094,0.4345,11.8202,1270,2836.34
24349,-3.6835,-0.8511,11.7172,1269,2836.34
24354,-0.662,2.3559,9.3039,1263,2836.48
24359,1.8196,3.948,10.3286,1267,2836.48
24364,-2.1045,1.324,11.4646,1261,2836.48
24369,-2.8479,-1.3216,12.1913,1270,2836.48
24374,-2.1237,1.9297,9.4236,1261,2836.75
24379,1.7741,3.7505,10.2316,1261,2836.75
24384,-0.6357,2.0842,10.9475,1267,2836.75
24389,-1.9082,-1.4198,12.2739,1260,2836.75
24394,-3.4081,1.166,9.9383,1273,2836.75
24399,1.4736,3.2657,10.0401,1259,2836.75
24404,1.1815,2.7916,10.6722,1263,2836.75
24409,-1.3336,-0.9577,12.2463,1261,2836.75
24414,-4.0354,0.2538,10.7344,1269,2836.75
24419,0.8404,2.8826,9.6702,1267,2836.34
24424,1.8328,3.6033,10.4734,1261,2836.34
24429,-1.6999,0.0814,11.9614,1267,2836.34
24434,-3.9313,-0.4776,11.6322,1263,2836.34
24439,-0.1903,2.5426,9.3673,1261,2836.34
24444,1.8771,4.0426,10.3142,1273,2836.34
24449,-2.2446,1.0726,11.5113,1267,2836.34
24454,-3.128,-1.0606,12.0704,1268,2836.34
24459,-1.5,2.0243,9.2763,1263,2836.48
24464,1.8735,3.887,10.2352,1261,2836.48
24469,-1.2749,1.7573,11.1378,1273,2836.48
24474,-2.1931,-1.4784,12.2451,1263,2836.48
24479,-3.0131,1.4054,9.7037,1271,2836.48
24484,1.5622,3.4165,10.1514,1263,2836.48
24489,0.5746,2.5881,10.7835,1258,2836.48
24494,-1.5179,-1.1768,12.3553,1263,2836.48
24499,-3.9217,0.6069,10.4651,1260,2836.48
24504,1.1085,3.0287,9.8007,1271,2836.48
24509,1.7226,3.4668,10.5417,1267,2836.48
24514,-1.4856,-0.2406,12.0273,1259,2836.48
24519,-3.96,-0.2083,11.3042,1272,2836.48
24524,0.2622,2.6504,9.4212,1267,2836.34
24529,1.913,3.8607,10.3382,1263,2836.34
24534,-2.077,0.68,11.7304,1263,2836.34
24539,-3.4704,-0.9601,11.9195,1263,2836.34
24544,-1.1001,2.2051,9.2823,1261,2836.48
24549,1.8328,3.9433,10.2963,1269,2836.48
24554,-1.8603,1.5179,11.2707,1263,2836.48
24559,-2.5965,-1.3743,12.208,1261,2836.48
24564,-2.5474,1.7418,9.5541,1269,2836.48
24569,1.7035,3.7098,10.1706,1269,2837.82
24574,-0.0575,2.3176,10.8828,1269,2837.82
24579,-1.6556,-1.3467,12.3098,1259,2837.82
24584,-3.6643,0.9613,10.1622,1271,2837.82
24589,1.3108,3.1735,9.9204,1262,2837.68
24594,1.5455,3.0801,10.5955,1267,2837.68
24599,-1.3288,-0.6883,12.1278,1268,2837.68
24604,-4.0438,0.0407,10.9319,1263,2837.68
24609,0.5842,2.733,9.5205,1259,2837.28
24614,1.8579,3.7733,10.3801,1267,2837.28
24619,-1.8938,0.3723,11.9315,1263,2837.28
24624,-3.7661,-0.6548,11.7507,1269,2837.28
24629,-0.5207,2.4612,9.3206,1267,2837.28
24634,1.8471,4.0654,10.3465,1263,2837.28
24639,-2.1763,1.2893,11.4383,1263,2837.28
24644,-2.8898,-1.2091,12.1721,1273,2837.28
24649,-1.9848,1.962,9.4176,1271,2836.75
24654,1.8663,3.7984,10.2101,1263,2836.75
24659,-0.7697,1.9764,11.0636,1267,2836.75
24664,-1.9644,-1.5347,12.2655,1261,2836.75
24669,-3.3148,1.1935,9.8485,1275,2836.75
24674,1.4772,3.3004,10.0449,1263,2836.48
24679,1.0163,2.8036,10.7105,1263,2836.48
24684,-1.415,-1.0511,12.2739,1260,2836.48
24689,-3.9804,0.3807,10.6183,1268,2836.48
24694,0.8523,2.9125,9.7612,1267,2836.61
24699,1.7945,3.62,10.4531,1261,2836.61
24704,-1.6735,0.0634,12.0009,1263,2836.61
24709,-3.9133,-0.4058,11.4575,1263,2836.61
24714,-0.0563,2.5774,9.3793,1261,2837.01
24719,1.895,3.9588,10.3226,1267,2837.01
24724,-2.2242,0.9517,11.6215,1267,2837.01
24729,-3.2202,-1.1001,12.0033,1261,2837.01
24734,-1.4317,2.1404,9.3218,1260,2837.28
24739,1.7968,3.8427,10.2328,1263,2837.28
24744,-1.421,1.6867,11.1833,1274,2837.28
24749,-2.3367,-1.5119,12.3026,1261,2837.28
24754,-2.9293,1.5167,9.6929,1269,2837.28
24759,1.6281,3.5566,10.1418,1259,2837.42
24764,0.4597,2.4936,10.8745,1267,2837.42
24769,-1.5634,-1.2151,12.3194,1263,2837.42
24774,-3.8223,0.7242,10.3501,1261,2837.42
24779,1.1839,3.0754,9.8378,1259,2837.55
24784,1.7561,3.3028,10.4627,1261,2837.55
24789,-1.3743,-0.3675,12.1434,1259,2837.55
24794,-3.9947,-0.243,11.2073,1271,2837.55
24799,0.3053,2.654,9.4511,1269,2837.42
24804,1.8603,3.8056,10.3418,1263,2837.42
24809,-2.0327,0.5483,11.819,1259,2837.42
24814,-3.6296,-0.911,11.8812,1266,2837.42
24819,-0.9254,2.3056,9.3194,1263,2836.88
24824,1.8519,4.0043,10.2807,1275,2836.88
24829,-2.0363,1.5071,11.3509,1267,2836.88
24834,-2.6827,-1.2929,12.2416,1263,2836.88
24839,-2.3284,1.8196,9.4176,1267,2836.88
24844,1.798,3.7517,10.167,1263,2837.82
24849,-0.2897,2.1476,10.8793,1269,2837.82
24854,-1.719,-1.4078,12.2559,1260,2837.82
24859,-3.5458,1.0151,10.0006,1273,2837.82
24864,1.342,3.1927,9.9323,1263,2837.15
24869,1.3994,3.0059,10.6338,1267,2837.15
24874,-1.3156,-0.7793,12.2128,1263,2837.15
24879,-4.0989,0.1197,10.8421,1267,2837.15
24884,0.6692,2.8431,9.5696,1263,2837.55
24889,1.8304,3.7828,10.4639,1267,2837.55
24894,-1.8747,0.3041,11.9243,1269,2837.55
24899,-3.8116,-0.5986,11.7256,1267,2837.55
24904,-0.3615,2.5091,9.2919,1266,2837.55
24909,1.9094,4.033,10.2903,1261,2837.55
24914,-2.1787,1.1959,11.4682,1263,2837.55
24919,-2.9904,-1.2605,12.0883,1269,2837.55
24924,-1.8016,1.9896,9.3218,1269,2837.55
24929,1.8603,3.8008,10.222,1261,2837.55
24934,-1.0319,1.822,11.0935,1260,2837.55
24939,-2.0985,-1.494,12.2775,1259,2837.55
24944,-3.1496,1.3012,9.7815,1273,2837.55
24949,1.5682,3.4429,10.0676,1263,2837.68
24954,0.832,2.715,10.7536,1263,2837.68
24959,-1.4341,-1.0439,12.2296,1259,2837.68
24964,-3.9492,0.5207,10.5967,1269,2837.68
24969,1.0092,2.9999,9.7312,1271,2837.95
24974,1.834,3.468,10.4603,1263,2837.95
24979,-1.5083,-0.1209,12.056,1260,2837.95
24984,-3.9337,-0.3579,11.3737,1272,2837.95
24989,0.0778,2.5774,9.347,1261,2837.95
24994,1.9142,3.8918,10.3286,1261,2837.95
24999,-2.2015,0.8068,11.7005,1263,2837.95
25004,-3.3866,-1.0355,11.9854,1263,2837.95
25009,-1.2091,2.1979,9.2979,1268,2837.95
25014,1.7741,3.9492,10.3226,1259,2837.95
25019,-1.7669,1.5933,11.3138,1270,2837.95
25024,-2.4732,-1.391,12.2691,1263,2837.95
25029,-2.6695,1.6472,9.5624,1266,2837.95
25034,1.749,3.6428,10.1083,1263,2837.68
25039,0.2227,2.387,10.9523,1255,2837.68
25044,-1.6005,-1.3216,12.3421,1261,2837.68
25049,-3.735,0.8272,10.2089,1263,2837.68
25054,1.2917,3.0945,9.8952,1271,2837.42
25059,1.5933,3.1388,10.58,1263,2837.42
25064,-1.3539,-0.595,12.1566,1261,2837.42
25069,-4.0558,-0.0515,11.072,1264,2837.42
25074,0.4633,2.7402,9.5505,1269,2837.28
25079,1.8615,3.8176,10.398,1260,2837.28
25084,-1.9896,0.51,11.9147,1270,2837.28
25089,-3.7026,-0.753,11.8094,1270,2837.28
25094,-0.6369,2.3954,9.3218,1263,2837.28
25099,1.9321,4.0235,10.2783,1272,2837.28
25104,-2.1332,1.3384,11.4251,1262,2837.28
25109,-2.8012,-1.2905,12.2092,1274,2837.28
25114,-2.1081,1.8854,9.4451,1270,2837.42
25119,1.8256,3.6943,10.2005,1263,2837.42
25124,-0.5866,2.0195,10.987,1269,2837.42
25129,-1.8603,-1.5526,12.2763,1259,2837.42
25134,-3.4201,1.1887,9.9311,1274,2837.42
25139,1.4413,3.2825,10.0269,1263,2838.09
25144,1.1732,2.885,10.738,1269,2838.09
25149,-1.4114,-0.9242,12.2583,1263,2838.09
25154,-4.0486,0.3723,10.7392,1267,2838.09
25159,0.8404,2.8994,9.6654,1261,2838.09
25164,1.8806,3.6775,10.4639,1264,2838.09
25169,-1.7202,0.0994,12.0309,1261,2838.09
25174,-3.8427,-0.4932,11.5317,1267,2838.09
25179,-0.1269,2.5091,9.3529,1262,2837.95
25184,1.9297,3.9337,10.2675,1267,2837.95
25189,-2.1799,0.996,11.6298,1267,2837.95
25194,-2.3954,-1.488,12.3445,1274,2837.95
25199,-1.5526,2.0925,9.3314,1269,2837.95
25204,1.6388,3.5374,10.1694,1263,2837.95
25209,0.3388,2.4924,10.8326,1272,2837.95
25214,-1.5754,-1.2462,12.3098,1263,2837.95
25219,-3.7948,0.7578,10.3142,1269,2837.95
25224,1.2186,3.146,9.8617,1263,2837.95
25229,1.6795,3.2848,10.5584,1261,2837.95
25234,-1.3611,-0.3962,12.1602,1261,2837.95
25239,-4.0199,-0.1951,11.0864,1263,2837.95
25244,0.395,2.6827,9.5158,1271,2837.15
25249,1.8507,3.8092,10.3705,1256,2837.15
25254,-1.9992,0.5758,11.8393,1260,2837.15
25259,-3.6272,-0.8847,11.8716,1271,2837.15
25264,-0.8404,2.3667,9.317,1263,2836.75
25269,1.8052,3.9935,10.343,1269,2836.75
25274,-2.0578,1.3994,11.4718,1267,2836.75
25279,-2.715,-1.3048,12.226,1260,2836.75
25284,-2.2889,1.8495,9.4128,1267,2836.48
25289,1.8423,3.7517,10.2161,1269,2836.48
25294,-0.3508,2.1189,10.9714,1267,2836.48
25299,-1.7861,-1.4198,12.299,1267,2836.48
25304,-3.474,1.0894,10.0102,1269,2836.48
25309,1.4018,3.2238,9.9455,1267,2836.07
25314,1.2821,2.9341,10.6566,1263,2836.07
25319,-1.3659,-0.7985,12.2056,1263,2836.07
25324,-4.1073,0.1784,10.8266,1261,2836.07
25329,0.7039,2.8168,9.5948,1261,2836.48
25334,1.8507,3.7146,10.4698,1269,2836.48
25339,-1.8543,0.2263,11.9459,1257,2836.48
25344,-3.808,-0.5291,11.6849,1267,2836.48
25349,-0.3292,2.472,9.3541,1263,2836.75
25354,1.9429,4.0151,10.3573,1264,2836.75
25359,-2.2098,1.2031,11.4934,1269,2836.75
25364,-3.0035,-1.1983,12.1434,1269,2836.75
25369,-1.7274,1.9968,9.3134,1261,2837.15
25374,1.8016,3.8152,10.2484,1269,2837.15
25379,-1.1253,1.8507,11.0756,1263,2837.15
25384,-2.065,-1.4904,12.2763,1269,2837.15
25389,-3.152,1.3491,9.7528,1267,2837.95
25394,1.5383,3.4536,10.1155,1263,2837.95
25399,0.8212,2.6863,10.8134,1271,2837.95
25404,-1.4305,-1.0774,12.3361,1259,2837.95
25409,-3.954,0.5674,10.5716,1271,2837.95
25414,1.0235,2.9987,9.7959,1267,2838.09
25419,1.8364,3.4201,10.4842,1261,2838.09
25424,-1.5,-0.152,12.0644,1263,2838.09
25429,-3.9504,-0.3124,11.4395,1267,2838.09
25434,0.1437,2.6097,9.4164,1271,2838.09
25439,1.8794,3.8942,10.2855,1263,2838.09
25444,-2.1332,0.7877,11.7304,1262,2838.09
25449,-3.3495,-1.0235,12.0021,1264,2838.09
25454,-1.2175,2.1823,9.2775,1261,2837.82
25459,1.8076,3.9157,10.2675,1267,2837.82
25464,-1.7107,1.5921,11.2982,1273,2837.82
25469,-2.49,-1.397,12.2523,1269,2837.82
25474,-2.6384,1.6771,9.6426,1261,2837.42
25479,1.7119,3.6524,10.1047,1261,2837.42
25484,0.1401,2.3415,10.9319,1273,2837.42
25489,-1.5981,-1.2821,12.2966,1263,2837.42
25494,-3.6919,0.8392,10.1885,1271,2837.42
25499,1.245,3.1089,9.8725,1259,2837.68
25504,1.5419,3.158,10.5417,1253,2837.68
25509,-1.3132,-0.6141,12.1266,1263,2837.68
25514,-4.0534,0.0036,11.0433,1263,2837.68
25519,0.4788,2.7114,9.5313,1267,2837.68
25524,1.8387,3.8427,10.4543,1263,2837.68
25529,-1.9764,0.4812,11.8752,1258,2837.68
25534,-3.7302,-0.7446,11.7735,1275,2837.68
25539,-0.6285,2.3786,9.2811,1262,2837.82
25544,1.9154,4.0474,10.2939,1261,2837.82
25549,-2.1548,1.3264,11.4802,1261,2837.82
25554,-2.806,-1.2797,12.1697,1262,2837.82
25559,-2.047,1.9166,9.4164,1275,2837.15
25564,1.7909,3.7876,10.2149,1273,2837.15
25569,-0.6381,2.0363,10.9559,1268,2837.15
25574,-1.9094,-1.5167,12.2703,1261,2837.15
25579,-3.3746,1.1408,9.8677,1267,2837.15
25584,1.4736,3.2908,10.0233,1270,2837.95
25589,1.1552,2.8718,10.7129,1271,2837.95
25594,-1.4269,-0.9218,12.2559,1259,2837.95
25599,-4.033,0.3819,10.7069,1263,2837.95
25604,0.8751,2.9269,9.6869,1262,2837.68
25609,1.8723,3.5925,10.4076,1262,2837.68
25614,-1.6999,0.1018,11.9961,1269,2837.68
25619,-3.8415,-0.4705,11.5257,1267,2837.68
25624,-0.1341,2.5079,9.3829,1261,2837.42
25629,1.8914,3.9337,10.2891,1267,2837.42
25634,-2.1895,0.9984,11.6382,1267,2837.42
25639,-3.2022,-1.1492,12.0213,1268,2837.42
25644,-1.5,2.1344,9.2811,1263,2837.68
25649,1.7861,3.8523,10.2161,1263,2837.68
25654,-1.4054,1.7478,11.1701,1263,2837.68
25659,-2.3427,-1.4688,12.3649,1272,2837.68
25664,-2.9628,1.482,9.7432,1269,2837.68
25669,1.6221,3.4943,10.1514,1261,2837.68
25674,0.5375,2.5654,10.7931,1269,2837.68
25679,-1.5359,-1.1564,12.2894,1261,2837.68
25684,-3.8666,0.6488,10.4028,1271,2837.68
25689,1.1516,3.0682,9.8174,1264,2837.55
25694,1.7202,3.3854,10.5321,1261,2837.55
25699,-1.4497,-0.3292,12.1099,1259,2837.55
25704,-4.0163,-0.2634,11.2013,1259,2837.55
25709,0.2969,2.6432,9.414,1269,2837.68
25714,1.8387,3.881,10.3753,1261,2837.68
25719,-2.1201,0.6776,11.7579,1261,2837.68
25724,-3.5422,-0.8906,11.9734,1267,2837.68
25729,-0.9601,2.3236,9.2692,1263,2837.68
25734,1.8375,3.9995,10.3334,1267,2837.68
25739,-1.9058,1.5071,11.3425,1263,2837.68
25744,-2.642,-1.3635,12.2583,1267,2837.68
25749,-2.3942,1.7573,9.4188,1263,2838.22
25754,1.8471,3.6919,10.1634,1267,2838.22
25759,-0.2035,2.1428,10.9331,1271,2838.22
25764,-1.7011,-1.397,12.3469,1263,2838.22
25769,-3.5961,0.9924,10.0533,1260,2838.22
25774,1.3491,3.2034,9.9156,1259,2838.22
25779,1.4054,2.9712,10.6219,1260,2838.22
25784,-1.3336,-0.7925,12.1673,1263,2838.22
25789,-4.112,0.1185,10.9235,1263,2838.22
25794,0.6524,2.7581,9.6139,1259,2838.36
25799,1.8974,3.735,10.4291,1261,2838.36
25804,-1.8567,0.3412,11.9662,1261,2838.36
25809,-3.7924,-0.5375,11.7531,1270,2838.36
25814,-0.3855,2.4983,9.3482,1263,2838.09
25819,1.8914,4.0007,10.2663,1259,2838.09
25824,-2.2398,1.2019,11.5041,1267,2838.09
25829,-2.9676,-1.221,12.1482,1267,2838.09
25834,-1.8639,1.9525,9.3518,1263,2838.09
25839,1.7825,3.7996,10.2125,1268,2838.09
25844,-0.9816,1.8938,11.1259,1259,2838.09
25849,-2.1189,-1.494,12.3768,1267,2838.09
25854,-3.2394,1.3467,9.7911,1267,2838.22
25859,1.5071,3.3878,10.0365,1267,2838.22
25864,0.8679,2.7258,10.7607,1269,2838.22
25869,-1.4413,-1.0558,12.3074,1255,2838.22
25874,-3.972,0.4776,10.6422,1272,2838.22
25879,1.0008,2.9736,9.6929,1261,2838.36
25884,1.8268,3.5446,10.4686,1263,2838.36
25889,-1.5251,-0.1293,12.0548,1267,2838.36
25894,-3.9385,-0.3891,11.4108,1257,2838.36
25899,0.091,2.5809,9.4152,1263,2838.49
25904,1.9166,3.9157,10.3765,1263,2838.49
25909,-2.1105,0.8092,11.6873,1261,2838.49
25914,-3.3794,-1.0774,11.9734,1263,2838.49
25919,-1.2641,2.1859,9.2871,1259,2838.22
25924,1.8747,3.9576,10.2532,1261,2838.22
25929,-1.7322,1.6113,11.2911,1261,2838.22
25934,-2.5031,-1.4222,12.2811,1269,2838.22
25939,-2.6851,1.664,9.59,1267,2838.36
25944,1.7645,3.638,10.1203,1259,2838.36
25949,0.2191,2.375,10.8445,1271,2838.36
25954,-1.5981,-1.324,12.2966,1259,2838.36
25959,-3.7673,0.8583,10.1718,1267,2838.36
25964,1.2498,3.0909,9.8833,1261,2838.36
25969,1.6209,3.1699,10.5129,1263,2838.36
25974,-1.3659,-0.5902,12.2056,1263,2838.36
25979,-4.0666,-0.079,11.078,1263,2838.36
25984,0.4717,2.709,9.5289,1255,2838.49
25989,1.8447,3.814,10.3765,1261,2838.49
25994,-1.9884,0.5052,11.8657,1258,2838.49
25999,-3.6847,-0.7362,11.8058,1257,2838.49
26004,-0.7003,2.3715,9.3015,1261,2838.09
26009,1.8651,4.0259,10.2771,1265,2838.09
26014,-2.0818,1.3815,11.4395,1261,2838.09
26019,-2.8611,-1.2713,12.1937,1259,2838.09
26024,-2.0961,1.9178,9.3972,1272,2838.09
26029,1.8088,3.7445,10.2029,1269,2838.09
26034,-0.6369,2.0614,11.0169,1267,2838.09
26039,-1.9154,-1.4952,12.3086,1259,2838.09
26044,-3.3878,1.1504,9.9455,1263,2838.09
26049,1.4473,3.2872,9.9862,1267,2837.82
26054,1.1349,2.8886,10.6614,1266,2837.82
26059,-1.4054,-0.9098,12.3062,1259,2837.82
26064,-4.0342,0.3699,10.7452,1263,2837.82
26069,0.8487,2.9389,9.6786,1261,2838.36
26074,1.8938,3.6308,10.3872,1267,2838.36
26079,-1.6915,0.0862,11.9447,1263,2838.36
26084,-3.8978,-0.4956,11.4706,1263,2838.36
26089,-0.1317,2.5726,9.3853,1261,2838.36
26094,1.901,3.9684,10.2879,1263,2838.36
26099,-2.2194,0.9876,11.6346,1267,2838.36
26104,-3.1556,-1.1456,12.0859,1269,2838.36
26109,-1.5119,2.0638,9.2536,1267,2838.89
26114,1.8399,3.8882,10.3394,1267,2838.89
26119,-1.3683,1.7334,11.2061,1262,2838.89
26124,-2.3164,-1.4688,12.3828,1270,2838.89
26129,-2.97,1.5586,9.7073,1269,2838.76
26134,1.6388,3.5733,10.1478,1258,2838.76
26139,0.4812,2.5355,10.8146,1260,2838.76
26144,-1.5479,-1.1851,12.3062,1262,2838.76
26149,-3.8906,0.6883,10.3537,1268,2838.76
26154,1.154,3.0598,9.8031,1263,2838.89
26159,1.7538,3.316,10.5524,1259,2838.89
26164,-1.3719,-0.3603,12.0787,1261,2838.89
26169,-4.027,-0.237,11.2001,1263,2838.89
26174,0.2897,2.6719,9.4248,1268,2838.49
26179,1.8866,3.8786,10.3801,1263,2838.49
26184,-2.0782,0.6464,11.7843,1263,2838.49
26189,-3.5949,-0.9038,11.8824,1261,2838.49
26194,-0.917,2.3391,9.232,1260,2838.62
26199,1.883,4.0247,10.2819,1268,2838.62
26204,-2.0291,1.5167,11.3533,1261,2838.62
26209,-2.6683,-1.3048,12.299,1263,2838.62
26214,-2.3643,1.8028,9.4391,1259,2838.49
26219,1.7705,3.6775,10.1323,1261,2838.49
26224,-0.2622,2.144,10.9044,1271,2838.49
26229,-1.7202,-1.4365,12.3206,1260,2838.49
26234,-3.6045,0.9553,10.0521,1267,2838.49
26239,1.3683,3.2106,9.9491,1259,2838.49
26244,1.4054,2.9975,10.6219,1259,2838.49
26249,-1.3611,-0.7925,12.1757,1263,2838.49
26254,-4.0917,0.1592,10.8828,1264,2838.49
26259,0.7063,2.818,9.6259,1261,2838.76
26264,1.8759,3.7469,10.4387,1262,2838.76
26269,-1.8292,0.2705,11.9267,1257,2838.76
26274,-3.7697,-0.559,11.6933,1269,2838.76
26279,-0.3759,2.4888,9.2847,1262,2838.36
26284,1.9489,4.0235,10.2903,1261,2838.36
26289,-2.144,1.1684,11.4898,1267,2838.36
26294,-3.043,-1.2031,12.1566,1267,2838.36
26299,-1.7418,2.0171,9.3134,1253,2838.22
26304,1.8292,3.8056,10.2687,1271,2838.22
26309,-1.0953,1.8615,11.1474,1264,2838.22
26314,-2.1464,-1.5071,12.2751,1267,2838.22
26319,-3.1256,1.342,9.8102,1266,2838.09
26324,1.5538,3.3842,10.0999,1269,2838.09
26329,0.7865,2.7019,10.7763,1269,2838.09
26334,-1.4485,-1.0714,12.2763,1261,2838.09
26339,-3.9157,0.5423,10.5668,1268,2838.09
26344,1.0271,2.9951,9.76,1261,2838.22
26349,1.8244,3.4884,10.5141,1263,2838.22
26354,-1.5191,-0.1413,12.044,1268,2838.22
26359,-3.954,-0.328,11.382,1267,2838.22
26364,0.0766,2.5271,9.3769,1268,2838.22
26369,1.8962,3.9421,10.2819,1264,2838.22
26374,-2.1931,0.808,11.7615,1268,2838.22
26379,-3.4524,-1.0199,12.0428,1267,2838.22
26384,-1.1887,2.2194,9.3206,1267,2838.49
26389,1.8352,3.954,10.2663,1267,2838.49
26394,-1.8004,1.6352,11.3342,1261,2838.49
26399,-2.5606,-1.3838,12.2392,1270,2838.49
26404,-2.6408,1.7214,9.5253,1263,2838.62
26409,1.7418,3.6631,10.1526,1259,2838.62
26414,0.1413,2.3535,10.9164,1271,2838.62
26419,-1.6161,-1.306,12.3134,1262,2838.62
26424,-3.6955,0.8619,10.155,1271,2838.62
26429,1.2737,3.1065,9.8462,1263,2838.89
26434,1.5706,3.0825,10.586,1259,2838.89
26439,-1.3288,-0.65,12.1649,1262,2838.89
26444,-4.1456,0.012,11.0049,1271,2838.89
26449,0.504,2.7186,9.572,1271,2838.76
26454,1.8531,3.8008,10.3669,1263,2838.76
26459,-1.9632,0.4226,11.9159,1259,2838.76
26464,-3.7397,-0.6955,11.7268,1269,2838.76
26469,-0.5734,2.4265,9.3254,1262,2838.76
26474,1.8675,3.9935,10.2819,1261,2838.76
26479,-2.1524,1.2989,11.4754,1261,2838.76
26484,-2.891,-1.2845,12.1841,1263,2838.76
26489,-2.0195,1.9166,9.4008,1264,2838.62
26494,1.8052,3.7852,10.2472,1263,2838.62
26499,-0.6596,1.992,10.9882,1263,2838.62
26504,-2.0171,-1.5287,12.3744,1259,2838.62
26509,-3.3639,1.1995,9.8725,1263,2838.62
26514,1.5191,3.2932,10.0652,1264,2838.22
26519,1.0534,2.8156,10.671,1267,2838.22
26524,-1.4664,-0.9852,12.2739,1257,2838.22
26529,-4.0067,0.4046,10.6925,1263,2838.22
26534,0.9182,2.9999,9.6822,1259,2838.76
26539,1.8304,3.6296,10.4603,1261,2838.76
26544,-1.652,0.0634,12.0835,1263,2838.76
26549,-3.9433,-0.4585,11.473,1263,2838.76
26554,-0.0634,2.5379,9.3099,1253,2838.62
26559,1.895,3.9337,10.3753,1261,2838.62
26564,-2.1991,0.9194,11.6526,1271,2838.62
26569,-3.2597,-1.1349,12.0584,1270,2838.62
26574,-1.4317,2.15,9.2548,1261,2838.36
26579,1.8304,3.9181,10.2747,1269,2838.36
26584,-1.5383,1.6927,11.2671,1251,2838.36
26589,-2.3894,-1.4066,12.3098,1269,2838.36
26594,-2.8922,1.567,9.675,1269,2837.82
26599,1.6783,3.5721,10.1454,1244,2837.82
26604,0.4381,2.4995,10.9104,1263,2837.82
26609,-1.561,-1.2426,12.2212,1257,2837.82
26614,-3.8451,0.7147,10.3525,1263,2837.82
26619,1.1947,3.0586,9.8282,1262,2838.09
26624,1.7382,3.2465,10.5644,1261,2838.09
26629,-1.3743,-0.4525,12.068,1262,2838.09
26634,-4.045,-0.2286,11.2216,1262,2838.09
26639,0.3519,2.6492,9.493,1263,2837.95
26644,1.8352,3.8319,10.4267,1261,2837.95
26649,-2.059,0.5662,11.7759,1261,2837.95
26654,-3.6356,-0.8404,11.9411,1260,2837.95
26659,-0.8643,2.3367,9.3362,1261,2837.82
26664,1.8579,4.0498,10.3118,1267,2837.82
26669,-2.0351,1.4581,11.3988,1263,2837.82
26674,-2.6947,-1.2809,12.2152,1263,2837.82
26679,-2.2781,1.8352,9.4176,1261,2837.95
26684,1.8519,3.7326,10.161,1261,2837.95
26689,-0.3017,2.1332,10.8972,1268,2837.95
26694,-1.8112,-1.4748,12.305,1263,2837.95
26699,-3.5338,1.0355,10.0173,1271,2837.95
26704,1.3779,3.1903,9.9503,1259,2837.55
26709,1.2809,2.9473,10.6063,1263,2837.55
26714,-1.4174,-0.8332,12.238,1261,2837.55
26719,-4.0486,0.2382,10.8721,1261,2837.55
26724,0.7338,2.8515,9.6235,1267,2837.01
26729,1.8639,3.705,10.4256,1269,2837.01
26734,-1.8878,0.2466,11.9818,1257,2837.01
26739,-3.7996,-0.5291,11.6418,1269,2837.01
26744,-0.3041,2.5031,9.3122,1263,2837.01
26749,1.9094,4.0067,10.3154,1263,2837.01
26754,-2.2051,1.1349,11.5784,1259,2837.01
26759,-3.0059,-1.2402,12.0799,1263,2837.01
26764,-1.7597,2.0087,9.3218,1263,2837.01
26769,1.7885,3.796,10.2292,1271,2837.01
26774,-1.0942,1.8615,11.1271,1263,2837.01
26779,-2.1512,-1.4856,12.2894,1256,2837.01
26784,-3.1615,1.4078,9.7959,1267,2837.01
26789,1.579,3.4153,10.1107,1271,2837.42
26794,0.7925,2.709,10.7691,1261,2837.42
26799,-1.4557,-1.0546,12.3014,1259,2837.42
26804,-3.9301,0.5578,10.5441,1263,2837.42
26809,1.0163,2.9736,9.7719,1261,2837.68
26814,1.8435,3.456,10.4782,1267,2837.68
26819,-1.4401,-0.1844,12.0596,1267,2837.68
26824,-3.9492,-0.3783,11.3701,1263,2837.68
26829,0.0874,2.5869,9.402,1263,2837.68
26834,1.8675,3.8834,10.2651,1268,2837.68
26839,-2.1811,0.8045,11.7041,1267,2837.68
26844,-3.48,-1.0104,11.9758,1263,2837.68
26849,-1.233,2.2565,9.3075,1263,2839.03
26854,1.8531,3.9828,10.3011,1262,2839.03
26859,-1.7837,1.6149,11.3473,1263,2839.03
26864,-2.4804,-1.3779,12.3218,1271,2839.03
26869,-2.6157,1.6688,9.5265,1269,2838.22
26874,1.7777,3.6248,10.1454,1258,2838.22
26879,0.1772,2.326,10.9307,1266,2838.22
26884,-1.6041,-1.3396,12.3493,1262,2838.22
26889,-3.7397,0.8475,10.2304,1273,2838.22
26894,1.2617,3.1316,9.9371,1269,2838.49
26899,1.5634,3.1208,10.501,1263,2838.49
26904,-1.397,-0.6213,12.1985,1258,2838.49
26909,-4.1132,-0.0227,11.0085,1266,2838.49
26914,0.5459,2.7557,9.5804,1261,2838.62
26919,1.8447,3.8128,10.4052,1267,2838.62
26924,-1.9489,0.4848,11.9088,1257,2838.62
26929,-3.705,-0.6728,11.7112,1270,2838.62
26934,-0.6093,2.4457,9.2907,1259,2838.36
26939,1.9178,4.0211,10.3058,1267,2838.36
26944,-2.0494,1.2977,11.3988,1259,2838.36
26949,-2.8072,-1.3431,12.1554,1260,2838.36
26954,-2.0327,1.8759,9.3506,1269,2838.22
26959,1.8004,3.7134,10.2304,1269,2838.22
26964,-0.7326,1.9585,11.0241,1267,2838.22
26969,-1.9405,-1.5155,12.2978,1259,2838.22
26974,-3.3854,1.1744,9.9347,1263,2838.22
26979,1.4724,3.3208,10.0461,1263,2838.22
26984,1.0642,2.8419,10.7272,1263,2838.22
26989,-1.4305,-0.905,12.2906,1263,2838.22
26994,-4.0737,0.3938,10.7428,1263,2838.22
26999,0.9002,2.8922,9.6043,1258,2838.49
27004,1.9393,3.5865,10.4507,1267,2838.49
27009,-1.6185,0.0886,11.9578,1263,2838.49
27014,-3.887,-0.4741,11.5688,1261,2838.49
27019,-0.0682,2.5331,9.335,1270,2838.49
27024,1.9166,3.9504,10.3406,1263,2838.49
27029,-2.2338,0.9457,11.6969,1269,2838.49
27034,-3.237,-1.1265,12.0895,1271,2838.49
27039,-1.4784,2.144,9.2991,1268,2838.76
27044,1.8447,3.8954,10.3118,1271,2838.76
27049,-1.5071,1.7178,11.2288,1263,2838.76
27054,-2.3762,-1.415,12.3146,1269,2838.76
27059,-2.909,1.5862,9.6618,1269,2838.76
27064,1.6771,3.5578,10.0916,1263,2838.76
27069,0.4585,2.5211,10.8517,1270,2838.76
27074,-1.5203,-1.1863,12.3158,1260,2838.76
27079,-3.8487,0.6812,10.2915,1270,2838.76
27084,1.166,3.0275,9.7827,1259,2839.83
27089,1.7142,3.237,10.5261,1263,2839.83
27094,-1.3695,-0.4693,12.1386,1272,2839.83
27099,-4.0713,-0.17,11.1773,1263,2839.83
27104,0.3256,2.6959,9.4643,1271,2839.56
27109,1.8591,3.869,10.4387,1265,2839.56
27114,-2.071,0.5878,11.8573,1264,2839.56
27119,-3.6296,-0.8212,11.8693,1263,2839.56
27124,-0.8332,2.3607,9.2871,1259,2839.7
27129,1.9106,4.0534,10.2735,1271,2839.7
27134,-2.0363,1.4473,11.4012,1267,2839.7
27139,-2.6612,-1.3024,12.2392,1269,2839.7
27144,-2.2673,1.8423,9.4595,1263,2838.89
27149,1.8292,3.7338,10.149,1261,2838.89
27154,-0.3579,2.1021,10.9487,1271,2838.89
27159,-1.8495,-1.5215,12.3182,1268,2838.89
27164,-3.5171,1.0259,10.0377,1273,2838.89
27169,1.3659,3.2441,10.0054,1256,2839.7
27174,1.2522,2.9916,10.6662,1259,2839.7
27179,-1.4126,-0.8559,12.22,1263,2839.7
27184,-4.0749,0.31,10.8804,1261,2839.7
27189,0.7985,2.8742,9.6271,1269,2839.16
27194,1.9237,3.7134,10.4124,1261,2839.16
27199,-1.7621,0.176,11.989,1255,2839.16
27204,-3.8235,-0.5327,11.5796,1272,2839.16
27209,-0.2191,2.4864,9.3027,1263,2839.3
27214,1.9106,3.978,10.3094,1263,2839.3
27219,-2.2254,1.0822,11.6238,1257,2839.3
27224,-3.1412,-1.2163,12.1206,1261,2839.3
27229,-1.664,2.0949,9.3039,1263,2839.03
27234,1.8124,3.8487,10.2771,1271,2839.03
27239,-1.3324,1.8112,11.2144,1263,2839.03
27244,-2.229,-1.494,12.3218,1259,2839.03
27249,-3.0562,1.482,9.7384,1269,2839.03
27254,1.6305,3.5003,10.137,1268,2838.76
27259,0.6847,2.6109,10.8074,1259,2838.76
27264,-1.4329,-1.1756,12.3277,1260,2838.76
27269,-3.8798,0.5794,10.4627,1263,2838.76
27274,1.0894,3.0083,9.7983,1263,2838.49
27279,1.7837,3.3543,10.5297,1268,2838.49
27284,-1.4449,-0.2981,12.0847,1263,2838.49
27289,-3.9923,-0.322,11.248,1257,2838.49
27294,0.2119,2.6492,9.4954,1262,2838.62
27299,1.8747,3.869,10.3525,1263,2838.62
27304,-2.0925,0.7482,11.7424,1271,2838.62
27309,-3.5183,-0.9301,11.9339,1271,2838.62
27314,-1.0439,2.2996,9.3482,1263,2839.03
27319,1.8483,3.9935,10.2627,1263,2839.03
27324,-1.8352,1.5251,11.297,1266,2839.03
27329,-2.5977,-1.3946,12.2451,1267,2839.03
27334,-2.4493,1.7466,9.4487,1269,2839.3
27339,1.7753,3.6428,10.1382,1261,2839.3
27344,-0.0479,2.2051,10.8769,1268,2839.3
27349,-1.7023,-1.4102,12.3349,1263,2839.3
27354,-3.6284,0.9792,10.1107,1272,2839.3
27359,1.3144,3.1795,9.9288,1261,2839.16
27364,1.4748,3.0155,10.5548,1261,2839.16
27369,-1.3815,-0.7278,12.2272,1261,2839.16
27374,-4.148,0.0994,10.8936,1270,2839.16
27379,0.6057,2.8216,9.5541,1269,2838.89
27384,1.8842,3.7529,10.4782,1267,2838.89
27389,-1.8866,0.3699,11.9399,1261,2838.89
27394,-3.7972,-0.6081,11.6981,1272,2838.89
27399,-0.4465,2.472,9.2847,1262,2838.76
27404,1.8866,4.0163,10.2592,1266,2838.76
27409,-2.2374,1.1839,11.4682,1261,2838.76
27414,-2.909,-1.2486,12.153,1264,2838.76
27419,-1.8926,1.9644,9.3027,1267,2838.62
27424,1.804,3.8008,10.3262,1269,2838.62
27429,-0.9864,1.889,11.1043,1267,2838.62
27434,-2.0746,-1.4988,12.3385,1261,2838.62
27439,-3.237,1.3001,9.8007,1261,2838.62
27444,1.567,3.3926,10.0856,1263,2838.76
27449,0.8906,2.7043,10.7176,1267,2838.76
27454,-1.4377,-1.0307,12.2787,1259,2838.76
27459,-3.9995,0.5231,10.6195,1263,2838.76
27464,1.0056,3.0071,9.6702,1263,2839.3
27469,1.834,3.5195,10.4591,1269,2839.3
27474,-1.4832,-0.152,12.0991,1263,2839.3
27479,-3.9624,-0.3926,11.4203,1263,2839.3
27484,0.0646,2.5438,9.4032,1257,2838.89
27489,1.8663,3.9085,10.337,1264,2838.89
27494,-2.2374,0.8236,11.7029,1269,2838.89
27499,-3.4309,-1.0367,11.9734,1267,2838.89
27504,-1.2725,2.2278,9.2991,1263,2839.43
27509,1.8483,3.9397,10.2448,1274,2839.43
27514,-1.6927,1.6065,11.3437,1259,2839.43
27519,-2.46,-1.3898,12.2811,1270,2839.43
27524,-2.6923,1.6688,9.5517,1267,2839.16
27529,1.7968,3.6248,10.1095,1263,2839.16
27534,0.249,2.3595,10.8924,1271,2839.16
27539,-1.6257,-1.2797,12.3158,1259,2839.16
27544,-3.7421,0.8607,10.2244,1271,2839.16
27549,1.2294,3.1125,9.8174,1263,2839.3
27554,1.5933,3.1663,10.5572,1263,2839.3
27559,-1.4162,-0.5519,12.147,1267,2839.3
27564,-4.1013,0.006,11.084,1267,2839.3
27569,0.4705,2.7066,9.578,1270,2839.43
27574,1.8986,3.8247,10.4698,1273,2839.43
27579,-2.0016,0.4729,11.8896,1261,2839.43
27584,-3.6907,-0.6979,11.7675,1267,2839.43
27589,-0.6404,2.4193,9.2823,1267,2839.83
27594,1.8435,4.0259,10.3322,1272,2839.83
27599,-2.2003,1.3024,11.473,1262,2839.83
27604,-2.8695,-1.3408,12.2428,1270,2839.83
27609,-2.0997,1.8878,9.3793,1263,2839.97
27614,1.8447,3.7673,10.1789,1263,2839.97
27619,-0.6776,2.0063,11.0516,1274,2839.97
27624,-1.9369,-1.5036,12.2404,1264,2839.97
27629,-3.3411,1.2175,9.93,1271,2839.97
27634,1.4844,3.2944,10.0389,1263,2839.83
27639,1.0918,2.8479,10.7284,1263,2839.83
27644,-1.421,-0.9613,12.3038,1262,2839.83
27649,-4.0809,0.4082,10.7524,1267,2839.83
27654,0.9242,2.9305,9.7264,1268,2839.7
27659,1.8699,3.5865,10.4244,1263,2839.7
27664,-1.6424,0.0419,12.0153,1260,2839.7
27669,-3.9109,-0.4178,11.5257,1271,2839.7
27674,-0.0874,2.5941,9.3518,1269,2839.56
27679,1.8854,3.9456,10.2819,1263,2839.56
27684,-2.2482,0.9685,11.7005,1267,2839.56
27689,-3.2465,-1.1265,11.9985,1268,2839.56
27694,-1.4054,2.1129,9.2644,1263,2839.3
27699,1.8555,3.8583,10.2268,1272,2839.3
27704,-1.476,1.7047,11.2587,1261,2839.3
27709,-2.3786,-1.4317,12.3146,1267,2839.3
27714,-2.8335,1.5718,9.6403,1267,2839.56
27719,1.6293,3.5578,10.1227,1268,2839.56
27724,0.4058,2.4672,10.8194,1273,2839.56
27729,-1.5874,-1.2546,12.287,1263,2839.56
27734,-3.7852,0.747,10.3322,1271,2839.56
27739,1.1672,3.0682,9.8366,1263,2839.7
27744,1.6316,3.2753,10.5369,1261,2839.7
27749,-1.3755,-0.4465,12.1326,1263,2839.7
27754,-4.063,-0.1018,11.0947,1263,2839.7
27759,0.3771,2.6875,9.4463,1267,2839.83
27764,1.8818,3.8666,10.3609,1261,2839.83
27769,-2.0135,0.5567,11.7867,1267,2839.83
27774,-3.6907,-0.8368,11.8633,1271,2839.83
27779,-0.7901,2.3739,9.2548,1259,2839.97
27784,1.8567,4.0043,10.3609,1269,2839.97
27789,-2.0554,1.4102,11.4156,1263,2839.97
27794,-2.7928,-1.3108,12.232,1271,2839.97
27799,-2.223,1.8962,9.408,1263,2840.1
27804,1.8304,3.7433,10.2149,1259,2840.1
27809,-0.4118,2.0806,10.9702,1269,2840.1
27814,-1.8256,-1.4844,12.3565,1266,2840.1
27819,-3.4488,1.1121,9.9359,1271,2840.1
27824,1.5095,3.2645,10.0114,1261,2840.37
27829,1.2965,2.8683,10.6614,1267,2840.37
27834,-1.3958,-0.8918,12.2428,1263,2840.37
27839,-4.063,0.2909,10.7524,1263,2840.37
27844,0.814,2.8611,9.6223,1268,2840.24
27849,1.8651,3.6847,10.489,1269,2840.24
27854,-1.7621,0.1496,11.9698,1259,2840.24
27859,-3.8762,-0.4848,11.5772,1271,2840.24
27864,-0.2107,2.5402,9.3482,1261,2840.37
27869,1.9537,3.9995,10.2807,1263,2840.37
27874,-2.1967,1.0439,11.6023,1261,2840.37
27879,-3.1448,-1.1205,12.0153,1261,2840.37
27884,-1.5012,2.0913,9.256,1269,2840.1
27889,1.8615,3.8654,10.2268,1269,2840.1
27894,-1.391,1.743,11.1989,1263,2840.1
27899,-2.3104,-1.4641,12.3445,1257,2840.1
27904,-2.9688,1.4569,9.6474,1268,2840.1
27909,1.5742,3.4943,10.0616,1269,2840.1
27914,0.5195,2.5367,10.8326,1269,2840.1
27919,-1.5586,-1.1935,12.2571,1259,2840.1
27924,-3.8822,0.6871,10.3825,1263,2840.1
27929,1.142,3.0765,9.8198,1263,2840.37
27934,1.7597,3.3267,10.5596,1269,2840.37
27939,-1.4126,-0.34,12.1326,1261,2840.37
27944,-4.0582,-0.1628,11.2073,1267,2840.37
27949,0.3065,2.642,9.4032,1261,2840.51
27954,1.9417,3.8822,10.3118,1270,2840.51
27959,-2.0877,0.6237,11.7926,1259,2840.51
27964,-3.5482,-0.8918,11.9195,1269,2840.51
27969,-0.9194,2.3164,9.2787,1263,2840.51
27974,1.8507,3.9828,10.313,1267,2840.51
27979,-2.0147,1.3922,11.4036,1263,2840.51
27984,-2.7294,-1.3743,12.2667,1273,2840.51
27989,-2.3236,1.8783,9.4463,1267,2840.37
27994,1.8244,3.7338,10.1981,1262,2840.37
27999,-0.3352,2.1392,10.993,1267,2840.37
28004,-1.7729,-1.4186,12.2906,1263,2840.37
28009,-3.535,1.1097,9.997,1275,2840.37
28014,1.4401,3.2489,9.9048,1263,2840.77
28019,1.3707,2.9544,10.6291,1257,2840.77
28024,-1.324,-0.8703,12.2523,1263,2840.77
28029,-4.0582,0.164,10.811,1267,2840.77
28034,0.7338,2.8419,9.6522,1263,2840.91
28039,1.8531,3.6907,10.422,1261,2840.91
28044,-1.7849,0.1891,11.9626,1261,2840.91
28049,-3.9313,-0.5219,11.5915,1271,2840.91
28054,-0.2705,2.5235,9.347,1263,2840.77
28059,1.9106,3.9828,10.2963,1263,2840.77
28064,-2.2398,1.0558,11.6215,1261,2840.77
28069,-3.1053,-1.1349,12.123,1261,2840.77
28074,-1.64,2.1009,9.3673,1259,2840.1
28079,1.8806,3.8571,10.2424,1269,2840.1
28084,-1.2175,1.8292,11.2001,1261,2840.1
28089,-2.2278,-1.5479,12.3074,1259,2840.1
28094,-2.9987,1.4317,9.7025,1261,2840.1
28099,1.6101,3.4117,10.0413,1261,2840.24
28104,0.6728,2.5809,10.8278,1267,2840.24
28109,-1.5311,-1.2198,12.3074,1261,2840.24
28114,-3.9229,0.6524,10.4303,1261,2840.24
28119,1.1073,3.0718,9.7791,1259,2840.51
28124,1.6759,3.4309,10.4806,1264,2840.51
28129,-1.476,-0.267,12.0524,1262,2840.51
28134,-4.0163,-0.2286,11.2432,1267,2840.51
28139,0.3005,2.7019,9.4296,1259,2840.24
28144,1.9022,3.9014,10.3705,1267,2840.24
28149,-2.1045,0.6847,11.7663,1269,2840.24
28154,-3.4943,-0.9301,11.9231,1268,2840.24
28159,-0.9397,2.3284,9.238,1259,2840.37
28164,1.8938,3.9433,10.3011,1269,2840.37
28169,-1.9477,1.421,11.2887,1263,2840.37
28174,-2.66,-1.3791,12.2248,1271,2840.37
28179,-2.4493,1.7645,9.4715,1267,2840.37
28184,1.7657,3.6727,10.2232,1263,2840.37
28189,-0.1951,2.1883,10.9463,1261,2840.37
28194,-1.7705,-1.3719,12.3194,1264,2840.37
28199,-3.5817,1.0582,10.0221,1272,2840.37
28204,1.4341,3.2681,9.9467,1266,2840.64
28209,1.4389,2.9928,10.5884,1267,2840.64
28214,-1.3815,-0.7314,12.1829,1259,2840.64
28219,-4.0677,0.1975,10.8852,1271,2840.64
28224,0.6788,2.8359,9.5553,1268,2840.24
28229,1.9082,3.6775,10.4303,1263,2840.24
28234,-1.7741,0.2538,11.9519,1272,2840.24
28239,-3.8726,-0.6225,11.6262,1267,2840.24
28244,-0.3567,2.4517,9.329,1267,2840.37
28249,1.8591,3.9851,10.3441,1271,2840.37
28254,-2.2637,1.1253,11.6238,1267,2840.37
28259,-3.1244,-1.1827,12.1745,1263,2840.37
28264,-1.7538,2.0399,9.3685,1269,2840.37
28269,1.8962,3.9049,10.258,1268,2840.37
28274,-1.1564,1.8842,11.1378,1260,2840.37
28279,-2.0961,-1.4425,12.3002,1261,2840.37
28284,-3.1508,1.391,9.7073,1263,2840.37
28289,1.6005,3.3926,10.0221,1267,2840.24
28294,0.7949,2.5845,10.805,1267,2840.24
28299,-1.4784,-1.2139,12.2332,1263,2840.24
28304,-3.9564,0.577,10.5058,1269,2840.24
28309,1.0582,2.988,9.7157,1262,2839.97
28314,1.7502,3.4165,10.6039,1269,2839.97
28319,-1.5514,-0.2526,12.1087,1263,2839.97
28324,-4.0354,-0.1856,11.376,1269,2839.97
28329,0.2263,2.6887,9.4344,1269,2839.83
28334,1.9213,3.9684,10.422,1258,2839.83
28339,-2.1668,0.7434,11.7364,1268,2839.83
28344,-3.3435,-0.9194,12.0105,1269,2839.83
28349,-1.0726,2.2254,9.2009,1263,2839.7
28354,1.9106,3.9504,10.2592,1271,2839.7
28359,-1.8304,1.4964,11.315,1269,2839.7
28364,-2.569,-1.4126,12.2942,1271,2839.7
28369,-2.5582,1.7119,9.5433,1269,2839.43
28374,1.7382,3.6224,10.149,1269,2839.43
28379,-0.073,2.2613,10.8876,1272,2839.43
28384,-1.7585,-1.3695,12.2918,1260,2839.43
28389,-3.6907,0.9541,10.173,1263,2839.43
28394,1.3276,3.1747,9.9323,1268,2839.97
28399,1.4952,3.0945,10.6003,1269,2839.97
28404,-1.3491,-0.6141,12.1793,1269,2839.97
28409,-4.0115,0.0587,10.8781,1268,2839.97
28414,0.6069,2.7653,9.4966,1269,2839.83
28419,1.9561,3.7062,10.3896,1263,2839.83
28424,-1.883,0.2981,11.9052,1260,2839.83
28429,-3.7601,-0.6859,11.7304,1269,2839.83
28434,-0.4848,2.4205,9.3206,1261,2839.83
28439,1.9082,4.0043,10.3537,1271,2839.83
28444,-2.2326,1.2366,11.6011,1263,2839.83
28449,-2.9868,-1.2222,12.1039,1271,2839.83
28454,-1.8854,2.0147,9.3697,1263,2839.43
28459,1.8136,3.863,10.2017,1260,2839.43
28464,-0.917,1.9752,11.1294,1270,2839.43
28469,-2.0027,-1.4497,12.3254,1263,2839.43
28474,-3.2046,1.3288,9.821,1269,2839.43
28479,1.5682,3.3914,10.0485,1257,2839.16
28484,0.9984,2.6863,10.7775,1260,2839.16
28489,-1.3791,-1.1289,12.2523,1261,2839.16
28494,-3.9768,0.4513,10.5429,1264,2839.16
28499,0.972,2.9449,9.7109,1267,2839.3
28504,1.7813,3.4848,10.4902,1261,2839.3
28509,-1.5957,-0.1425,12.1003,1259,2839.3
28514,-3.9433,-0.2753,11.4156,1271,2839.3
28519,0.0227,2.6061,9.4008,1263,2839.3
28524,1.8806,3.9971,10.3358,1261,2839.3
28529,-2.2027,0.9062,11.7376,1259,2839.3
28534,-3.3938,-1.0235,11.995,1267,2839.3
28539,-1.2318,2.1931,9.3003,1263,2839.7
28544,1.9201,3.9145,10.2532,1271,2839.7
28549,-1.6664,1.6161,11.2324,1263,2839.7
28554,-2.4469,-1.4808,12.2559,1263,2839.7
28559,-2.6707,1.6173,9.5433,1270,2839.7
28564,1.6795,3.5434,10.1766,1270,2839.43
28569,0.1652,2.3343,10.8457,1275,2839.43
28574,-1.6735,-1.3623,12.3601,1260,2839.43
28579,-3.7433,0.8595,10.234,1267,2839.43
28584,1.2689,3.1556,9.9108,1263,2839.83
28589,1.5598,3.2274,10.5716,1267,2839.83
28594,-1.4437,-0.4788,12.1745,1257,2839.83
28599,-4.039,0.0263,11.0468,1267,2839.83
28604,0.5303,2.7713,9.4846,1269,2839.43
28609,1.9094,3.7996,10.3681,1270,2839.43
28614,-1.9381,0.4477,11.8669,1269,2839.43
28619,-3.6811,-0.808,11.8477,1271,2839.43
28624,-0.6704,2.3272,9.2285,1261,2839.3
28629,1.8711,3.948,10.3322,1269,2839.3
28634,-2.1452,1.2761,11.4455,1266,2839.3
28639,-2.8695,-1.2953,12.1853,1271,2839.3
28644,-2.1117,1.9201,9.3757,1263,2839.43
28649,1.7705,3.808,10.2999,1263,2839.43
28654,-0.7242,2.0363,11.0313,1271,2839.43
28659,-1.9956,-1.4186,12.3433,1267,2839.43
28664,-3.3674,1.2342,9.9311,1272,2839.43
28669,1.5227,3.3639,10.0161,1261,2839.56
28674,1.1708,2.7737,10.7356,1263,2839.56
28679,-1.3431,-0.9349,12.2092,1262,2839.56
28684,-4.0175,0.346,10.7009,1265,2839.56
28689,0.8428,2.9305,9.6187,1270,2839.83
28694,1.8519,3.5602,10.5165,1267,2839.83
28699,-1.658,-0.0263,11.9614,1261,2839.83
28704,-3.9887,-0.4585,11.491,1272,2839.83
28709,-0.1089,2.5031,9.3386,1263,2840.24
28714,1.8675,3.9708,10.4124,1263,2840.24
28719,-2.2649,0.9661,11.6789,1261,2840.24
28724,-3.2657,-1.0403,12.1362,1261,2840.24
28729,-1.3958,2.1488,9.2787,1262,2840.24
28734,1.9321,3.9732,10.2639,1271,2840.24
28739,-1.4724,1.7298,11.1678,1263,2840.24
28744,-2.3272,-1.4533,12.2954,1258,2840.24
28749,-2.8264,1.5203,9.6127,1263,2840.24
28754,1.6424,3.559,10.1023,1269,2840.24
28759,0.3292,2.4134,10.8529,1269,2840.24
28764,-1.6185,-1.3384,12.311,1256,2840.24
28769,-3.8379,0.7542,10.3358,1266,2840.24
28774,1.1887,3.0957,9.8593,1263,2840.51
28779,1.6017,3.3064,10.5572,1269,2840.51
28784,-1.4928,-0.48,12.1865,1267,2840.51
28789,-4.045,0.0036,11.1821,1267,2840.51
28794,0.4609,2.7354,9.4906,1261,2840.51
28799,1.9668,3.9025,10.3801,1267,2840.51
28804,-2.0339,0.5686,11.8405,1269,2840.51
28809,-3.6069,-0.7793,11.7495,1271,2840.51
28814,-0.7242,2.3032,9.2404,1263,2840.37
28819,1.895,3.9337,10.2592,1263,2840.37
28824,-2.0937,1.3192,11.4431,1261,2840.37
28829,-2.7593,-1.3982,12.1841,1271,2840.37
28834,-2.2482,1.8579,9.4272,1269,2840.37
28839,1.7119,3.7553,10.1981,1261,2840.37
28844,-0.5363,2.1296,11.0456,1267,2840.37
28849,-1.9297,-1.4629,12.3254,1263,2840.37
28854,-3.4943,1.1744,10.0257,1273,2840.37
28859,1.5155,3.3495,9.9814,1266,2840.24
28864,1.2785,2.9018,10.7045,1261,2840.24
28869,-1.3683,-0.8871,12.214,1262,2840.24
28874,-4.0342,0.3041,10.7524,1269,2840.24
28879,0.8763,2.8575,9.6187,1270,2840.24
28884,1.9022,3.5877,10.4279,1263,2840.24
28889,-1.6628,0.0742,12.0165,1259,2840.24
28894,-3.9325,-0.5938,11.5389,1271,2840.24
28899,-0.1867,2.4792,9.3482,1267,2839.97
28904,1.8423,3.9444,10.3501,1269,2839.97
28909,-2.2553,1.0044,11.6394,1263,2839.97
28914,-3.2298,-1.1049,12.1314,1263,2839.97
28919,-1.5419,2.1021,9.2835,1269,2840.1
28924,1.8914,3.9193,10.2508,1267,2840.1
28929,-1.3527,1.7873,11.2408,1268,2840.1
28934,-2.2446,-1.4257,12.3074,1261,2840.1
28939,-2.8742,1.5,9.6642,1263,2840.1
28944,1.7131,3.4907,10.0832,1263,2839.3
28949,0.571,2.4624,10.7943,1259,2839.3
28954,-1.5131,-1.2498,12.2404,1267,2839.3
28959,-3.8259,0.668,10.3214,1253,2839.3
28964,1.1456,3.0562,9.8258,1261,2839.43
28969,1.6604,3.3435,10.5596,1269,2839.43
28974,-1.4796,-0.3915,12.1697,1264,2839.43
28979,-4.0677,-0.1197,11.1761,1269,2839.43
28984,0.34,2.7414,9.5253,1267,2839.03
28989,1.9249,3.8583,10.3741,1266,2839.03
28994,-2.0973,0.6345,11.8214,1271,2839.03
28999,-3.5219,-0.8703,11.8693,1271,2839.03
29004,-0.8475,2.3092,9.244,1266,2838.76
29009,1.9369,3.978,10.3334,1263,2838.76
29014,-1.9393,1.4557,11.3581,1263,2838.76
29019,-2.6851,-1.4281,12.2224,1271,2838.76
29024,-2.3679,1.7454,9.4571,1269,2839.03
29029,1.7502,3.6751,10.1825,1262,2839.03
29034,-0.3579,2.1033,10.9666,1270,2839.03
29039,-1.7897,-1.415,12.287,1260,2839.03
29044,-3.5745,1.0534,10.0796,1271,2839.03
29049,1.4293,3.2693,10.0066,1266,2838.89
29054,1.3647,3.0023,10.6482,1267,2838.89
29059,-1.3515,-0.7805,12.226,1261,2838.89
29064,-4.0151,0.2095,10.8793,1267,2838.89
29069,0.7673,2.8072,9.5349,1269,2839.3
29074,1.9285,3.6715,10.4148,1268,2839.3
29079,-1.804,0.2035,11.9351,1262,2839.3
29084,-3.79,-0.668,11.7064,1264,2839.3
29089,-0.2825,2.4672,9.2967,1263,2839.16
29094,1.8627,3.9935,10.3609,1271,2839.16
29099,-2.2745,1.1037,11.57,1261,2839.16
29104,-3.1017,-1.154,12.1446,1269,2839.16
29109,-1.7538,2.0674,9.3194,1259,2839.16
29114,1.8471,3.9061,10.2675,1263,2839.16
29119,-1.1612,1.8519,11.169,1271,2839.16
29124,-2.1584,-1.4066,12.3301,1263,2839.16
29129,-3.0789,1.4437,9.7588,1273,2839.16
29134,1.6209,3.4704,10.0102,1259,2839.56
29139,0.7817,2.6576,10.7571,1262,2839.56
29144,-1.4497,-1.1289,12.238,1261,2839.56
29149,-3.9516,0.5578,10.4447,1263,2839.56
29154,1.057,2.9772,9.7444,1271,2839.83
29159,1.7214,3.4141,10.5489,1263,2839.83
29164,-1.4724,-0.2526,12.1099,1257,2839.83
29169,-4.0378,-0.243,11.3294,1275,2839.83
29174,0.1664,2.624,9.4523,1267,2839.83
29179,1.9201,3.9756,10.3394,1267,2839.83
29184,-2.1943,0.7697,11.7495,1263,2839.83
29189,-3.4884,-0.905,11.9818,1269,2839.83
29194,-1.0187,2.2362,9.3134,1267,2839.83
29199,1.9309,4.0211,10.2675,1271,2839.83
29204,-1.8615,1.5107,11.2791,1267,2839.83
29209,-2.5199,-1.4006,12.2775,1261,2839.83
29214,-2.5319,1.6951,9.4451,1268,2839.83
29219,1.7442,3.6164,10.1694,1269,2839.56
29224,-0.0419,2.1883,10.963,1271,2839.56
29229,-1.7166,-1.4317,12.3074,1261,2839.56
29234,-3.7038,0.9996,10.143,1268,2839.56
29239,1.3024,3.2202,9.9778,1261,2839.56
29244,1.4413,3.0969,10.6219,1263,2839.56
29249,-1.4281,-0.6656,12.1721,1270,2839.56
29254,-4.0594,0.176,10.9846,1269,2839.56
29259,0.6393,2.8252,9.5541,1263,2839.56
29264,1.9297,3.7876,10.4279,1269,2839.56
29269,-1.8208,0.3352,11.8788,1268,2839.56
29274,-3.7038,-0.6548,11.6861,1272,2839.56
29279,-0.4405,2.3858,9.2656,1263,2839.56
29284,1.9118,3.9528,10.337,1269,2839.56
29289,-2.1775,1.1923,11.5412,1263,2839.56
29294,-3.0335,-1.2534,12.1661,1273,2839.56
29299,-1.8806,2.0051,9.3709,1263,2840.37
29304,1.7897,3.7828,10.1981,1263,2840.37
29309,-0.9756,1.9429,11.1666,1273,2840.37
29314,-2.0662,-1.4509,12.2607,1268,2840.37
29319,-3.2358,1.3467,9.7707,1275,2840.37
29324,1.5754,3.4369,10.0604,1263,2840.77
29329,0.9685,2.7509,10.7691,1267,2840.77
29334,-1.421,-1.0151,12.2739,1267,2840.77
29339,-3.9959,0.4417,10.5668,1269,2840.77
29344,0.9924,2.9437,9.6881,1268,2840.37
29349,1.8028,3.4429,10.4555,1267,2840.37
29354,-1.5479,-0.1712,12.0776,1263,2840.37
29359,-4.0175,-0.4166,11.3617,1273,2840.37
29364,0.073,2.5654,9.4308,1263,2840.24
29369,1.8495,3.954,10.3549,1263,2840.24
29374,-2.2302,0.8619,11.7711,1261,2840.24
29379,-3.4201,-0.9708,12.0141,1267,2840.24
29384,-1.2198,2.2709,9.2967,1267,2840.64
29389,1.8914,3.96,10.2484,1269,2840.64
29394,-1.6676,1.5957,11.2923,1269,2840.64
29399,-2.4768,-1.4305,12.2511,1262,2840.64
29404,-2.6312,1.7023,9.5181,1263,2840.64
29409,1.7609,3.5865,10.1287,1269,2840.91
29414,0.1401,2.302,10.8936,1269,2840.91
29419,-1.6544,-1.3874,12.3098,1261,2840.91
29424,-3.7362,0.8871,10.1562,1267,2840.91
29429,1.2797,3.1556,9.8749,1271,2841.18
29434,1.4641,3.1208,10.6183,1275,2841.18
29439,-1.4257,-0.6165,12.2176,1272,2841.18
29444,-4.1061,0.1125,11.0349,1272,2841.18
29449,0.5614,2.8084,9.5337,1269,2840.37
29454,1.8998,3.8128,10.4208,1275,2840.37
29459,-1.9537,0.4345,11.8908,1271,2840.37
29464,-3.7242,-0.6704,11.7879,1273,2840.37
29469,-0.5231,2.4385,9.2308,1271,2841.18
29474,1.8962,3.9863,10.3274,1270,2841.18
29479,-2.1763,1.2354,11.4251,1269,2841.18
29484,-2.8946,-1.2893,12.1602,1277,2841.18
29489,-1.9573,1.9046,9.3182,1275,2840.51
29494,1.7992,3.7781,10.222,1271,2840.51
29499,-0.9218,1.98,11.1079,1275,2840.51
29504,-2.0506,-1.4784,12.2978,1269,2840.51
29509,-3.3411,1.2665,9.8426,1277,2840.51
29514,1.5095,3.4069,10.0413,1273,2840.64
29519,0.9649,2.7809,10.7404,1269,2840.64
29524,-1.4281,-1.0199,12.2619,1269,2840.64
29529,-4.0079,0.4381,10.6362,1275,2840.64
29534,1.0271,2.9724,9.6307,1277,2840.64
29539,1.8555,3.4788,10.4986,1269,2840.64
29544,-1.5514,-0.1041,12.056,1267,2840.64
29549,-3.9433,-0.4286,11.4527,1278,2840.64
29554,0.0359,2.5702,9.3302,1271,2840.51
29559,1.8651,3.9229,10.3621,1269,2840.51
29564,-2.211,0.8308,11.7112,1271,2840.51
29569,-3.4081,-0.9912,12.0165,1271,2840.51
29574,-1.2701,2.1943,9.3266,1275,2840.77
29579,1.9022,3.9684,10.2783,1272,2840.77
29584,-1.6855,1.6161,11.3282,1273,2840.77
29589,-2.478,-1.4186,12.3026,1269,2840.77
29594,-2.6851,1.6712,9.5337,1272,2840.77
29599,1.7621,3.6033,10.1119,1272,2841.04
29604,0.2406,2.3296,10.8745,1272,2841.04
29609,-1.5502,-1.3479,12.2523,1264,2841.04
29614,-3.7649,0.826,10.1622,1272,2841.04
29619,1.2617,3.1077,9.839,1269,2841.31
29624,1.5718,3.1556,10.6686,1273,2841.31
29629,-1.3874,-0.6093,12.1985,1273,2841.31
29634,-4.148,0.0479,11.0492,1276,2841.31
29639,0.5267,2.7402,9.481,1269,2841.31
29644,1.8866,3.8188,10.4196,1272,2841.31
29649,-1.9824,0.4429,11.8908,1273,2841.31
29654,-3.7362,-0.662,11.7843,1276,2841.31
29659,-0.6189,2.4181,9.2823,1268,2840.64
29664,1.9142,4.0091,10.3094,1273,2840.64
29669,-2.1775,1.2474,11.4539,1269,2840.64
29674,-2.8383,-1.2713,12.1051,1279,2840.64
29679,-2.0243,1.8711,9.3889,1272,2840.37
29684,1.8004,3.784,10.1646,1269,2840.37
29689,-0.8021,1.9668,11.084,1271,2840.37
29694,-2.0016,-1.5095,12.3038,1267,2840.37
29699,-3.3267,1.2582,9.8773,1278,2840.37
29704,1.5179,3.3746,10.0401,1272,2840.1
29709,1.0187,2.8228,10.7224,1271,2840.1
29714,-1.3994,-1.0151,12.2619,1271,2840.1
29719,-3.9804,0.4286,10.6674,1272,2840.1
29724,0.9649,2.9628,9.6798,1273,2840.1
29729,1.8902,3.5949,10.4651,1272,2840.1
29734,-1.555,-0.012,12.0488,1271,2840.1
29739,-3.9121,-0.4082,11.4634,1272,2840.1
29744,0.018,2.5833,9.317,1269,2840.37
29749,1.8687,3.9133,10.3011,1275,2840.37
29754,-2.2398,0.8787,11.6969,1271,2840.37
29759,-3.2681,-1.0858,12.0811,1273,2840.37
29764,-1.3898,2.1859,9.329,1275,2840.24
29769,1.8375,3.9121,10.2364,1275,2840.24
29774,-1.5299,1.6604,11.2958,1279,2840.24
29779,-2.4241,-1.4066,12.2846,1271,2840.24
29784,-2.7857,1.634,9.5876,1273,2840.24
29789,1.7142,3.5686,10.137,1271,2840.1
29794,0.3136,2.3762,10.8529,1272,2840.1
29799,-1.6005,-1.2869,12.3625,1269,2840.1
29804,-3.7721,0.8511,10.2987,1271,2840.1
29809,1.2342,3.1244,9.894,1271,2840.64
29814,1.6436,3.2046,10.5764,1273,2840.64
29819,-1.385,-0.486,12.1649,1271,2840.64
29824,-4.1324,-0.0455,11.0516,1271,2840.64
29829,0.4286,2.6935,9.4918,1273,2840.24
29834,1.8411,3.79,10.4363,1271,2840.24
29839,-1.9896,0.492,11.8226,1271,2840.24
29844,-3.7338,-0.7853,11.88,1276,2840.24
29849,-0.7003,2.3822,9.2979,1272,2840.37
29854,1.9273,4.0414,10.3178,1276,2840.37
29859,-2.2003,1.3635,11.4191,1271,2840.37
29864,-2.7761,-1.2522,12.2631,1271,2840.37
29869,-2.1356,1.9118,9.3877,1275,2840.64
29874,1.7921,3.7828,10.2376,1271,2840.64
29879,-0.6812,1.9824,11.0049,1276,2840.64
29884,-1.9285,-1.4664,12.3325,1261,2840.64
29889,-3.4465,1.1265,9.8964,1278,2840.64
29894,1.476,3.2896,10.0066,1273,2840.77
29899,1.1468,2.8132,10.6781,1271,2840.77
29904,-1.4437,-0.9589,12.2607,1273,2840.77
29909,-4.039,0.3627,10.7847,1275,2840.77
29914,0.9301,2.9305,9.6558,1277,2841.18
29919,1.8866,3.62,10.4686,1273,2841.18
29924,-1.6592,-0.0012,12.0117,1261,2841.18
29929,-3.8894,-0.4549,11.4886,1273,2841.18
29934,-0.0479,2.5821,9.2835,1271,2841.85
29939,1.9764,3.9768,10.3729,1275,2841.85
29944,-2.2039,0.9744,11.6418,1270,2841.85
29949,-3.2585,-1.1037,12.1218,1275,2841.85
29954,-1.3707,2.1284,9.1997,1271,2841.85
29959,1.8567,3.8247,10.246,1269,2841.85
29964,-1.5263,1.6628,11.2539,1277,2841.85
29969,-2.3727,-1.4617,12.3062,1272,2841.85
29974,-2.8359,1.5538,9.6905,1275,2841.85
29979,1.2785,3.1699,9.8773,1269,2841.99
29984,0.3448,2.4624,10.9355,1270,2841.99
29989,-1.3719,-0.5064,12.1506,1273,2841.99
29994,-4.0761,0.0419,11.0253,1275,2841.99
29999,1.2402,3.1196,9.7576,1269,2842.66
30004,1.9776,3.7936,10.3944,1273,2842.66
30009,-1.9357,0.3783,11.8513,1271,2842.66
30014,-3.7218,-0.7769,11.7747,1274,2842.66
30019,-0.5866,2.3762,9.2871,1273,2842.52
30024,1.8818,4.0079,10.3549,1272,2842.52
30029,-2.1835,1.2354,11.5029,1277,2842.52
30034,-2.9856,-1.2594,12.1937,1287,2842.52
30039,-1.9884,1.9848,9.3494,1284,2842.52
30044,1.8579,3.8343,10.2316,1291,2842.52
30049,-0.8272,1.9632,11.1558,1277,2842.52
30054,-2.0279,-1.4557,12.3146,1288,2842.52
30059,-3.2382,1.3276,9.8521,1287,2842.52
30064,1.5634,3.3902,10.0137,1279,2842.52
30069,1.0175,2.7246,10.7883,1279,2842.52
30074,-1.397,-1.075,12.2487,1269,2842.52
30079,-4.0187,0.4645,10.5728,1277,2842.52
30084,0.99,2.909,9.7444,1269,2842.66
30089,1.8447,3.4967,10.4734,1272,2842.66
30094,-1.555,-0.1281,12.1326,1272,2842.66
30099,-3.9851,-0.3268,11.4191,1275,2842.66
30104,0.0802,2.6252,9.3996,1275,2843.06
30109,1.9309,3.9911,10.3298,1273,2843.06
30114,-2.1907,0.8954,11.722,1273,2843.06
30119,-3.4213,-0.9697,11.9602,1271,2843.06
30124,-1.166,2.241,9.2859,1271,2843.33
30129,1.9393,3.9409,10.2424,1279,2843.33
30134,-1.7561,1.5682,11.3497,1271,2843.33
30139,-2.496,-1.4186,12.3218,1274,2843.33
30144,-2.6025,1.6065,9.5122,1272,2843.06
30149,1.7083,3.5853,10.1574,1273,2843.06
30154,0.0227,2.3116,10.9032,1283,2843.06
30159,-1.7478,-1.4186,12.3373,1269,2843.06
30164,-3.7266,0.9337,10.1251,1269,2843.06
30169,1.2989,3.1915,9.9611,1269,2842.93
30174,1.5036,3.1591,10.6578,1273,2842.93
30179,-1.4569,-0.6153,12.2272,1276,2842.93
30184,-4.0666,0.1018,10.999,1271,2842.93
30189,0.6883,2.7928,9.5038,1269,2842.79
30194,1.9489,3.7529,10.4459,1273,2842.79
30199,-1.8567,0.316,11.971,1269,2842.79
30204,-3.7613,-0.7051,11.6717,1272,2842.79
30209,-0.4525,2.4002,9.2249,1277,2842.39
30214,1.9273,3.9097,10.3178,1271,2842.39
30219,-2.2206,1.1696,11.5305,1273,2842.39
30224,-3.0837,-1.2785,12.1985,1274,2842.39
30229,-1.8998,2.0458,9.3506,1270,2842.66
30234,1.834,3.8176,10.2256,1277,2842.66
