timestamp_ms,ax,ay,az,acs_adc,rpm
13944,0.3196,2.958,9.7923,1529,2788.49
13949,2.1679,3.5075,10.5931,1500,2788.49
13954,-1.7837,0.2753,11.825,1496,2788.49
13959,-3.62,-0.334,11.315,1509,2788.49
13964,-0.9984,2.5379,9.5816,1564,2788.36
13969,1.7514,3.7433,10.3884,1509,2788.36
13974,-1.6448,1.2498,11.5867,1499,2788.36
13979,-2.6779,-1.0594,11.9399,1509,2788.36
13984,-2.7485,1.8962,9.6905,1545,2788.49
13989,1.3336,3.4824,10.1347,1499,2788.49
13994,0.8464,2.217,11.1833,1501,2788.49
13999,-1.4533,-1.075,12.0895,1499,2788.49
14004,-4.027,0.9002,10.2484,1511,2788.49
14009,0.6428,3.0275,9.9766,1546,2788.88
14014,2.3164,3.1855,10.7428,1509,2788.88
14019,-1.6807,-0.1568,11.8896,1499,2788.88
14024,-3.7062,0.0012,11.0852,1503,2788.88
14029,-0.6093,2.6779,9.6582,1550,2789.14
14034,1.7729,3.7529,10.3382,1499,2789.14
14039,-1.9154,1.0882,11.6993,1501,2789.14
14044,-3.0574,-0.7638,11.7938,1499,2789.14
14049,-2.1249,2.1883,9.6702,1548,2789.27
14054,1.4186,3.6033,10.1514,1503,2789.27
14059,-0.0335,1.8495,11.2863,1512,2789.27
14064,-1.9417,-1.2857,12.0165,1500,2789.27
14069,-3.4285,1.1887,10.0844,1514,2789.27
14074,0.7745,3.073,9.9671,1529,2789.4
14079,1.8735,2.8838,10.9535,1502,2789.4
14084,-1.5263,-0.5794,12.0656,1496,2789.4
14089,-3.7792,0.3723,10.8697,1499,2789.4
14094,-0.1748,2.8527,9.7456,1547,2789.14
14099,1.9022,3.7218,10.4279,1503,2789.14
14104,-1.9561,0.7171,11.7795,1507,2789.14
14109,-3.2561,-0.5495,11.6274,1502,2789.14
14114,-1.5526,2.3427,9.5756,1562,2789.27
14119,1.6316,3.6332,10.2556,1507,2789.27
14124,-0.8416,1.5538,11.4299,1497,2789.27
14129,-2.3056,-1.2869,11.9411,1499,2789.27
14134,-3.1268,1.5,9.8928,1507,2789.27
14139,1.0163,3.1603,10.0521,1544,2789.4
14144,1.4772,2.5941,11.0552,1506,2789.4
14149,-1.5419,-0.8212,12.0213,1499,2789.4
14154,-3.7457,0.6369,10.6518,1499,2789.4
14159,0.2406,2.976,9.8126,1547,2789.53
14164,2.1141,3.5279,10.5692,1501,2789.53
14169,-1.8016,0.3136,11.7902,1495,2789.53
14174,-3.4848,-0.34,11.3569,1501,2789.53
14179,-1.0534,2.5498,9.5349,1563,2789.66
14184,1.6987,3.7026,10.2568,1511,2789.66
14189,-1.5239,1.3096,11.5185,1500,2789.66
14194,-2.6923,-1.1205,11.8357,1512,2789.66
14199,-2.642,1.8567,9.7636,1573,2789.4
14204,1.1384,3.4046,10.0963,1499,2789.4
14209,0.8248,2.2661,11.1965,1497,2789.4
14214,-1.6149,-1.0762,12.0357,1497,2789.4
14219,-3.6955,0.911,10.325,1509,2789.4
14224,0.51,2.9509,9.8605,1549,2789.53
14229,2.1404,3.1999,10.7428,1511,2789.53
14234,-1.5562,-0.1281,11.8645,1499,2789.53
14239,-3.7338,-0.0192,11.1953,1501,2789.53
14244,-0.583,2.6456,9.6295,1556,2789.27
14249,1.7777,3.7888,10.3226,1503,2789.27
14254,-1.9513,1.0618,11.7196,1499,2789.27
14259,-3.061,-0.838,11.7938,1500,2789.27
14264,-2.1895,2.1835,9.6007,1572,2790.96
14269,1.4545,3.5662,10.1083,1499,2790.96
14274,0.079,1.901,11.2899,1513,2790.96
14279,-1.9441,-1.2462,12.0321,1507,2790.96
14284,-3.3998,1.1408,10.0521,1513,2790.96
14289,0.7937,3.0454,10.009,1547,2790.44
14294,1.9154,2.8922,10.8565,1503,2790.44
14299,-1.4664,-0.5315,12.0045,1495,2790.44
14304,-3.8918,0.2837,10.9427,1507,2790.44
14309,-0.1053,2.8407,9.7839,1546,2790.44
14314,1.9537,3.7421,10.4064,1507,2790.44
14319,-2.0099,0.747,11.7771,1511,2790.44
14324,-3.3184,-0.5423,11.576,1501,2790.44
14329,-1.6017,2.3739,9.5517,1561,2790.44
14334,1.6676,3.6344,10.1813,1507,2790.44
14339,-0.7973,1.5754,11.3988,1501,2790.44
14344,-2.2948,-1.3132,11.9052,1501,2790.44
14349,-3.1615,1.4736,9.8773,1501,2790.44
14354,0.9912,3.1556,10.0568,1543,2790.57
14359,1.5287,2.6001,11.0349,1501,2790.57
14364,-1.5957,-0.8571,12.0261,1507,2790.57
14369,-3.8439,0.6261,10.6494,1501,2790.57
14374,0.2466,2.9736,9.7707,1549,2790.7
14379,2.1404,3.5195,10.5764,1503,2790.7
14384,-1.7633,0.3053,11.8369,1498,2790.7
14389,-3.5733,-0.2909,11.4239,1501,2790.7
14394,-1.057,2.5259,9.5648,1562,2790.44
14399,1.7645,3.7098,10.2304,1509,2790.44
14404,-1.5502,1.3168,11.576,1499,2790.44
14409,-2.715,-1.1025,11.892,1511,2790.44
14414,-2.7138,1.8759,9.7516,1547,2790.57
14419,1.251,3.4369,10.1694,1499,2790.57
14424,0.8511,2.2338,11.1881,1500,2790.57
14429,-1.391,-1.0965,12.0476,1497,2790.57
14434,-4.0737,0.9194,10.2424,1511,2790.57
14439,0.6907,3.0167,9.9144,1544,2790.44
14444,2.4074,3.219,10.8098,1513,2790.44
14449,-1.6951,-0.1161,11.9566,1497,2790.44
14454,-3.796,-0.0491,11.0947,1503,2790.44
14459,-0.5878,2.6935,9.6319,1545,2790.57
14464,1.8675,3.7565,10.3022,1499,2790.57
14469,-1.9501,0.9972,11.6993,1497,2790.57
14474,-3.0885,-0.8021,11.8022,1501,2790.57
14479,-2.2613,2.1739,9.657,1573,2790.7
14484,1.561,3.5961,10.1742,1499,2790.7
14489,0.1233,1.8687,11.3078,1513,2790.7
14494,-1.9776,-1.2833,11.9339,1501,2790.7
14499,-3.4393,1.1732,10.0233,1515,2790.7
14504,0.7757,3.0323,9.9515,1553,2790.96
14509,1.9956,2.8395,10.8649,1499,2790.96
14514,-1.4593,-0.5842,12.0093,1493,2790.96
14519,-3.9169,0.3531,10.8469,1500,2790.96
14524,-0.0874,2.8407,9.7588,1549,2791.22
14529,1.9812,3.717,10.4411,1503,2791.22
14534,-2.0411,0.7338,11.7926,1510,2791.22
14539,-3.3615,-0.4992,11.6514,1501,2791.22
14544,-1.5766,2.3691,9.5349,1563,2791.35
14549,1.6532,3.6931,10.2041,1506,2791.35
14554,-0.8511,1.5419,11.4646,1500,2791.35
14559,-2.3152,-1.2917,11.9219,1501,2791.35
14564,-3.2034,1.5239,9.8258,1509,2791.35
14569,1.093,3.213,10.0341,1531,2791.48
14574,1.5191,2.5115,11.0983,1507,2791.48
14579,-1.6316,-0.9349,12.0333,1503,2791.48
14584,-3.8702,0.6895,10.5824,1501,2791.48
14589,0.2729,2.9401,9.8833,1545,2791.09
14594,2.156,3.5482,10.6255,1501,2791.09
14599,-1.7957,0.3136,11.9207,1497,2791.09
14604,-3.5638,-0.249,11.315,1499,2791.09
14609,-0.9625,2.5678,9.5349,1561,2791.09
14614,1.8112,3.7158,10.2568,1508,2791.09
14619,-1.585,1.2665,11.6227,1499,2791.09
14624,-2.7809,-1.0882,11.8609,1513,2791.09
14629,-2.6456,1.8675,9.7923,1568,2791.09
14634,1.2007,3.3962,10.07,1499,2791.09
14639,0.7135,2.1691,11.2623,1499,2791.09
14644,-1.7968,-1.1097,11.9914,1496,2791.09
14649,-3.6009,1.0116,10.3513,1509,2791.09
14654,0.5495,3.0155,9.8497,1547,2790.96
14659,2.1344,3.158,10.7751,1511,2790.96
14664,-1.5335,-0.1903,11.9614,1499,2790.96
14669,-3.7505,-0.006,11.0971,1499,2790.96
14674,-0.4872,2.6923,9.6007,1567,2791.09
14679,1.8375,3.7182,10.3166,1500,2791.09
14684,-1.986,0.972,11.6969,1500,2791.09
14689,-3.1256,-0.759,11.7448,1499,2791.09
14694,-2.0099,2.2218,9.6654,1577,2791.09
14699,1.4605,3.6368,10.1694,1507,2791.09
14704,-0.1281,1.8196,11.3832,1512,2791.09
14709,-2.0375,-1.2294,11.9542,1501,2791.09
14714,-3.3543,1.2761,9.9479,1516,2791.09
14719,0.8499,3.0742,9.9778,1533,2790.83
14724,1.9094,2.7761,10.9427,1501,2790.83
14729,-1.4341,-0.6261,12.0033,1493,2790.83
14734,-3.9385,0.3603,10.7548,1501,2790.83
14739,-0.0419,2.8611,9.7073,1553,2790.96
14744,1.992,3.6823,10.4722,1511,2790.96
14749,-2.0051,0.6273,11.819,1501,2790.96
14754,-3.4273,-0.4645,11.5221,1503,2790.96
14759,-1.482,2.4541,9.6474,1563,2790.83
14764,1.7047,3.7062,10.2244,1507,2790.83
14769,-0.9481,1.4904,11.491,1501,2790.83
14774,-2.3942,-1.2582,11.8956,1501,2790.83
14779,-3.0335,1.5933,9.8809,1507,2790.83
14784,1.0558,3.2226,10.0736,1532,2790.83
14789,1.3922,2.4433,11.1151,1503,2790.83
14794,-1.5574,-0.9756,12.044,1501,2790.83
14799,-3.8403,0.7841,10.5417,1501,2790.83
14804,0.3376,2.976,9.845,1553,2791.35
14809,2.1691,3.5003,10.5884,1502,2791.35
14814,-1.7502,0.3124,11.8896,1497,2791.35
14819,-3.6188,-0.1628,11.3222,1501,2791.35
14824,-0.8811,2.6228,9.59,1564,2791.22
14829,1.822,3.7194,10.2244,1509,2791.22
14834,-1.6101,1.1768,11.6131,1501,2791.22
14839,-2.8012,-1.0534,11.8058,1509,2791.22
14844,-2.5402,1.9297,9.7109,1571,2791.22
14849,1.2845,3.4345,10.1634,1500,2791.22
14854,0.5997,2.0937,11.297,1499,2791.22
14859,-1.828,-1.1181,12.0859,1495,2791.22
14864,-3.6332,1.0534,10.2101,1509,2791.22
14869,0.6333,3.0598,9.9204,1555,2791.09
14874,2.1332,3.1041,10.7787,1511,2791.09
14879,-1.5526,-0.2442,11.9818,1501,2791.09
14884,-3.7134,0.0383,11.0361,1501,2791.09
14889,-0.4334,2.7833,9.6379,1566,2791.22
14894,1.8423,3.6978,10.3166,1501,2791.22
14899,-1.8926,0.8894,11.7735,1501,2791.22
14904,-3.2621,-0.7961,11.6885,1500,2791.22
14909,-1.9872,2.2553,9.663,1543,2791.35
14914,1.5383,3.6224,10.1885,1501,2791.35
14919,-0.2658,1.7837,11.4239,1512,2791.35
14924,-2.0889,-1.2163,11.965,1503,2791.35
14929,-3.3243,1.3683,9.9934,1509,2791.35
14934,0.9182,3.1364,9.9407,1529,2791.74
14939,1.8878,2.6923,10.9427,1497,2791.74
14944,-1.4234,-0.6847,12.0273,1493,2791.74
14949,-3.9145,0.3867,10.7404,1501,2791.74
14954,-0.0156,2.8778,9.8043,1547,2791.74
14959,2.0315,3.6332,10.5034,1507,2791.74
14964,-1.9656,0.5626,11.8441,1503,2791.74
14969,-3.5111,-0.425,11.5053,1503,2791.74
14974,-1.3611,2.5067,9.596,1563,2792.0
14979,1.725,3.7816,10.2532,1507,2792.0
14984,-1.1564,1.4138,11.5389,1497,2792.0
14989,-2.4265,-1.1708,11.904,1507,2792.0
14994,-2.8228,1.64,9.7432,2621,2790.83
14999,1.0918,3.2417,10.0616,1508,2790.83
15004,1.2318,2.3212,11.1127,1505,2790.83
15009,-1.6616,-1.0247,12.0285,1499,2790.83
15014,-3.8092,0.8152,10.4627,1501,2790.83
15019,0.3711,3.0191,9.8737,1545,2793.04
15024,2.1356,3.3938,10.7368,1501,2793.04
15029,-1.7549,0.1089,11.965,1493,2793.04
15034,-3.6571,-0.079,11.2097,1507,2793.04
15039,-0.7494,2.6851,9.5912,1563,2791.61
15044,1.8459,3.7421,10.2807,1507,2791.61
15049,-1.6915,1.0798,11.6358,1497,2791.61
15054,-2.8659,-0.9948,11.7819,1511,2791.61
15059,-2.4122,2.0016,9.7348,1542,2790.83
15064,1.2737,3.4357,10.2017,1498,2790.83
15069,0.3651,1.9968,11.2061,1506,2790.83
15074,-1.889,-1.1768,12.0105,1497,2790.83
15079,-3.5757,1.1432,10.1837,1511,2790.83
15084,0.7039,3.1424,9.9311,1544,2790.96
15089,2.0901,3.055,10.8673,1509,2790.96
15094,-1.5395,-0.3124,12.0333,1497,2790.96
15099,-3.7864,0.1472,10.9571,1501,2790.96
15104,-0.2897,2.7569,9.651,1563,2790.57
15109,1.9058,3.6536,10.3896,1503,2790.57
15114,-1.9357,0.7853,11.8333,1503,2790.57
15119,-3.237,-0.7099,11.6765,1501,2790.57
15124,-1.8256,2.3236,9.6103,1547,2791.22
15129,1.555,3.6547,10.2975,1500,2791.22
15134,-0.4956,1.7142,11.4263,1513,2791.22
15139,-2.1835,-1.1684,11.9997,1500,2791.22
15144,-3.2238,1.4449,9.9515,1507,2791.22
15149,0.978,3.1987,9.9958,1529,2791.61
15154,1.7322,2.6276,10.9642,1497,2791.61
15159,-1.4856,-0.7171,12.0764,1494,2791.61
15164,-3.8211,0.4788,10.6602,1499,2791.61
15169,0.0814,2.8778,9.8007,1549,2791.48
15174,2.0614,3.5626,10.5405,1510,2791.48
15179,-1.9166,0.4597,11.8417,1506,2791.48
15184,-3.5626,-0.3699,11.4072,1501,2791.48
15189,-1.2151,2.5462,9.6067,1565,2792.0
15194,1.7095,3.7625,10.2687,1503,2792.0
15199,-1.3575,1.3491,11.576,1499,2792.0
15204,-2.5666,-1.1181,11.9064,1509,2792.0
15209,-2.7952,1.7262,9.7252,1547,2792.13
15214,1.142,3.298,10.0269,1511,2792.13
15219,1.0977,2.2529,11.236,1507,2792.13
15224,-1.7095,-1.1265,11.9961,1497,2792.13
15229,-3.7206,0.8272,10.3825,1499,2792.13
15234,0.4477,2.9832,9.9048,1543,2792.13
15239,2.1392,3.3399,10.6698,1506,2792.13
15244,-1.6879,0.012,11.9722,1497,2792.13
15249,-3.6763,0.0144,11.1833,1510,2792.13
15254,-0.6464,2.7414,9.5864,1562,2791.74
15259,1.9142,3.7397,10.2472,1509,2791.74
15264,-1.8244,1.0391,11.6514,1497,2791.74
15269,-2.964,-0.9385,11.7723,1507,2791.74
15274,-2.2613,2.0327,9.6055,1565,2791.22
15279,1.3635,3.4417,10.1586,1498,2791.22
15284,0.1867,1.9261,11.3449,1507,2791.22
15289,-1.998,-1.2043,12.0297,1497,2791.22
15294,-3.48,1.2222,10.1442,1503,2791.22
15299,0.747,3.1161,9.9922,1519,2791.09
15304,1.9776,2.9784,10.8745,1519,2791.09
15309,-1.5323,-0.4106,11.995,1499,2791.09
15314,-3.7373,0.2239,10.9116,1501,2791.09
15319,-0.2095,2.788,9.6965,1555,2790.83
15324,1.9848,3.6236,10.4303,1496,2790.83
15329,-1.9453,0.7147,11.7735,1501,2790.83
15334,-3.298,-0.6345,11.5963,1503,2790.83
15339,-1.646,2.3355,9.6079,1561,2790.96
15344,1.5455,3.6344,10.2268,1506,2790.96
15349,-0.6728,1.5778,11.4706,1507,2790.96
15354,-2.2936,-1.1732,11.9626,1498,2790.96
15359,-3.14,1.5359,9.894,1499,2790.96
15364,1.0211,3.2094,10.0114,1529,2790.83
15369,1.6735,2.5929,10.999,1501,2790.83
15374,-1.482,-0.7817,11.995,1497,2790.83
15379,-3.7781,0.5531,10.665,1497,2790.83
15384,0.1305,2.8754,9.8031,1541,2790.96
15389,2.0734,3.5159,10.5608,1505,2790.96
15394,-1.8519,0.3867,11.8226,1499,2790.96
15399,-3.6308,-0.346,11.4263,1497,2790.96
15404,-1.1157,2.5821,9.5684,1555,2790.83
15409,1.7585,3.7781,10.2185,1499,2790.83
15414,-1.4856,1.2965,11.491,1500,2790.83
15419,-2.6408,-1.0666,11.9171,1508,2790.83
15424,-2.6767,1.834,9.7552,1525,2790.7
15429,1.2175,3.3411,10.0784,1513,2790.7
15434,0.9744,2.1823,11.1941,1509,2790.7
15439,-1.6388,-1.1396,12.0153,1499,2790.7
15444,-3.6655,0.8775,10.3465,1497,2790.7
15449,0.498,3.0119,9.9132,1532,2790.57
15454,2.1033,3.304,10.738,1503,2790.57
15459,-1.6927,-0.0515,11.9578,1497,2790.57
15464,-3.6919,0.0718,11.1785,1509,2790.57
15469,-0.5902,2.7174,9.6307,1545,2790.44
15474,1.8794,3.7804,10.3058,1511,2790.44
15479,-1.889,1.0163,11.6538,1499,2790.44
15484,-2.958,-0.8763,11.7448,1509,2790.44
15489,-2.1656,2.0937,9.6582,1563,2790.05
15494,1.3946,3.4824,10.173,1499,2790.05
15499,0.073,1.8208,11.3581,1510,2790.05
15504,-2.0267,-1.2366,11.9662,1497,2790.05
15509,-3.4668,1.221,10.167,1514,2790.05
15514,0.7769,3.0981,10.0137,1527,2790.57
15519,1.9225,2.9748,10.9116,1507,2790.57
15524,-1.5359,-0.4788,12.0476,1501,2790.57
15529,-3.784,0.3065,10.9247,1500,2790.57
15534,-0.1568,2.8635,9.6822,1561,2789.92
15539,2.0111,3.6883,10.4232,1499,2789.92
15544,-2.0135,0.6752,11.7531,1507,2789.92
15549,-3.2621,-0.6285,11.6083,1503,2789.92
15554,-1.6436,2.3248,9.6307,1568,2789.66
15559,1.5526,3.6284,10.1945,1502,2789.66
15564,-0.8068,1.5275,11.4886,1509,2789.66
15569,-2.3343,-1.1827,11.9782,1500,2789.66
15574,-3.0969,1.5538,9.9323,1499,2789.66
15579,0.9972,3.231,10.0664,1527,2789.4
15584,1.6017,2.5917,11.054,1499,2789.4
15589,-1.5155,-0.7853,12.0452,1499,2789.4
15594,-3.7338,0.5986,10.6674,1507,2789.4
15599,0.1975,2.8838,9.8198,1549,2790.05
15604,2.0913,3.4788,10.5524,1505,2790.05
15609,-1.828,0.2969,11.8357,1503,2790.05
15614,-3.5566,-0.346,11.3533,1507,2790.05
15619,-1.1049,2.5594,9.6139,1561,2789.92
15624,1.7274,3.7721,10.2999,1498,2789.92
15629,-1.5383,1.3264,11.5939,1500,2789.92
15634,-2.6683,-1.0427,11.9135,1509,2789.92
15639,-2.6755,1.8806,9.7827,1543,2790.31
15644,1.2641,3.3423,10.0784,1508,2790.31
15649,0.9744,2.1644,11.1953,1506,2790.31
15654,-1.6197,-1.1181,12.0201,1501,2790.31
15659,-3.705,0.8775,10.2675,1499,2790.31
15664,0.492,2.9904,9.9156,1549,2790.31
15669,2.1189,3.2142,10.7667,1503,2790.31
15674,-1.6484,-0.0766,11.9147,1495,2790.31
15679,-3.7326,0.0587,11.1845,1507,2790.31
15684,-0.5794,2.7653,9.6606,1562,2790.05
15689,1.9154,3.7912,10.3094,1512,2790.05
15694,-1.8938,1.0175,11.625,1501,2790.05
15699,-2.9688,-0.7841,11.7783,1507,2790.05
15704,-2.1679,2.0997,9.7157,1544,2789.66
15709,1.4018,3.4955,10.0497,1499,2789.66
15714,0.1305,1.8531,11.3353,1507,2789.66
15719,-1.9932,-1.2438,11.9542,1497,2789.66
15724,-3.4069,1.1995,10.0904,1513,2789.66
15729,0.735,3.0993,9.9802,1546,2789.79
15734,1.9441,2.964,10.9654,1510,2789.79
15739,-1.5814,-0.4417,12.0189,1499,2789.79
15744,-3.7529,0.346,10.9008,1508,2789.79
15749,-0.1448,2.8671,9.7229,1559,2790.05
15754,1.9908,3.6763,10.4267,1501,2790.05
15759,-1.974,0.6823,11.7819,1506,2790.05
15764,-3.292,-0.5794,11.5927,1501,2790.05
15769,-1.6209,2.3248,9.5948,1547,2790.05
15774,1.5036,3.62,10.2065,1509,2790.05
15779,-0.8056,1.5574,11.5005,1515,2790.05
15784,-2.2924,-1.2186,11.9507,1501,2790.05
15789,-3.1352,1.5622,9.8857,1517,2790.05
15794,0.9505,3.237,10.0521,1531,2790.18
15799,1.5886,2.5558,11.0684,1501,2790.18
15804,-1.5455,-0.8092,11.9806,1496,2790.18
15809,-3.7828,0.5974,10.6147,1502,2790.18
15814,0.2083,2.9281,9.7683,1549,2790.18
15819,2.0758,3.5015,10.5536,1508,2790.18
15824,-1.8399,0.2574,11.8058,1503,2790.18
15829,-3.5422,-0.3017,11.4539,1501,2790.18
15834,-1.1277,2.5498,9.6271,1564,2790.18
15839,1.6664,3.7421,10.2819,1507,2790.18
15844,-1.5119,1.3348,11.6095,1503,2790.18
15849,-2.7138,-1.0487,11.9267,1507,2790.18
15854,-2.6312,1.8783,9.7264,1513,2789.92
15859,1.1827,3.3686,10.1059,1513,2789.92
15864,0.9601,2.1907,11.1701,1503,2789.92
15869,-1.6544,-1.1121,12.0357,1500,2789.92
15874,-3.6428,0.905,10.2987,1501,2789.92
15879,0.492,2.9892,9.9204,1549,2791.09
15884,2.1572,3.1891,10.7368,1503,2791.09
15889,-1.6987,-0.1448,11.9207,1496,2791.09
15894,-3.7505,0.0611,11.1318,1509,2791.09
15899,-0.6129,2.7438,9.6762,1562,2790.57
15904,1.8699,3.7673,10.3453,1513,2790.57
15909,-1.8926,1.0116,11.7196,1499,2790.57
15914,-2.9928,-0.7841,11.7699,1512,2790.57
15919,-2.1679,2.1177,9.6199,1565,2790.31
15924,1.4102,3.4716,10.1059,1499,2790.31
15929,0.0754,1.8459,11.3318,1503,2790.31
15934,-1.9692,-1.2366,11.9997,1497,2790.31
15939,-3.4237,1.2007,10.0497,1511,2790.31
15944,0.7278,3.0957,9.9934,1549,2790.05
15949,1.9477,2.9245,10.963,1509,2790.05
15954,-1.5658,-0.48,11.9842,1503,2790.05
15959,-3.7781,0.3519,10.8685,1502,2790.05
15964,-0.1137,2.8287,9.7169,1567,2790.05
15969,2.0279,3.6859,10.4076,1501,2790.05
15974,-1.968,0.6907,11.7076,1501,2790.05
15979,-3.2489,-0.5183,11.5772,1499,2790.05
15984,-1.5993,2.3703,9.5924,1544,2789.53
15989,1.5826,3.6093,10.2544,1501,2789.53
15994,-0.7757,1.5107,11.461,1508,2789.53
15999,-2.3523,-1.2007,11.9255,1501,2789.53
16004,-3.061,1.5455,9.8713,1507,2789.53
16009,0.9708,3.2417,10.0568,1531,2790.96
16014,1.5826,2.5953,11.0181,1499,2790.96
16019,-1.6125,-0.808,12.0524,1494,2790.96
16024,-3.7565,0.6548,10.6446,1501,2790.96
16029,0.2131,2.9161,9.8306,1548,2790.7
16034,2.1476,3.5003,10.6315,1503,2790.7
16039,-1.8591,0.2777,11.8585,1503,2790.7
16044,-3.5686,-0.3077,11.3976,1503,2790.7
16049,-1.0738,2.5091,9.5624,1563,2790.57
16054,1.7274,3.711,10.2723,1501,2790.57
16059,-1.5323,1.2905,11.6023,1503,2790.57
16064,-2.7641,-1.0092,11.874,1507,2790.57
16069,-2.6037,1.9094,9.7324,1507,2790.57
16074,1.2677,3.3902,10.1095,1545,2790.18
16079,0.8763,2.1823,11.2527,1509,2790.18
16084,-1.6855,-1.1241,11.9758,1507,2790.18
16089,-3.638,0.9278,10.2735,1498,2790.18
16094,0.5124,2.9784,9.8521,1554,2790.18
16099,2.1488,3.1987,10.7368,1501,2790.18
16104,-1.6628,-0.1712,11.9291,1497,2790.18
16109,-3.7589,0.0192,11.1163,1507,2790.18
16114,-0.5878,2.7402,9.6474,1563,2789.92
16119,1.8483,3.7577,10.3382,1511,2789.92
16124,-1.919,1.0187,11.6705,1501,2789.92
16129,-3.043,-0.7685,11.7711,1515,2789.92
16134,-2.138,2.1763,9.7396,1573,2790.18
16139,1.4425,3.4907,10.1179,1500,2790.18
16144,0.0599,1.8196,11.3222,1499,2790.18
16149,-1.9656,-1.2833,12.0045,1499,2790.18
16154,-3.4177,1.2198,10.0281,1510,2790.18
16159,0.7422,3.0777,9.9671,1544,2790.44
16164,1.9357,2.9233,10.9212,1508,2790.44
16169,-1.5886,-0.5243,12.0105,1501,2790.44
16174,-3.8056,0.3962,10.8505,1500,2790.44
16179,-0.1209,2.8718,9.7324,1566,2790.7
16184,2.0339,3.7014,10.4399,1502,2790.7
16189,-1.9956,0.6907,11.7495,1499,2790.7
16194,-3.304,-0.4836,11.564,1500,2790.7
16199,-1.5502,2.3798,9.5792,1565,2790.83
16204,1.5909,3.6009,10.234,1502,2790.83
16209,-0.8523,1.494,11.4515,1513,2790.83
16214,-2.3631,-1.2163,11.898,1502,2790.83
16219,-3.0382,1.5909,9.8952,1511,2790.83
16224,0.9972,3.2262,10.0437,1543,2791.09
16229,1.5095,2.5486,11.1354,1497,2791.09
16234,-1.6448,-0.8272,12.0297,1497,2791.09
16239,-3.7649,0.7039,10.5896,1501,2791.09
16244,0.2334,2.9209,9.845,1555,2791.35
16249,2.1344,3.4668,10.6003,1509,2791.35
16254,-1.8088,0.2382,11.8238,1508,2791.35
16259,-3.5985,-0.2538,11.3138,1503,2791.35
16264,-1.0283,2.5714,9.5804,1563,2791.35
16269,1.7394,3.7026,10.2592,1510,2791.35
16274,-1.5933,1.2091,11.637,1501,2791.35
16279,-2.7497,-1.0187,11.8944,1507,2791.35
16284,-2.6444,1.9225,9.7636,1503,2791.35
16289,1.2665,3.4261,10.07,1546,2791.35
16294,0.8655,2.1296,11.3198,1508,2791.35
16299,-1.7897,-1.1049,11.9662,1501,2791.35
16304,-3.6164,0.9972,10.2639,1500,2791.35
16309,0.5507,2.9616,9.8701,1551,2791.09
16314,2.1392,3.1603,10.7763,1503,2791.09
16319,-1.6496,-0.2107,11.9878,1495,2791.09
16324,-3.7601,0.0754,11.0875,1509,2791.09
16329,-0.4812,2.6947,9.6055,1561,2790.18
16334,1.8579,3.7362,10.3968,1513,2790.18
16339,-1.9836,0.9373,11.7076,1500,2790.18
16344,-3.0562,-0.7458,11.7531,1507,2790.18
16349,-2.0339,2.2087,9.6391,1572,2789.79
16354,1.4329,3.5542,10.173,1498,2789.79
16359,-0.0682,1.7957,11.4108,1501,2789.79
16364,-2.0351,-1.2498,11.9495,1496,2789.79
16369,-3.3279,1.2629,10.0102,1509,2789.79
16374,0.7793,3.0694,9.9802,1546,2789.27
16379,1.8926,2.7773,10.9942,1509,2789.27
16384,-1.585,-0.5854,12.0249,1501,2789.27
16389,-3.7888,0.4357,10.8888,1501,2789.27
16394,-0.0611,2.8886,9.7396,1567,2789.27
16399,1.9704,3.7026,10.4591,1499,2789.27
16404,-1.9704,0.6057,11.7603,1507,2789.27
16409,-3.2956,-0.4489,11.546,1501,2789.27
16414,-1.4868,2.4146,9.5864,1564,2789.27
16419,1.5778,3.6069,10.1993,1501,2789.27
16424,-0.8739,1.4688,11.5065,1513,2789.27
16429,-2.3643,-1.2151,11.9195,1499,2789.27
16434,-3.0035,1.5981,9.9024,1517,2789.27
16439,0.9349,3.158,10.0329,1545,2789.53
16444,1.4832,2.4888,11.1223,1501,2789.53
16449,-1.634,-0.8619,11.9878,1493,2789.53
16454,-3.729,0.7266,10.641,1503,2789.53
16459,0.2406,2.9401,9.8234,1545,2789.27
16464,2.1045,3.4548,10.5919,1502,2789.27
16469,-1.8352,0.2562,11.8812,1507,2789.27
16474,-3.5051,-0.2526,11.4072,1507,2789.27
16479,-0.9852,2.5235,9.56,1562,2789.14
16484,1.6903,3.6715,10.222,1509,2789.14
16489,-1.5706,1.1851,11.5987,1502,2789.14
16494,-2.7521,-1.0163,11.9052,1500,2789.14
16499,-2.5391,1.919,9.7241,1499,2789.14
16504,1.2151,3.4034,10.0952,1527,2789.4
16509,0.8511,2.2003,11.2719,1503,2789.4
16514,-1.7645,-1.1001,11.9806,1506,2789.4
16519,-3.5698,0.9828,10.2639,1501,2789.4
16524,0.5399,2.9748,9.8569,1555,2789.79
16529,2.1679,3.1867,10.7895,1503,2789.79
16534,-1.6101,-0.1951,11.9423,1496,2789.79
16539,-3.7218,0.0299,11.1414,1501,2789.79
16544,-0.5375,2.7294,9.6151,1561,2790.44
16549,1.8543,3.7637,10.3238,1511,2790.44
16554,-2.0016,0.9529,11.6657,1501,2790.44
16559,-3.1232,-0.7614,11.7483,1511,2790.44
16564,-2.0889,2.1943,9.6259,1565,2790.96
16569,1.476,3.5147,10.1454,1501,2790.96
16574,0.0239,1.7945,11.3868,1501,2790.96
16579,-2.0016,-1.2605,11.9662,1493,2790.96
16584,-3.4536,1.2605,10.0748,1509,2790.96
16589,0.8344,3.0586,9.9132,1544,2791.22
16594,1.9824,2.8132,10.9259,1512,2791.22
16599,-1.5215,-0.6404,12.0357,1499,2791.22
16604,-3.8954,0.3843,10.8828,1499,2791.22
16609,-0.0874,2.8683,9.675,1563,2791.48
16614,2.0506,3.6871,10.4663,1501,2791.48
16619,-2.0195,0.6752,11.7819,1501,2791.48
16624,-3.4943,-0.504,11.5448,1500,2791.48
16629,-1.5862,2.4756,9.5158,1568,2791.48
16634,1.7933,3.6703,10.2448,1501,2791.48
16639,-0.8835,1.4605,11.4862,1511,2791.48
16644,-1.7597,-1.1696,12.0859,1509,2791.48
16649,-3.8978,0.9876,10.2831,1517,2791.48
16654,0.6237,3.0263,9.8892,1547,2791.48
16659,2.2901,3.231,10.8302,1501,2791.48
16664,-1.7549,-0.1257,11.9219,1495,2791.48
16669,-3.723,0.1413,11.1067,1500,2791.48
16674,-0.48,2.7737,9.6414,1548,2791.09
16679,1.907,3.6883,10.3106,1508,2791.09
16684,-1.8639,0.8859,11.7076,1501,2791.09
16689,-3.061,-0.8092,11.6442,1508,2791.09
16694,-2.0686,2.2003,9.6426,1563,2790.96
16699,1.3934,3.5147,10.1442,1509,2790.96
16704,-0.1161,1.7968,11.4036,1499,2790.96
16709,-2.0937,-1.2186,11.9794,1499,2790.96
16714,-3.3423,1.3898,10.064,1509,2790.96
16719,0.8033,3.1352,9.9802,1543,2790.96
16724,2.0075,2.7809,10.9798,1503,2790.96
16729,-1.4605,-0.595,11.9602,1500,2790.96
16734,-3.7781,0.31,10.823,1500,2790.96
16739,-0.0443,2.8048,9.6558,1554,2791.09
16744,2.0075,3.5949,10.5093,1506,2791.09
16749,-1.9908,0.5315,11.8405,1496,2791.09
16754,-3.389,-0.5124,11.5772,1503,2791.09
16759,-1.4724,2.4481,9.6043,1561,2790.31
16764,1.5395,3.6751,10.2448,1509,2790.31
16769,-0.9864,1.482,11.5221,1499,2790.31
16774,-2.4134,-1.1217,11.9028,1512,2790.31
16779,-2.9616,1.6759,9.9216,1546,2790.05
16784,1.0307,3.213,9.9647,1497,2790.05
16789,1.4844,2.4217,11.1163,1505,2790.05
16794,-1.5814,-1.0092,11.9531,1497,2790.05
16799,-3.7541,0.7027,10.5536,1523,2790.05
16804,0.2753,2.9221,9.7959,1541,2789.14
16809,2.047,3.4225,10.6722,1509,2789.14
16814,-1.8783,0.2286,11.9147,1499,2789.14
16819,-3.6081,-0.1448,11.376,1503,2789.14
16824,-0.9218,2.654,9.6175,1567,2789.01
16829,1.743,3.7781,10.2831,1501,2789.01
16834,-1.6472,1.2414,11.5987,1499,2789.01
16839,-2.7461,-1.0068,11.7914,1499,2789.01
16844,-2.4876,1.8747,9.7276,1541,2788.62
16849,1.1803,3.322,10.1239,1499,2788.62
16854,0.6907,2.0518,11.3282,1515,2788.62
16859,-1.8423,-1.2103,11.9782,1503,2788.62
16864,-3.6009,1.0163,10.2651,1517,2788.62
16869,0.5435,3.0442,9.8737,1545,2789.4
16874,2.077,3.2022,10.7631,1501,2789.4
16879,-1.6759,-0.1544,11.9363,1497,2789.4
16884,-3.7397,0.1628,11.1175,1501,2789.4
16889,-0.4393,2.7509,9.6522,1549,2789.01
16894,1.9118,3.6907,10.2951,1506,2789.01
16899,-1.9237,0.8811,11.7124,1507,2789.01
16904,-3.055,-0.7865,11.7041,1508,2789.01
16909,-1.9848,2.1416,9.6678,1564,2788.88
16914,1.3467,3.5171,10.1526,1503,2788.88
16919,-0.1233,1.8124,11.4179,1507,2788.88
16924,-2.1165,-1.1863,12.0045,1497,2788.88
16929,-3.3303,1.3575,10.082,1501,2788.88
16934,0.7602,3.1723,9.9671,1533,2789.01
16939,1.9213,2.8335,10.9894,1503,2789.01
16944,-1.5407,-0.5483,11.9626,1502,2789.01
16949,-3.717,0.3663,10.7907,1503,2789.01
16954,-0.0826,2.8647,9.6295,1557,2789.66
16959,1.9417,3.6308,10.4698,1503,2789.66
16964,-2.0195,0.5962,11.8321,1497,2789.66
16969,-3.3435,-0.5327,11.5209,1507,2789.66
16974,-1.5131,2.4002,9.6151,1560,2789.66
16979,1.5227,3.6727,10.1885,1509,2789.66
16984,-0.9493,1.5083,11.5604,1496,2789.66
16989,-2.3822,-1.1935,11.9483,1513,2789.66
16994,-2.9916,1.5754,9.9132,1560,2789.66
16999,1.0511,3.2489,10.0736,1506,2789.66
17004,1.5467,2.4445,11.1103,1510,2789.66
17009,-1.5718,-0.9026,11.971,1491,2789.66
17014,-3.7098,0.6393,10.5129,1505,2789.66
17019,0.2741,2.9006,9.7863,1543,2790.18
17024,2.0494,3.4429,10.6291,1507,2790.18
17029,-1.8783,0.2442,11.9147,1499,2790.18
17034,-3.6117,-0.1568,11.3749,1513,2790.18
17039,-0.9589,2.6923,9.6031,1559,2790.18
17044,1.7992,3.8056,10.2077,1502,2790.18
17049,-1.6293,1.2091,11.6131,1497,2790.18
17054,-2.7414,-1.0463,11.795,1505,2790.18
17059,-2.4816,1.889,9.7252,1557,2790.31
17064,1.2582,3.3615,10.0987,1499,2790.31
17069,0.8164,2.1225,11.3042,1512,2790.31
17074,-1.804,-1.1803,11.9554,1499,2790.31
17079,-3.5698,1.0104,10.3022,1513,2790.31
17084,0.5555,3.0215,9.8725,1544,2790.31
17089,2.0674,3.1975,10.7332,1501,2790.31
17094,-1.7166,-0.1772,12.0009,1495,2790.31
17099,-3.7254,0.1125,11.1259,1501,2790.31
17104,-0.4501,2.7869,9.6522,1549,2790.57
17109,1.895,3.7314,10.3645,1501,2790.57
17114,-1.9166,0.9254,11.7579,1507,2790.57
17119,-3.0179,-0.8188,11.6801,1506,2790.57
17124,-2.0195,2.1751,9.6103,1565,2790.57
17129,1.4257,3.4752,10.1335,1504,2790.57
17134,-0.1101,1.7514,11.4036,1507,2790.57
17139,-2.1249,-1.233,11.9758,1497,2790.57
17144,-3.3686,1.3288,10.0916,1495,2790.57
17149,0.7829,3.1556,10.0305,1531,2790.44
17154,1.9453,2.8491,10.987,1503,2790.44
17159,-1.5838,-0.5303,11.989,1499,2790.44
17164,-3.7721,0.4142,10.7978,1503,2790.44
17169,-0.0467,2.8838,9.7181,1555,2790.96
17174,2.0303,3.5853,10.4878,1507,2790.96
17179,-1.9956,0.5794,11.8597,1499,2790.96
17184,-3.3603,-0.5267,11.5975,1499,2790.96
17189,-1.4629,2.4433,9.6211,1561,2790.96
17194,1.5467,3.6571,10.1825,1508,2790.96
17199,-0.9876,1.4688,11.5281,1501,2790.96
17204,-2.4134,-1.1827,11.8872,1511,2790.96
17209,-2.9676,1.6508,9.8821,1565,2791.48
17214,1.0511,3.2358,10.07,1503,2791.48
17219,1.5024,2.4325,11.1247,1510,2791.48
17224,-1.6053,-0.905,11.995,1496,2791.48
17229,-3.7266,0.6919,10.471,1501,2791.48
17234,0.2789,2.9066,9.748,1543,2791.61
17239,2.0913,3.3974,10.6829,1509,2791.61
17244,-1.8711,0.1844,11.9973,1498,2791.61
17249,-3.65,-0.1604,11.4048,1510,2791.61
17254,-0.9182,2.6815,9.6199,1545,2791.22
17259,1.7418,3.7996,10.2891,1501,2791.22
17264,-1.7095,1.2139,11.6586,1500,2791.22
17269,-2.7485,-1.0235,11.7783,1499,2791.22
17274,-2.472,1.9609,9.7252,1571,2791.74
17279,1.3108,3.4249,10.0281,1499,2791.74
17284,0.7027,2.0315,11.2731,1518,2791.74
17289,-1.7921,-1.2007,12.0345,1499,2791.74
17294,-3.5877,1.0379,10.2256,1515,2791.74
17299,0.6249,3.0514,9.9204,1530,2791.09
17304,2.0794,3.1017,10.7907,1500,2791.09
17309,-1.6712,-0.2526,11.9686,1496,2791.09
17314,-3.7757,0.1939,11.0792,1500,2791.09
17319,-0.3735,2.8168,9.7085,1555,2790.57
17324,1.907,3.7457,10.3837,1501,2790.57
17329,-1.9848,0.8464,11.7424,1506,2790.57
17334,-3.0586,-0.7554,11.6717,1503,2790.57
17339,-1.9106,2.1919,9.5756,1561,2790.44
17344,1.4557,3.4907,10.1562,1507,2790.44
17349,-0.2334,1.7083,11.4179,1501,2790.44
17354,-2.1931,-1.2582,11.965,1497,2790.44
17359,-3.2681,1.3958,10.0688,1496,2790.44
17364,0.8811,3.158,9.9886,1533,2789.79
17369,1.8555,2.8084,10.9619,1503,2789.79
17374,-1.5933,-0.6057,12.0249,1503,2789.79
17379,-3.7733,0.4741,10.7679,1497,2789.79
17384,0.0108,2.8874,9.6486,1550,2790.05
17389,2.0159,3.6033,10.5046,1503,2790.05
17394,-1.9597,0.5471,11.8357,1500,2790.05
17399,-3.3639,-0.48,11.4814,1499,2790.05
17404,-1.4114,2.4433,9.5612,1563,2789.79
17409,1.6125,3.6464,10.228,1510,2789.79
17414,-1.093,1.4329,11.5652,1501,2789.79
17419,-2.4828,-1.1959,11.8728,1513,2789.79
17424,-2.9006,1.6759,9.8641,1573,2789.53
17429,1.0606,3.2705,10.0317,1507,2789.53
17434,1.4162,2.4074,11.1402,1509,2789.53
17439,-1.6077,-0.9026,11.9734,1495,2789.53
17444,-3.6847,0.7566,10.4591,1502,2789.53
17449,0.3232,2.9628,9.8007,1534,2789.66
17454,2.1069,3.3854,10.641,1507,2789.66
17459,-1.822,0.1317,11.8968,1494,2789.66
17464,-3.626,-0.1652,11.2875,1510,2789.66
17469,-0.8918,2.6288,9.6367,1567,2790.05
17474,1.7454,3.7936,10.2627,1501,2790.05
17479,-1.7346,1.1337,11.6526,1495,2790.05
17484,-2.7845,-0.9625,11.8082,1503,2790.05
17489,-2.4565,1.9956,9.6857,1547,2790.31
17494,1.318,3.4129,10.0664,1497,2790.31
17499,0.6668,2.0363,11.2755,1512,2790.31
17504,-1.8004,-1.1959,12.0069,1501,2790.31
17509,-3.535,1.0415,10.2544,1513,2790.31
17514,0.6273,3.0454,9.9192,1545,2790.7
17519,2.1332,3.122,10.8218,1506,2790.7
17524,-1.6233,-0.2622,11.9495,1499,2790.7
17529,-3.7709,0.1784,11.0528,1501,2790.7
17534,-0.3663,2.7593,9.7229,1547,2790.83
17539,1.9106,3.729,10.3801,1502,2790.83
17544,-2.0147,0.8715,11.7328,1506,2790.83
17549,-3.1244,-0.68,11.6765,1501,2790.83
17554,-1.8663,2.2194,9.5457,1563,2790.96
17559,1.4581,3.5446,10.167,1507,2790.96
17564,-0.2693,1.7095,11.3796,1503,2790.96
17569,-2.1668,-1.2737,11.9626,1495,2790.96
17574,-3.2609,1.3551,10.0341,1501,2790.96
17579,0.8823,3.122,10.0317,1525,2791.35
17584,1.8208,2.8048,11.0277,1501,2791.35
17589,-1.5814,-0.6333,11.9303,1501,2791.35
17594,-3.7912,0.4717,10.756,1507,2791.35
17599,0.0084,2.8946,9.7504,1555,2791.87
17604,2.0865,3.5877,10.4998,1501,2791.87
17609,-1.9357,0.5028,11.8549,1499,2791.87
17614,-3.3758,-0.4824,11.4922,1495,2791.87
17619,-1.3216,2.4385,9.5768,1563,2792.0
17624,1.5921,3.6847,10.1909,1509,2792.0
17629,-1.1181,1.3551,11.5281,1501,2792.0
17634,-2.5666,-1.1349,11.8776,1513,2792.0
17639,-2.8838,1.743,9.8282,1559,2792.0
17644,1.0882,3.2801,10.0724,1499,2792.0
17649,1.3132,2.3691,11.1366,1509,2792.0
17654,-1.664,-0.9565,11.971,1497,2792.0
17659,-3.6667,0.808,10.4459,1507,2792.0
17664,0.3747,2.9473,9.8485,1532,2792.39
17669,2.1284,3.3315,10.6889,1511,2792.39
17674,-1.7909,0.0754,11.9243,1498,2792.39
17679,-3.6775,-0.1329,11.2719,1509,2792.39
17684,-0.7973,2.6504,9.6367,1565,2792.91
17689,1.7681,3.7804,10.3202,1502,2792.91
17694,-1.8651,1.0977,11.6705,1501,2792.91
17699,-2.9341,-0.9014,11.8525,1501,2792.91
17704,-2.3415,2.0267,9.6857,1557,2793.3
17709,1.3683,3.5051,10.1275,1501,2793.3
17714,0.4226,1.9429,11.2851,1514,2793.3
17719,-1.8926,-1.2186,11.9507,1502,2793.3
17724,-3.4644,1.1408,10.0999,1513,2793.3
17729,0.7386,3.0514,9.924,1547,2793.3
17734,2.0722,2.9676,10.9104,1500,2793.3
17739,-1.5754,-0.401,11.9686,1495,2793.3
17744,-3.796,0.2753,10.914,1500,2793.3
17749,-0.2813,2.8539,9.6845,1553,2793.3
17754,1.9668,3.7242,10.404,1507,2793.3
17759,-2.0542,0.8033,11.7819,1511,2793.3
17764,-3.2729,-0.5315,11.6837,1502,2793.3
17769,-1.7095,2.3331,9.5936,1565,2793.43
17774,1.579,3.6152,10.1694,1507,2793.43
17779,-0.6093,1.555,11.406,1501,2793.43
17784,-2.2637,-1.2079,11.9614,1499,2793.43
17789,-3.1244,1.4617,9.9383,1507,2793.43
17794,0.9194,3.2178,10.058,1533,2793.43
17799,1.6532,2.6085,11.06,1517,2793.43
17804,-1.64,-0.7949,12.0345,1506,2793.43
17809,-3.7601,0.6153,10.6865,1500,2793.43
17814,0.182,2.9185,9.748,1555,2793.69
17819,2.1272,3.535,10.5548,1501,2793.69
17824,-1.9273,0.3567,11.8968,1497,2793.69
17829,-3.45,-0.334,11.4203,1502,2793.69
17834,-1.0523,2.5187,9.5277,1563,2793.43
17839,1.7154,3.6823,10.2364,1511,2793.43
17844,-1.4724,1.2258,11.5305,1499,2793.43
17849,-2.7019,-1.0942,11.8094,1514,2793.43
17854,-2.66,1.8184,9.7169,1567,2792.78
17859,1.2007,3.371,10.1071,1501,2792.78
17864,0.972,2.2027,11.2551,1503,2792.78
17869,-1.8148,-1.0403,11.9291,1495,2792.78
17874,-3.6129,1.0008,10.2963,1508,2792.78
17879,0.5375,3.043,9.8881,1543,2792.65
17884,2.15,3.2202,10.7607,1507,2792.65
17889,-1.7262,-0.1245,11.9112,1502,2792.65
17894,-3.7254,0.0036,11.1318,1499,2792.65
17899,-0.5387,2.6971,9.6606,1555,2792.13
17904,1.8663,3.7134,10.386,1501,2792.13
17909,-1.9297,0.9254,11.6765,1507,2792.13
17914,-3.0993,-0.832,11.7759,1501,2792.13
17919,-2.0985,2.1739,9.6055,1527,2792.0
17924,1.4054,3.565,10.1406,1499,2792.0
17929,0.0072,1.7873,11.3892,1511,2792.0
17934,-2.0746,-1.2198,12.0021,1501,2792.0
17939,-3.3339,1.2821,10.0616,1513,2792.0
17944,0.8284,3.0801,9.9252,1527,2791.35
17949,1.9728,2.8072,10.8793,1499,2791.35
17954,-1.555,-0.5782,11.9926,1500,2791.35
17959,-3.7828,0.3591,10.8661,1503,2791.35
17964,-0.1245,2.8359,9.7396,1551,2791.35
17969,1.9848,3.632,10.5285,1509,2791.35
17974,-2.0027,0.6297,11.8369,1513,2791.35
17979,-3.3914,-0.4501,11.5652,1503,2791.35
17984,-1.4449,2.4002,9.5421,1565,2791.35
17989,1.6113,3.6751,10.1382,1499,2791.35
17994,-0.8847,1.476,11.4371,1500,2791.35
17999,-2.4205,-1.2402,11.9447,1509,2791.35
18004,-2.9568,1.5862,9.9156,1545,2791.61
18009,1.0127,3.2094,10.0664,1512,2791.61
18014,1.4533,2.4325,11.151,1499,2791.61
18019,-1.6951,-0.9373,11.9973,1501,2791.61
18024,-3.7529,0.6835,10.5381,1499,2791.61
18029,0.328,2.9377,9.8067,1511,2791.87
18034,2.1213,3.5135,10.5752,1503,2791.87
18039,-1.8842,0.2143,11.9195,1498,2791.87
18044,-3.5686,-0.1425,11.3629,1509,2791.87
18049,-0.8667,2.6097,9.6139,1565,2792.52
18054,1.7597,3.7338,10.2556,1509,2792.52
18059,-1.6101,1.1277,11.5556,1501,2792.52
18064,-2.8048,-1.0259,11.8274,1511,2792.52
18069,-2.5079,1.9213,9.6738,1563,2792.65
18074,1.2091,3.3866,10.161,1499,2792.65
18079,0.6692,2.0961,11.2863,1509,2792.65
18084,-1.9154,-1.1277,12.0716,1500,2792.65
18089,-3.5482,1.0965,10.2484,1512,2792.65
18094,0.6524,3.067,9.9024,1533,2792.52
18099,2.132,3.1316,10.7811,1497,2792.52
18104,-1.6508,-0.2059,11.9495,1499,2792.52
18109,-3.7218,0.1065,11.0935,1503,2792.52
18114,-0.4058,2.7509,9.6534,1528,2792.52
18119,1.8914,3.723,10.3286,1499,2792.52
18124,-2.0171,0.8176,11.7448,1507,2792.52
18129,-3.1903,-0.7566,11.6993,1503,2792.52
18134,-1.9022,2.2242,9.5972,1531,2792.52
18139,1.4485,3.6368,10.1813,1508,2792.52
18144,-0.3651,1.7071,11.5041,1528,2792.52
18149,-2.1691,-1.1995,12.0177,1501,2792.52
18154,-3.2453,1.4174,10.0126,1500,2792.52
18159,0.9266,3.1771,9.9671,1525,2792.52
18164,1.8926,2.7031,11.0217,1500,2792.52
18169,-1.5395,-0.6895,11.965,1499,2792.52
18174,-3.7589,0.4968,10.7368,1503,2792.52
18179,0.0371,2.8347,9.7348,1557,2792.52
18184,2.0255,3.5865,10.5105,1507,2792.52
18189,-2.0099,0.4621,11.8274,1501,2792.52
18194,-3.4991,-0.3376,11.4862,1501,2792.52
18199,-1.3024,2.5462,9.6055,1562,2792.26
18204,1.6771,3.723,10.2508,1503,2792.26
18209,-1.221,1.3803,11.5161,1501,2792.26
18214,-2.4983,-1.1337,11.9171,1509,2792.26
18219,-2.8144,1.7226,9.7947,1567,2792.13
18224,1.1133,3.2789,10.1083,1509,2792.13
18229,1.2881,2.2936,11.1594,1509,2792.13
18234,-1.6927,-1.087,12.0009,1497,2792.13
18239,-3.711,0.8056,10.4399,1501,2792.13
18244,0.4465,2.9868,9.8366,1531,2792.39
18249,2.1356,3.4237,10.6434,1507,2792.39
18254,-1.8495,0.1041,11.9495,1495,2792.39
18259,-3.6356,0.0156,11.2623,1513,2792.39
18264,-0.6871,2.727,9.6019,1566,2792.78
18269,1.8364,3.7541,10.2711,1502,2792.78
18274,-1.7873,1.0163,11.6179,1500,2792.78
18279,-2.8623,-0.9613,11.8034,1503,2792.78
18284,-2.2913,2.0267,9.675,1566,2792.91
18289,1.2821,3.4644,10.1598,1500,2792.91
18294,0.3304,1.9369,11.3617,1513,2792.91
18299,-1.9944,-1.1947,12.0105,1501,2792.91
18304,-3.4907,1.2354,10.1622,1515,2792.91
18309,0.7673,3.1101,9.9551,1547,2793.3
18314,2.077,3.0335,10.8517,1501,2793.3
18319,-1.6316,-0.334,11.9495,1499,2793.3
18324,-3.7373,0.2873,10.9523,1501,2793.3
18329,-0.2167,2.8335,9.6642,1547,2793.69
18334,1.9764,3.6464,10.4842,1502,2793.69
18339,-1.9848,0.6548,11.74,1509,2793.69
18344,-3.316,-0.656,11.5903,1507,2793.69
18349,-1.6891,2.32,9.5421,1563,2794.08
18354,1.5203,3.6739,10.258,1507,2794.08
18359,-0.7171,1.561,11.4874,1503,2794.08
18364,-2.4038,-1.1576,12.0345,1495,2794.08
18369,-3.0921,1.5957,9.9216,1502,2794.08
18374,1.0259,3.2741,9.9659,1531,2794.47
18379,1.731,2.5331,10.999,1501,2794.47
18384,-1.5562,-0.9206,12.0309,1507,2794.47
18389,-3.7613,0.5674,10.5524,1499,2794.47
18394,0.2047,2.8982,9.7815,1555,2794.99
18399,2.0853,3.4884,10.6123,1502,2794.99
18404,-1.9309,0.2442,11.9052,1494,2794.99
18409,-3.6344,-0.2322,11.4742,1501,2794.99
18414,-1.0331,2.5977,9.6235,1565,2795.25
18419,1.7526,3.7649,10.2639,1510,2795.25
18424,-1.5897,1.2486,11.5963,1501,2795.25
18429,-2.7521,-1.0379,11.874,1513,2795.25
18434,-2.5402,1.9094,9.6953,1568,2795.25
18439,1.251,3.3579,10.0844,1498,2795.25
18444,0.8835,2.1237,11.2923,1503,2795.25
18449,-1.8483,-1.2402,11.9662,1499,2795.25
18454,-3.62,0.9924,10.2256,1511,2795.25
18459,0.5974,2.976,9.9096,1543,2795.12
18464,2.0985,3.1963,10.8433,1509,2795.12
18469,-1.7526,-0.2119,12.0021,1499,2795.12
18474,-3.7266,0.182,11.1211,1501,2795.12
18479,-0.346,2.7833,9.6295,1544,2795.25
18484,1.9656,3.7864,10.3681,1499,2795.25
18489,-1.9549,0.8523,11.6586,1506,2795.25
18494,-3.1388,-0.7446,11.6753,1499,2795.25
18499,-1.9333,2.2051,9.59,1533,2794.99
18504,1.4425,3.5099,10.2125,1503,2794.99
18509,-0.2143,1.6795,11.4395,1513,2794.99
18514,-2.2386,-1.2869,11.9614,1501,2794.99
18519,-3.322,1.4186,9.9742,1503,2794.99
18524,0.917,3.1627,10.0509,1527,2795.64
18529,1.901,2.8132,11.0241,1499,2795.64
18534,-1.6412,-0.6237,12.0644,1499,2795.64
18539,-3.7709,0.5519,10.7476,1505,2795.64
18544,0.1448,2.8862,9.6965,1544,2795.25
18549,2.0913,3.5279,10.5249,1506,2795.25
18554,-1.9441,0.3723,11.8681,1500,2795.25
18559,-3.5195,-0.4764,11.4586,1502,2795.25
18564,-1.2534,2.484,9.56,1563,2794.86
18569,1.6747,3.6907,10.2328,1509,2794.86
18574,-1.2869,1.3767,11.6023,1501,2794.86
18579,-2.6695,-1.0965,11.9267,1509,2794.86
18584,-2.8012,1.8543,9.8282,1571,2794.73
18589,1.2198,3.3782,10.0389,1509,2794.73
18594,1.2546,2.2924,11.2049,1511,2794.73
18599,-1.6987,-1.0654,11.9866,1499,2794.73
18604,-3.6607,0.893,10.3693,1499,2794.73
18609,0.48,3.0071,9.845,1545,2795.25
18614,2.1668,3.2884,10.7284,1505,2795.25
18619,-1.7418,-0.1341,11.9722,1497,2795.25
18624,-3.7326,-0.0323,11.1773,1511,2795.25
18629,-0.6225,2.7282,9.5493,1573,2795.25
18634,1.8112,3.796,10.3789,1503,2795.25
18639,-1.9477,1.0427,11.6729,1499,2795.25
18644,-3.0287,-0.844,11.746,1501,2795.25
18649,-2.0961,2.1572,9.6666,1543,2795.25
18654,1.4784,3.5638,10.1742,1497,2795.25
18659,0.1939,1.8423,11.3162,1515,2795.25
18664,-2.0399,-1.3168,11.9746,1499,2795.25
18669,-3.4117,1.2522,10.0928,1516,2795.25
18674,0.8236,3.0538,9.9946,1545,2795.51
18679,2.0327,2.8599,10.9451,1502,2795.51
18684,-1.6652,-0.559,12.0584,1495,2795.51
18689,-3.8595,0.419,10.8804,1499,2795.51
18694,-0.0742,2.8946,9.754,1555,2795.51
18699,2.059,3.6978,10.4507,1506,2795.51
18704,-2.0458,0.6393,11.807,1509,2795.51
18709,-3.3483,-0.4609,11.5341,1503,2795.51
18714,-1.4497,2.3846,9.5577,1563,2795.51
18719,1.6041,3.5853,10.1766,1506,2795.51
18724,-0.9206,1.4413,11.5185,1502,2795.51
18729,-2.4972,-1.2354,11.8812,1500,2795.51
18734,-2.9461,1.6676,9.8402,1508,2795.51
18739,1.0427,3.286,10.0688,1533,2795.51
18744,1.4545,2.466,11.1857,1507,2795.51
18749,-1.7406,-0.9685,12.0117,1507,2795.51
18754,-3.7673,0.8368,10.495,1499,2795.51
18759,0.3879,2.9904,9.7743,1549,2795.77
18764,2.1943,3.4141,10.6183,1503,2795.77
18769,-1.8016,0.1077,11.9303,1495,2795.77
18774,-3.6045,-0.1329,11.2563,1503,2795.77
18779,-0.8344,2.6145,9.5636,1564,2795.51
18784,1.7394,3.6679,10.3034,1511,2795.51
18789,-1.7538,1.0786,11.722,1501,2795.51
18794,-2.9939,-1.0295,11.8058,1509,2795.51
18799,-2.3798,2.0423,9.7145,1533,2795.77
18804,1.3599,3.4692,10.1634,1497,2795.77
18809,0.5399,2.0207,11.2899,1508,2795.77
18814,-1.9549,-1.2031,11.8932,1497,2795.77
18819,-3.5291,1.1803,10.1299,1513,2795.77
18824,0.7506,3.0478,9.9527,1545,2795.77
18829,2.1428,2.9939,10.8026,1499,2795.77
18834,-1.6065,-0.4489,11.971,1501,2795.77
18839,-3.8104,0.2298,10.9942,1499,2795.77
18844,-0.2873,2.8383,9.6786,1527,2796.16
18849,1.9237,3.6895,10.3992,1500,2796.16
18854,-2.053,0.7626,11.8537,1523,2796.16
18859,-3.3914,-0.5866,11.6514,1502,2796.16
18864,-1.6676,2.399,9.5996,1564,2796.03
18869,1.6281,3.632,10.1682,1507,2796.03
18874,-0.5842,1.6173,11.4682,1509,2796.03
18879,-2.3367,-1.2773,11.9171,1495,2796.03
18884,-3.0825,1.5467,9.8701,1501,2796.03
18889,1.0451,3.1603,9.9539,1531,2795.9
18894,1.6807,2.5355,11.1067,1503,2795.9
18899,-1.6412,-0.9266,12.0368,1501,2795.9
18904,-3.8068,0.6584,10.6362,1507,2795.9
18909,0.2466,2.9521,9.8067,1555,2795.77
18914,2.0949,3.5111,10.562,1507,2795.77
18919,-1.9453,0.2897,11.9291,1498,2795.77
18924,-3.5961,-0.1903,11.3509,1501,2795.77
18929,-0.9768,2.6336,9.572,1560,2795.51
18934,1.7657,3.7637,10.2867,1511,2795.51
18939,-1.5347,1.2258,11.6334,1500,2795.51
18944,-2.7414,-1.1217,11.8549,1513,2795.51
18949,-2.563,1.8794,9.6558,1545,2795.77
18954,1.2534,3.3387,10.1454,1497,2795.77
18959,0.7649,2.1344,11.2719,1511,2795.77
18964,-1.9082,-1.166,12.0213,1497,2795.77
18969,-3.6069,1.0989,10.2855,1507,2795.77
18974,0.6512,3.0909,9.9204,1543,2795.9
18979,2.1703,3.1831,10.7464,1510,2795.9
18984,-1.6532,-0.2155,12.0021,1499,2795.9
18989,-3.7505,0.1544,11.0133,1501,2795.9
18994,-0.3867,2.7629,9.6055,1567,2796.16
18999,1.9381,3.6081,10.2963,1501,2796.16
19004,-1.9285,0.8332,11.8501,1502,2796.16
19009,-3.2525,-0.7997,11.6502,1502,2796.16
19014,-1.8759,2.2685,9.6247,1567,2796.16
19019,1.4712,3.5769,10.2424,1503,2796.16
19024,-0.2969,1.6783,11.5077,1516,2796.16
19029,-2.2757,-1.2342,11.9447,1506,2796.16
19034,-3.2501,1.4796,9.9383,1511,2796.16
19039,0.972,3.1939,9.9898,1541,2796.16
19044,1.913,2.7019,11.0265,1499,2796.16
19049,-1.5826,-0.7219,12.0213,1493,2796.16
19054,-3.7864,0.5028,10.6722,1499,2796.16
19059,0.1317,2.879,9.6953,1553,2796.29
19064,2.0614,3.5434,10.5261,1503,2796.29
19069,-1.9872,0.407,11.9183,1500,2796.29
19074,-3.5997,-0.3615,11.4239,1507,2796.29
19079,-1.1851,2.5845,9.6283,1561,2796.55
19084,1.7071,3.8032,10.2735,1499,2796.55
19089,-1.3443,1.3587,11.5951,1500,2796.55
19094,-2.6612,-1.1145,11.8681,1511,2796.55
19099,-2.6564,1.8124,9.6833,1549,2796.42
19104,1.2414,3.2968,10.0461,1511,2796.42
19109,1.1337,2.1332,11.2097,1507,2796.42
19114,-1.7478,-1.1887,12.0524,1497,2796.42
19119,-3.6955,0.8679,10.2939,1497,2796.42
19124,0.5195,3.0143,9.8725,1533,2797.33
19129,2.1464,3.2298,10.7476,1501,2797.33
19134,-1.749,-0.0826,12.0021,1495,2797.33
19139,-3.8068,0.1317,11.0852,1513,2797.33
19144,-0.4836,2.806,9.651,1567,2796.55
19156,7.4939,15.0116,41.1755,1499,2796.55
19160,-3.055,-0.8607,11.7412,1507,2796.55
19165,-2.0387,2.1464,9.6139,1567,2796.42
19170,1.4449,3.5231,10.1897,1509,2796.42
19175,-0.0215,1.7813,11.4084,1510,2796.42
19180,-2.1811,-1.3192,11.9794,1497,2796.42
19185,-3.4022,1.3312,10.0042,1503,2796.42
19190,0.8487,3.1532,9.991,1529,2796.03
19195,1.9118,2.8479,11.0002,1501,2796.03
19200,-1.6137,-0.589,12.0261,1499,2796.03
19205,-3.7828,0.4585,10.7356,1503,2796.03
19210,0.0263,2.8515,9.6319,1557,2795.77
19215,2.1141,3.571,10.4938,1507,2795.77
19220,-1.9836,0.5112,11.8321,1499,2795.77
19225,-3.456,-0.4956,11.4622,1501,2795.77
19230,-1.3779,2.4181,9.5852,1563,2795.51
19235,1.6257,3.6787,10.2125,1509,2795.51
19240,-1.1564,1.409,11.6191,1499,2795.51
19245,-2.6013,-1.1696,11.8956,1511,2795.51
19250,-2.8886,1.7573,9.8294,1568,2795.12
19255,1.1408,3.3375,10.0856,1499,2795.12
19260,1.3695,2.3439,11.1402,1511,2795.12
19265,-1.6795,-0.9876,12.0428,1499,2795.12
19270,-3.7014,0.8212,10.3537,1507,2795.12
19275,0.4537,2.9532,9.8689,1532,2794.73
19280,2.1141,3.292,10.6015,1509,2794.73
19285,-1.7813,0.0239,11.9375,1496,2794.73
19290,-3.699,-0.1125,11.2384,1511,2794.73
19295,-0.7793,2.6911,9.6905,1567,2794.21
19300,1.7681,3.7924,10.3262,1507,2794.21
19305,-1.8771,1.0487,11.722,1497,2794.21
19310,-3.0131,-0.9074,11.7807,1507,2794.21
19315,-2.2745,2.1404,9.681,1565,2794.34
19320,1.4521,3.5183,10.0748,1500,2794.34
19325,0.4357,1.9022,11.3689,1512,2794.34
19330,-1.9549,-1.2689,11.9961,1501,2794.34
19335,-3.4776,1.1576,10.1035,1515,2794.34
19340,0.729,3.0754,9.9515,1542,2793.95
19345,1.9956,2.9628,10.9259,1501,2793.95
19350,-1.5862,-0.4992,11.9938,1498,2793.95
19355,-3.8199,0.2813,10.8649,1500,2793.95
19360,-0.17,2.8515,9.7205,1547,2793.82
19365,1.9764,3.7397,10.4567,1508,2793.82
19370,-2.0722,0.7506,11.7759,1506,2793.82
19375,-3.2836,-0.5567,11.6514,1503,2793.82
19380,-1.6305,2.3463,9.5732,1563,2793.69
19385,1.6113,3.6248,10.2185,1508,2793.69
19390,-0.6943,1.5036,11.4359,1501,2793.69
19395,-2.3415,-1.2617,11.9135,1503,2793.69
19400,-3.1041,1.5239,9.8881,1503,2793.69
19405,1.0104,3.2406,10.0796,1531,2793.82
19410,1.5814,2.5726,11.0552,1509,2793.82
19415,-1.6819,-0.8607,12.0141,1503,2793.82
19420,-3.7792,0.6955,10.5453,1509,2793.82
19425,0.2921,2.9676,9.7671,1548,2794.08
19430,2.1656,3.4692,10.5692,1503,2794.08
19435,-1.8806,0.2729,11.8597,1499,2794.08
19440,-3.6009,-0.2634,11.3234,1511,2794.08
19445,-0.9912,2.5618,9.5636,1566,2794.21
19450,1.7011,3.711,10.2556,1514,2794.21
19455,-1.5383,1.1899,11.6502,1501,2794.21
19460,-2.7892,-1.0582,11.8549,1512,2794.21
19465,-2.5642,1.9178,9.73,1545,2794.34
19470,1.2725,3.4405,10.1263,1499,2794.34
19475,0.8224,2.1177,11.3054,1509,2794.34
19480,-1.8184,-1.1408,11.9926,1500,2794.34
19485,-3.5841,1.0235,10.2544,1512,2794.34
19490,0.6141,3.0406,9.8737,1549,2794.6
19495,2.1488,3.1328,10.7703,1507,2794.6
19500,-1.6723,-0.2239,11.9746,1503,2794.6
19505,-3.7792,0.1221,11.0588,1501,2794.6
19510,-0.4226,2.7222,9.6762,1559,2794.99
19515,1.8292,3.7278,10.392,1506,2794.99
19520,-2.0638,0.8643,11.7735,1501,2794.99
19525,-3.2226,-0.7314,11.7232,1507,2794.99
19530,-1.9166,2.2601,9.5577,1543,2795.12
19535,1.5155,3.6607,10.2137,1508,2795.12
19540,-0.2442,1.7131,11.3952,1511,2795.12
19545,-2.1356,-1.2845,11.9531,1499,2795.12
19550,-3.2836,1.3838,9.9886,1500,2795.12
19555,0.9445,3.1675,9.985,1529,2795.51
19560,1.9285,2.6923,10.9714,1501,2795.51
19565,-1.5981,-0.7638,11.9315,1508,2795.51
19570,-3.8379,0.5088,10.7224,1501,2795.51
19575,0.0946,2.9078,9.7755,1555,2795.64
19580,2.0303,3.6176,10.4806,1507,2795.64
19585,-2.0638,0.4573,11.9231,1497,2795.64
19590,-3.5482,-0.3017,11.485,1499,2795.64
19595,-1.1995,2.5151,9.5876,1563,2795.64
19600,1.7226,3.705,10.2137,1509,2795.64
19605,-1.239,1.3324,11.5556,1501,2795.64
19610,-2.6085,-1.1696,11.8944,1513,2795.64
19615,-2.7857,1.7274,9.7504,1571,2795.51
19620,1.1779,3.316,10.064,1507,2795.51
19625,1.1396,2.2482,11.1797,1510,2795.51
19630,-1.8328,-1.1097,12.044,1500,2795.51
19635,-3.7338,0.8811,10.3573,1507,2795.51
19640,0.5495,3.0107,9.815,1531,2795.77
19645,2.1811,3.3267,10.738,1509,2795.77
19650,-1.8076,-0.0287,11.9495,1503,2795.77
19655,-3.6619,0.0215,11.1522,1512,2795.77
19660,-0.5914,2.6983,9.5912,1563,2795.77
19665,1.8651,3.711,10.3825,1502,2795.77
19670,-1.8794,0.978,11.6921,1501,2795.77
19675,-3.061,-0.8954,11.7184,1499,2795.77
19680,-2.1632,2.1069,9.5816,1567,2795.12
19685,1.3886,3.5063,10.2041,1503,2795.12
19690,0.1329,1.8375,11.3928,1517,2795.12
19695,-2.1225,-1.2246,12.0392,1501,2795.12
19700,-3.3938,1.3479,10.0556,1518,2795.12
19705,0.8356,3.1544,10.0126,1544,2794.6
19710,2.0578,2.891,10.8529,1503,2794.6
19715,-1.5909,-0.5531,11.9363,1496,2794.6
19720,-3.7816,0.334,10.7883,1500,2794.6
19725,-0.0742,2.8371,9.7312,1549,2794.08
19730,2.0016,3.6332,10.4471,1509,2794.08
19735,-2.0183,0.6177,11.8034,1509,2794.08
19740,-3.4752,-0.5483,11.6083,1509,2794.08
19745,-1.4928,2.4612,9.59,1558,2794.21
19750,1.6652,3.7314,10.155,1501,2794.21
19755,-0.9038,1.4437,11.4838,1501,2794.21
19760,-2.4337,-1.2031,11.9411,1507,2794.21
19765,-2.964,1.6592,9.8569,1509,2794.21
19770,1.1109,3.2836,10.0461,1557,2794.21
19775,1.5526,2.4146,11.1546,1511,2794.21
19780,-1.6209,-1.0104,12.0476,1503,2794.21
19785,-3.8032,0.7015,10.495,1501,2794.21
19790,0.3639,2.9257,9.8162,1545,2794.21
19795,2.0973,3.4273,10.7176,1501,2794.21
19800,-1.9417,0.1437,11.9387,1502,2794.21
19805,-3.6715,-0.1006,11.3306,1520,2794.21
19810,-0.8224,2.6624,9.5828,1563,2794.34
19815,1.8076,3.7828,10.3214,1509,2794.34
19820,-1.7202,1.1337,11.6562,1502,2794.34
19825,-2.8515,-0.9541,11.7986,1509,2794.34
19830,-2.3954,1.9585,9.6343,1559,2793.3
19835,1.3611,3.4524,10.1849,1501,2793.3
19840,0.6213,1.9692,11.2827,1509,2793.3
19845,-1.9237,-1.2845,12.0009,1496,2793.3
19850,-3.5961,1.0846,10.1754,1515,2793.3
19855,0.7338,3.0478,9.9958,1547,2794.73
19860,2.065,3.0981,10.8218,1502,2794.73
19865,-1.6891,-0.3172,11.9626,1501,2794.73
19870,-3.8439,0.267,11.0373,1503,2794.73
19875,-0.2442,2.8443,9.663,1529,2794.21
19880,1.9992,3.6943,10.3729,1499,2794.21
19885,-1.9561,0.7446,11.7795,1507,2794.21
19890,-3.2178,-0.6871,11.5808,1507,2794.21
19895,-1.7693,2.2781,9.517,1567,2794.34
19900,1.5371,3.5374,10.2137,1509,2794.34
19905,-0.4118,1.6197,11.4575,1523,2794.34
19910,-2.2996,-1.2055,11.9866,1497,2794.34
19915,-3.2022,1.506,9.9671,1499,2794.34
19920,0.9601,3.1771,10.0293,1526,2794.21
19925,1.816,2.6875,11.0301,1499,2794.21
19930,-1.64,-0.741,11.989,1501,2794.21
19935,-3.7972,0.5626,10.6506,1508,2794.21
19940,0.1891,2.8706,9.7181,1555,2794.6
19945,2.1045,3.5147,10.5632,1507,2794.6
19950,-1.9944,0.3579,11.9088,1499,2794.6
19955,-3.6009,-0.3268,11.4215,1503,2794.6
19960,-1.1049,2.496,9.4942,1563,2794.6
19965,1.7047,3.7373,10.2807,1510,2794.6
19970,-1.4389,1.2629,11.576,1501,2794.6
19975,-2.7102,-1.1169,11.9291,1511,2794.6
19980,-2.6743,1.9046,9.6917,1567,2794.86
19985,1.3156,3.4225,10.0784,1503,2794.86
19990,1.093,2.1679,11.1917,1512,2794.86
19995,-1.7609,-1.1217,11.9866,1499,2794.86
20000,-3.6188,0.9301,10.2711,1507,2794.86
20005,0.5315,2.9772,9.8713,1545,2795.25
20010,2.1296,3.1879,10.7356,1509,2795.25
20015,-1.731,-0.1879,11.9339,1494,2795.25
20020,-3.8056,0.1293,11.1546,1512,2795.25
20025,-0.4717,2.7617,9.6798,1567,2795.25
20030,1.9082,3.7685,10.3609,1503,2795.25
20035,-1.9896,0.9409,11.7627,1497,2795.25
20040,-3.1388,-0.7733,11.7771,1500,2795.25
20045,-2.0662,2.1739,9.6079,1559,2795.25
20050,1.5263,3.5374,10.1766,1501,2795.25
20055,0.0084,1.7334,11.3856,1515,2795.25
20060,-2.1859,-1.3228,11.9782,1506,2795.25
20065,-3.3639,1.3084,10.0102,1517,2795.25
20070,0.9074,3.0969,9.9156,1545,2795.12
20075,1.9429,2.8383,10.9654,1499,2795.12
20080,-1.7059,-0.6416,12.0404,1494,2795.12
20085,-3.796,0.4848,10.799,1503,2795.12
20090,0.0467,2.9233,9.7348,1553,2794.73
20095,2.0518,3.6811,10.4854,1503,2794.73
20100,-2.0458,0.5399,11.819,1508,2794.73
20105,-3.4022,-0.4238,11.5029,1503,2794.73
20110,-1.3204,2.4529,9.5026,1563,2794.73
20115,1.6592,3.6416,10.2639,1511,2794.73
20120,-1.0977,1.3886,11.546,1501,2794.73
20125,-2.5929,-1.227,11.9016,1509,2794.73
20130,-2.9125,1.6987,9.8102,1508,2794.73
20135,1.1193,3.2908,10.1418,1501,2794.73
20140,1.3503,2.3631,11.2013,1509,2794.73
20145,-1.749,-0.996,12.0428,1502,2794.73
20150,-3.7577,0.8751,10.4746,1501,2794.73
20155,0.4453,2.9676,9.8809,1543,2795.25
20160,2.1596,3.3148,10.7188,1501,2795.25
20165,-1.8208,0.0551,11.9195,1495,2795.25
20170,-3.6703,-0.0994,11.2108,1512,2795.25
20175,-0.6823,2.6731,9.578,1565,2794.86
20180,1.8004,3.699,10.319,1508,2794.86
20185,-1.8172,1.0139,11.6933,1502,2794.86
20190,-3.043,-0.9708,11.8142,1511,2794.86
20195,-2.3152,2.1141,9.6295,1565,2794.6
20200,1.3803,3.547,10.161,1499,2794.6
20205,0.4298,1.895,11.3617,1510,2794.6
20210,-1.9728,-1.2163,11.9626,1500,2794.6
20215,-3.4884,1.2222,10.1287,1513,2794.6
20220,0.7877,3.0873,9.8988,1545,2794.73
20225,2.1045,2.9473,10.9176,1502,2794.73
20230,-1.5897,-0.4848,11.9854,1503,2794.73
20235,-3.8702,0.2825,10.9475,1503,2794.73
20240,-0.1724,2.8132,9.6917,1533,2794.86
20245,1.9644,3.7146,10.4555,1502,2794.86
20250,-2.1249,0.6955,11.8345,1507,2794.86
20255,-3.3483,-0.5303,11.5927,1507,2794.86
20260,-1.6221,2.4026,9.5241,1563,2794.73
20265,1.6305,3.723,10.1921,1507,2794.73
20270,-0.6632,1.5826,11.467,1509,2794.73
20275,-2.3762,-1.2809,11.9279,1499,2794.73
20280,-3.073,1.5419,9.8222,1503,2794.73
20285,1.0439,3.1927,10.0952,1529,2794.86
20290,1.634,2.5235,11.072,1501,2794.86
20295,-1.6987,-0.9445,11.9566,1501,2794.86
20300,-3.8152,0.6979,10.5704,1503,2794.86
20305,0.3196,2.9892,9.8366,1556,2794.86
20310,2.1069,3.5518,10.6674,1511,2794.86
20315,-1.9261,0.2574,11.9327,1498,2794.86
20320,-3.553,-0.17,11.3545,1499,2794.86
20325,-0.9098,2.5965,9.5385,1560,2794.99
20330,1.7849,3.7134,10.2256,1510,2794.99
20335,-1.5012,1.1863,11.6227,1501,2794.99
20340,-2.8024,-1.0894,11.8214,1511,2794.99
20345,-2.5414,1.9321,9.7181,1568,2795.38
20350,1.2605,3.3806,10.0952,1499,2795.38
20355,0.7889,2.0506,11.2504,1513,2795.38
20360,-1.9154,-1.1768,11.9602,1496,2795.38
20365,-3.6021,1.1241,10.2268,1509,2795.38
20370,0.6464,3.061,9.8892,1547,2795.38
20375,2.1189,3.1484,10.817,1509,2795.38
20380,-1.7178,-0.2454,11.9638,1499,2795.38
20385,-3.7625,0.1484,11.0169,1499,2795.38
20390,-0.3053,2.7461,9.6115,1543,2795.64
20395,1.9106,3.6966,10.3549,1501,2795.64
20400,-2.0039,0.7829,11.7783,1501,2795.64
20405,-3.2489,-0.7805,11.7232,1500,2795.64
20410,-1.8866,2.2924,9.5648,1565,2795.9
20415,1.5347,3.6176,10.1837,1501,2795.9
20420,-0.3256,1.6951,11.5029,1513,2795.9
20425,-2.314,-1.2234,11.9914,1505,2795.9
20430,-3.2489,1.47,9.9192,1513,2795.9
20435,1.0032,3.1951,9.9802,1525,2795.9
20440,1.9142,2.6659,11.0133,1500,2795.9
20445,-1.5862,-0.8176,12.0069,1498,2795.9
20450,-3.8235,0.5088,10.6231,1501,2795.9
20455,0.1736,2.8647,9.7384,1551,2796.03
20460,2.0363,3.5733,10.5836,1509,2796.03
20465,-2.0075,0.3795,11.9315,1497,2796.03
20470,-3.6284,-0.3172,11.4395,1506,2796.03
20475,-1.1971,2.5965,9.6127,1561,2796.03
20480,1.6939,3.7984,10.2843,1501,2796.03
20485,-1.3001,1.336,11.5808,1502,2796.03
20490,-2.6755,-1.1229,11.8824,1511,2796.03
20495,-2.7545,1.7873,9.7659,1533,2795.64
20500,1.245,3.2992,10.094,1509,2795.64
20505,1.1732,2.1596,11.224,1511,2795.64
20510,-1.7921,-1.1708,11.9842,1492,2795.64
20515,-3.717,1.0032,10.3286,1501,2795.64
20520,0.5507,2.9987,9.8629,1542,2795.77
20525,2.1033,3.2621,10.75,1507,2795.77
20530,-1.7968,-0.0646,12.0847,1497,2795.77
20535,-3.7254,0.0982,11.1845,1515,2795.77
20540,-0.5016,2.7366,9.5684,1565,2795.77
20545,1.9441,3.7685,10.3238,1503,2795.77
20550,-1.8794,0.9565,11.7843,1499,2795.77
20555,-3.1101,-0.8655,11.7041,1512,2795.77
20560,-2.0638,2.162,9.566,1562,2795.77
20565,1.4533,3.4907,10.1478,1499,2795.77
20570,0.0299,1.7705,11.4048,1513,2795.77
20575,-2.138,-1.3096,11.9698,1502,2795.77
20580,-3.3674,1.3431,10.0161,1514,2795.77
20585,0.8643,3.1735,10.0197,1547,2795.77
20590,1.9549,2.8264,11.0277,1501,2795.77
20595,-1.6424,-0.5626,12.0404,1496,2795.77
20600,-3.7876,0.4968,10.7619,1502,2795.77
20605,0.0563,2.8491,9.6762,1549,2795.77
20610,2.0794,3.5458,10.4351,1501,2795.77
20615,-1.9752,0.4932,11.8214,1509,2795.77
20620,-3.4812,-0.516,11.4491,1507,2795.77
20625,-1.3755,2.4565,9.5696,1561,2795.77
20630,1.6017,3.6835,10.2747,1511,2795.77
20635,-1.1061,1.4186,11.5772,1502,2795.77
20640,-2.6097,-1.1696,11.8932,1497,2795.77
20645,-2.9102,1.7933,9.7624,1507,2795.77
20650,1.2139,3.3172,10.0209,1529,2795.77
20655,1.4581,2.3176,11.1534,1507,2795.77
20660,-1.6771,-1.0391,12.0093,1507,2795.77
20665,-3.7086,0.7925,10.4579,1503,2795.77
20670,0.4345,2.9449,9.7779,1550,2796.03
20675,2.138,3.2968,10.671,1502,2796.03
20680,-1.7968,0.0227,12.0009,1497,2796.03
20685,-3.7924,-0.0778,11.2156,1503,2796.03
20690,-0.7374,2.7605,9.6175,1553,2795.38
20695,1.7729,3.8092,10.2807,1512,2795.38
20700,-1.8723,1.1013,11.7807,1501,2795.38
20705,-2.97,-0.9182,11.7232,1511,2795.38
20710,-2.2829,2.0758,9.675,1565,2795.25
20715,1.4006,3.5099,10.0963,1503,2795.25
20720,0.3915,1.8902,11.3294,1509,2795.25
20725,-1.9908,-1.3252,11.9231,1499,2795.25
20730,-3.486,1.1815,10.1143,1515,2795.25
20735,0.759,3.0634,9.8952,1548,2794.99
20740,1.98,2.9401,10.9343,1509,2794.99
20745,-1.6939,-0.4417,12.0093,1500,2794.99
20750,-3.8511,0.3879,10.8912,1502,2794.99
20755,-0.1161,2.9461,9.6965,1559,2794.86
20760,1.9453,3.7014,10.4639,1501,2794.86
20765,-2.0255,0.6788,11.8537,1501,2794.86
20770,-3.2813,-0.5818,11.5269,1507,2794.86
20775,-1.567,2.3523,9.5565,1568,2794.6
20780,1.5658,3.6069,10.2544,1511,2794.6
20785,-0.6488,1.5191,11.4994,1515,2794.6
20790,-2.4469,-1.2881,11.9219,1497,2794.6
20795,-3.1017,1.5622,9.8892,1503,2794.6
20800,1.0511,3.2142,10.0568,1527,2794.73
20805,1.6221,2.5319,11.078,1501,2794.73
20810,-1.6652,-0.8607,12.068,1501,2794.73
20815,-3.7589,0.7195,10.5596,1507,2794.73
20820,0.316,2.9568,9.8043,1554,2794.99
20825,2.1284,3.4453,10.5728,1502,2794.99
20830,-1.8842,0.2765,11.9519,1501,2794.99
20835,-3.6272,-0.237,11.3701,1503,2794.99
20840,-0.9517,2.6145,9.5589,1560,2794.99
20845,1.7334,3.6978,10.2903,1507,2794.99
20850,-1.5921,1.1552,11.6801,1503,2794.99
20855,-2.8754,-1.0606,11.7783,1512,2794.99
20860,-2.5438,1.9776,9.6989,1571,2794.99
20865,1.3312,3.4524,10.0844,1509,2794.99
20870,0.7937,2.077,11.224,1512,2794.99
20875,-1.8926,-1.1277,11.9985,1499,2794.99
20880,-3.5494,1.1037,10.2029,1497,2794.99
20885,0.65,3.0275,9.8952,1544,2794.99
20890,2.1368,3.0442,10.7787,1509,2794.99
20895,-1.6364,-0.3448,11.9902,1497,2794.99
20900,-3.7972,0.1089,11.0073,1513,2794.99
20905,-0.3687,2.7749,9.6558,1566,2794.6
20910,1.8783,3.7481,10.3944,1503,2794.6
20915,-2.0195,0.8715,11.819,1501,2794.6
20920,-3.2382,-0.6596,11.6203,1497,2794.6
20925,-1.8459,2.3092,9.6175,1572,2794.47
20930,1.5658,3.6081,10.167,1497,2794.47
20935,-0.2382,1.6568,11.3964,1513,2794.47
20940,-2.2242,-1.2629,11.904,1499,2794.47
20945,-3.2417,1.3934,9.9683,1515,2794.47
20950,0.978,3.14,10.0114,1560,2794.47
20955,1.7992,2.6683,10.9583,1501,2794.47
20960,-1.6269,-0.7673,12.056,1496,2794.47
20965,-3.7936,0.5339,10.7057,1501,2794.47
20970,0.182,2.9556,9.754,1551,2794.47
20975,2.053,3.6284,10.4722,1507,2794.47
20980,-1.9872,0.4836,11.8824,1510,2794.47
20985,-3.535,-0.3196,11.467,1503,2794.47
20990,-1.1983,2.4912,9.5756,1564,2794.73
20995,1.7346,3.6715,10.2244,1507,2794.73
21000,-1.2605,1.306,11.5796,1501,2794.73
21005,-2.6504,-1.1732,11.8848,1503,2794.73
21010,-2.7521,1.7597,9.7205,1509,2794.73
21015,1.1863,3.2872,10.0928,1531,2794.86
21020,1.0798,2.2362,11.2456,1509,2794.86
21025,-1.798,-1.069,12.056,1505,2794.86
21030,-3.6931,0.9948,10.3801,1502,2794.86
21035,0.5363,3.0502,9.8821,1531,2795.12
21040,2.1296,3.2932,10.7296,1503,2795.12
21045,-1.7358,-0.0455,11.9195,1497,2795.12
21050,-3.6835,0.0036,11.1043,1505,2795.12
21055,-0.589,2.7007,9.5529,1562,2795.12
21060,1.834,3.6978,10.398,1511,2795.12
21065,-1.9321,0.9397,11.7328,1503,2795.12
21070,-3.1089,-0.8823,11.6993,1509,2795.12
21075,-2.1476,2.1811,9.5924,1543,2795.64
21080,1.4437,3.5255,10.1885,1494,2795.64
21085,0.0838,1.8196,11.3677,1509,2795.64
21090,-2.1117,-1.2186,11.9938,1497,2795.64
21095,-3.3806,1.3252,10.0856,1514,2795.64
21100,0.8404,3.1053,9.9503,1545,2795.9
21105,2.0423,2.8383,10.8816,1503,2795.9
21110,-1.5993,-0.6117,11.9985,1500,2795.9
21115,-3.8247,0.3615,10.8002,1503,2795.9
21120,-0.0215,2.8491,9.6654,1527,2795.77
21125,1.9561,3.6093,10.4555,1503,2795.77
21130,-2.1033,0.5674,11.892,1511,2795.77
21135,-3.462,-0.4657,11.5664,1507,2795.77
21140,-1.4186,2.5043,9.584,1565,2795.9
21145,1.6568,3.7194,10.234,1507,2795.9
21150,-0.9373,1.4269,11.5484,1511,2795.9
21155,-2.4948,-1.148,11.8992,1499,2795.9
21160,-2.8766,1.6305,9.7779,1501,2795.9
21165,1.1851,3.2465,10.0952,1529,2795.9
21170,1.4305,2.332,11.1235,1503,2795.9
21175,-1.7035,-1.0546,11.9997,1501,2795.9
21180,-3.7409,0.7649,10.3908,1509,2795.9
21185,0.4106,2.9832,9.8426,1557,2795.9
21190,2.1165,3.3902,10.6662,1507,2795.9
21195,-1.8771,0.1425,11.9459,1497,2795.9
21200,-3.6643,-0.0024,11.3102,1499,2795.9
21205,-0.7757,2.721,9.6223,1563,2795.77
21210,1.8459,3.7673,10.3106,1508,2795.77
21215,-1.7274,1.0798,11.6669,1501,2795.77
21220,-2.9054,-0.996,11.7699,1515,2795.77
21225,-2.3164,2.0016,9.6522,1527,2795.77
21230,1.3958,3.4465,10.173,1503,2795.77
21235,0.4417,1.9261,11.3377,1511,2795.77
21240,-2.0351,-1.2163,12.0464,1498,2795.77
21245,-3.5015,1.2366,10.1454,1507,2795.77
21250,0.7709,3.1256,9.9659,1545,2796.03
21255,2.071,3.0083,10.8206,1512,2796.03
21260,-1.6436,-0.4094,12.0285,1499,2796.03
21265,-3.8247,0.316,10.9307,1497,2796.03
21270,-0.1317,2.812,9.6678,1566,2795.51
21275,1.998,3.6703,10.4818,1507,2795.51
21280,-1.974,0.6919,11.8154,1501,2795.51
21285,-3.3112,-0.6057,11.5796,1501,2795.51
21290,-1.6149,2.3535,9.5014,1565,2794.99
21295,1.5969,3.614,10.1897,1507,2794.99
21300,-0.6955,1.5455,11.4598,1511,2794.99
21305,-2.4134,-1.1971,11.9782,1507,2794.99
21310,-3.0777,1.6197,9.8845,1513,2794.99
21315,1.087,3.2166,10.0221,1523,2795.12
21320,1.6735,2.5379,11.0385,1502,2795.12
21325,-1.6568,-0.844,11.971,1497,2795.12
21330,-3.7517,0.674,10.5393,1501,2795.12
21335,0.2682,2.9113,9.7815,1549,2795.25
21340,2.0889,3.4512,10.6147,1509,2795.25
21345,-1.9537,0.1891,11.8908,1507,2795.25
21350,-3.626,-0.2502,11.3318,1508,2795.25
21355,-0.9756,2.6647,9.596,1563,2795.38
21360,1.7597,3.8199,10.3094,1501,2795.38
21365,-1.5957,1.1971,11.6298,1501,2795.38
21370,-2.8132,-0.9984,11.8513,1513,2795.38
21375,-2.557,1.962,9.6798,1547,2795.51
21380,1.324,3.4297,10.143,1517,2795.51
21385,0.8655,2.0183,11.2551,1509,2795.51
21390,-1.8567,-1.221,12.0404,1501,2795.51
21395,-3.62,1.0606,10.2436,1501,2795.51
21400,0.6752,3.0071,9.8797,1531,2796.29
21405,2.1308,3.1017,10.7655,1511,2796.29
21410,-1.7418,-0.2717,11.9985,1497,2796.29
21415,-3.7912,0.267,11.0397,1511,2796.29
21420,-0.3364,2.8036,9.675,1567,2796.81
21425,1.9644,3.7278,10.4112,1503,2796.81
21430,-2.0099,0.7985,11.7699,1501,2796.81
21435,-3.1927,-0.68,11.637,1502,2796.81
21440,-1.8459,2.2589,9.5217,1565,2796.81
21445,1.5598,3.5733,10.1622,1498,2796.81
21450,-0.3388,1.6185,11.4491,1513,2796.81
21455,-2.3128,-1.2785,12.0009,1498,2796.81
21460,-3.2573,1.482,9.9072,1513,2796.81
21465,0.9553,3.1783,10.0173,1545,2796.68
21470,1.7573,2.6707,11.0217,1499,2796.68
21475,-1.658,-0.7901,11.9914,1501,2796.68
21480,-3.7601,0.6189,10.6578,1503,2796.68
21485,0.2203,2.9329,9.7432,1544,2796.81
21490,2.138,3.559,10.5536,1507,2796.81
21495,-1.9465,0.3352,11.9195,1507,2796.81
21500,-3.5207,-0.3352,11.388,1503,2796.81
21505,-1.1396,2.484,9.4894,1565,2796.81
21510,1.7322,3.7445,10.2604,1511,2796.81
21515,-1.403,1.2306,11.5999,1509,2796.81
21520,-2.7557,-1.069,11.8537,1507,2796.81
21525,-2.6791,1.8794,9.7229,1503,2796.81
21530,1.2522,3.4058,10.1083,1543,2796.42
21535,0.9924,2.1991,11.2324,1507,2796.42
21540,-1.8423,-1.0834,12.0189,1503,2796.42
21545,-3.6236,0.9661,10.2879,1502,2796.42
21550,0.5962,2.988,9.8833,1556,2796.55
21555,2.1679,3.201,10.7093,1501,2796.55
21560,-1.7286,-0.1891,11.9842,1496,2796.55
21565,-3.7745,0.0742,11.1486,1507,2796.55
21570,-0.5112,2.7198,9.645,1563,2796.03
21575,1.8459,3.784,10.3705,1510,2796.03
21580,-1.986,0.8954,11.7328,1501,2796.03
21585,-3.1352,-0.7649,11.6957,1513,2796.03
21590,-2.0111,2.2386,9.5589,1544,2795.25
21595,1.555,3.6356,10.2197,1501,2795.25
21600,-0.0826,1.7394,11.3952,1507,2795.25
21605,-2.1416,-1.2737,11.9985,1499,2795.25
21610,-3.2741,1.3515,9.9527,1515,2795.25
21615,0.8894,3.0921,9.9192,1543,2794.99
21620,1.8579,2.7354,10.9451,1495,2794.99
21625,-1.6544,-0.6812,11.9722,1503,2794.99
21630,-3.7792,0.4549,10.738,1501,2794.99
21635,0.0359,2.9149,9.7312,1561,2794.34
21640,2.0075,3.6392,10.5213,1501,2794.34
21645,-2.0458,0.5255,11.813,1509,2794.34
21650,-3.4225,-0.2957,11.4946,1503,2794.34
21655,-1.3252,2.4792,9.5253,1582,2793.95
21660,1.7154,3.705,10.234,1507,2793.95
21665,-1.1133,1.3623,11.5101,1511,2793.95
21670,-2.5343,-1.1684,11.9471,1499,2793.95
21675,-2.879,1.7382,9.8258,1506,2793.95
21680,1.0989,3.3052,10.0664,1528,2793.43
21685,1.2845,2.3355,11.1749,1499,2793.43
21690,-1.725,-1.0523,12.0069,1499,2793.43
21695,-3.7553,0.8499,10.4184,1501,2793.43
21700,0.4633,2.9856,9.8186,1555,2793.56
21705,2.144,3.3662,10.6793,1507,2793.56
21710,-1.7861,0.0599,11.8968,1501,2793.56
21715,-3.6308,-0.0419,11.2204,1503,2793.56
21720,-0.7111,2.6767,9.6139,1561,2793.04
21725,1.8064,3.7014,10.3226,1503,2793.04
21730,-1.7873,1.0499,11.661,1503,2793.04
21735,-2.9281,-0.9266,11.7639,1512,2793.04
21740,-2.2901,2.0171,9.5864,1573,2793.3
21745,1.3408,3.4608,10.1801,1509,2793.3
21750,0.4214,1.9489,11.376,1511,2793.3
21755,-2.0207,-1.1983,11.9734,1495,2793.3
21760,-3.4716,1.2091,10.1287,1500,2793.3
21765,0.7745,3.0526,9.918,1541,2793.56
21770,2.1021,3.0227,10.9068,1511,2793.56
21775,-1.6221,-0.4429,11.9806,1499,2793.56
21780,-3.7888,0.2837,10.9223,1513,2793.56
21785,-0.2071,2.7713,9.6343,1567,2794.08
21790,1.9237,3.6811,10.5022,1503,2794.08
21795,-2.053,0.6776,11.813,1501,2794.08
21800,-3.3184,-0.5758,11.6119,1501,2794.08
21805,-1.6843,2.3667,9.5481,1566,2794.21
21810,1.5682,3.6667,10.2268,1497,2794.21
21815,1.1145,2.1811,11.1965,1512,2794.21
21820,-1.7585,-1.1133,12.0153,1507,2794.21
21825,-3.62,0.9361,10.3525,1512,2794.21
21830,1.0331,3.201,9.9958,1549,2793.82
21835,2.0794,3.2406,10.7583,1500,2793.82
21840,-1.7538,-0.1185,11.88,1501,2793.82
21845,-3.7517,0.0994,11.1019,1501,2793.82
21850,-0.583,2.7653,9.596,1553,2793.82
21855,1.8771,3.7804,10.3729,1507,2793.82
21860,-1.9489,0.9936,11.728,1503,2793.82
21865,-3.0394,-0.7973,11.7759,1501,2793.82
21870,-2.1177,2.1787,9.6115,1563,2793.69
21875,1.4868,3.5063,10.1143,1509,2793.69
21880,0.1401,1.8292,11.3617,1507,2793.69
21885,-2.1189,-1.2869,11.9554,1491,2793.69
21890,-3.4177,1.3001,10.1119,1501,2793.69
21895,0.8428,3.1005,9.9802,1532,2793.69
21900,1.9585,2.8575,10.999,1509,2793.69
21905,-1.6664,-0.5914,11.9914,1509,2793.69
21910,-3.8032,0.4717,10.8326,1501,2793.69
21915,-0.0156,2.8683,9.6762,1549,2794.21
21920,2.0446,3.632,10.5165,1501,2794.21
21925,-2.0231,0.6069,11.8154,1497,2794.21
21930,-3.3722,-0.4489,11.582,1503,2794.21
21935,-1.4617,2.4433,9.5277,1564,2794.21
21940,1.6053,3.62,10.234,1511,2794.21
21945,-0.9182,1.4186,11.5197,1501,2794.21
21950,-2.4888,-1.2498,11.8752,1515,2794.21
21955,-2.9999,1.6328,9.7971,1572,2793.69
21960,1.0965,3.2537,10.0497,1499,2793.69
21965,1.4305,2.4612,11.1642,1501,2793.69
21970,-1.6999,-0.911,11.9973,1497,2793.69
21975,-3.7146,0.7865,10.4603,1511,2793.69
21980,0.3819,2.9796,9.7887,1533,2794.21
21985,2.1177,3.4333,10.6925,1513,2794.21
21990,-1.8328,0.1413,11.9339,1501,2794.21
21995,-3.6488,-0.1808,11.2551,1502,2794.21
22000,-0.8835,2.6288,9.6007,1565,2793.82
22005,1.7741,3.7218,10.3166,1503,2793.82
22010,-1.7131,1.087,11.6406,1501,2793.82
22015,-2.8994,-0.9936,11.7855,1503,2793.82
22020,-2.3846,2.0387,9.6822,1531,2794.08
22025,1.3575,3.4177,10.1466,1503,2794.08
22030,0.6285,1.974,11.303,1511,2794.08
22035,-1.8842,-1.2043,11.9602,1505,2794.08
22040,-3.5446,1.1372,10.2005,1506,2794.08
22045,0.6907,3.0454,9.8653,1529,2793.95
22050,2.1859,3.0239,10.8517,1501,2793.95
22055,-1.6592,-0.3891,11.9303,1501,2793.95
22060,-3.7972,0.2107,11.0109,1507,2793.95
22065,-0.2945,2.739,9.6881,1546,2793.95
22070,1.8986,3.7002,10.4603,1503,2793.95
22075,-2.0794,0.7781,11.8046,1500,2793.95
22080,-3.2992,-0.6273,11.6203,1507,2793.95
22085,-1.8136,2.3631,9.5349,1565,2793.56
22090,1.561,3.6332,10.2077,1501,2793.56
22095,-0.425,1.6388,11.4766,1502,2793.56
22100,-2.2841,-1.2594,11.9147,1507,2793.56
22105,-3.1807,1.482,9.9431,1545,2793.43
22110,0.9828,3.0993,10.0305,1511,2793.43
22115,1.7502,2.6228,11.0421,1507,2793.43
22120,-1.6149,-0.826,11.9782,1500,2793.43
22125,-3.8427,0.5866,10.6554,1499,2793.43
22130,0.2047,2.9473,9.7564,1555,2793.3
22135,2.0518,3.5769,10.5429,1509,2793.3
22140,-1.9956,0.3771,11.9124,1499,2793.3
22145,-3.4788,-0.2514,11.3689,1511,2793.3
22150,-1.1073,2.5965,9.5493,1567,2793.17
22155,1.737,3.6883,10.2484,1509,2793.17
22160,-1.3228,1.3108,11.5903,1500,2793.17
22165,-2.6815,-1.1157,11.8549,1503,2793.17
22170,-2.7509,1.8148,9.7743,1547,2793.3
22175,1.1779,3.31,10.0748,1500,2793.3
22180,1.0654,2.247,11.2659,1511,2793.3
22185,-1.8411,-1.0786,11.9961,1499,2793.3
22190,-3.6835,0.9864,10.3753,1513,2793.3
22195,0.5339,3.0167,9.8485,1548,2793.69
22200,2.1488,3.2394,10.7571,1506,2793.69
22205,-1.7933,-0.0862,11.9698,1503,2793.69
22210,-3.6871,0.0263,11.1785,1502,2793.69
22215,-0.5662,2.733,9.5648,1531,2793.69
22220,1.8399,3.6847,10.3298,1501,2793.69
22225,-1.919,0.9206,11.7412,1507,2793.69
22230,-3.0682,-0.8763,11.7687,1505,2793.69
22235,-2.1584,2.1775,9.6295,1565,2793.3
22240,1.4162,3.5051,10.1694,1508,2793.3
22245,0.1113,1.8292,11.3808,1511,2793.3
22250,-2.0614,-1.233,11.9387,1497,2793.3
22255,-3.4022,1.3408,10.0317,1500,2793.3
22260,0.8787,3.1292,9.9395,1529,2792.91
22265,2.065,2.8671,10.9547,1507,2792.91
22270,-1.5754,-0.5866,11.9938,1503,2792.91
22275,-3.8511,0.3436,10.8158,1509,2792.91
22280,-0.0946,2.8575,9.736,1550,2793.43
22285,1.9513,3.6284,10.4926,1509,2793.43
22290,-2.0411,0.5842,11.9004,1501,2793.43
22295,-3.4429,-0.4968,11.5365,1499,2793.43
22300,-1.5479,2.4804,9.6043,1565,2793.82
22305,1.6125,3.6871,10.1562,1512,2793.82
22310,-0.911,1.4712,11.4958,1499,2793.82
22315,-2.4409,-1.227,11.9135,1515,2793.82
22320,-3.0311,1.6328,9.8713,1549,2793.82
22325,1.1037,3.207,10.0305,1503,2793.82
22330,1.5455,2.4313,11.169,1512,2793.82
22335,-1.6855,-1.0163,12.0285,1499,2793.82
22340,-3.7373,0.7578,10.4806,1508,2793.82
22345,0.3448,2.9832,9.8078,1555,2793.95
22350,2.0865,3.4477,10.6279,1511,2793.95
22355,-1.8507,0.1879,11.9387,1501,2793.95
22360,-3.6248,-0.091,11.2719,1511,2793.95
22365,-0.8296,2.6923,9.5708,1571,2793.95
22370,1.8268,3.7469,10.2723,1497,2793.95
22375,-1.6592,1.1552,11.6622,1498,2793.95
22380,-2.8599,-1.0044,11.7687,1500,2793.95
22385,-2.4253,1.974,9.6929,1533,2793.56
22390,1.3348,3.3579,10.1359,1502,2793.56
22395,0.6273,1.9872,11.3318,1515,2793.56
22400,-1.9549,-1.2366,12.0201,1503,2793.56
22405,-3.5662,1.142,10.222,1515,2793.56
22410,0.6728,3.0873,9.9431,1549,2793.69
22415,2.065,3.1268,10.8517,1501,2793.69
22420,-1.6795,-0.2717,11.9914,1496,2793.69
22425,-3.7601,0.2215,10.9642,1507,2793.69
22430,-0.2765,2.8084,9.6379,1553,2794.08
22435,1.9166,3.6559,10.41,1507,2794.08
22440,-2.0027,0.7757,11.8058,1508,2794.08
22445,-3.2358,-0.7207,11.5999,1509,2794.08
22450,-1.8124,2.2661,9.5708,1547,2794.86
22455,1.4712,3.6188,10.1801,1507,2794.86
22460,-0.4118,1.6532,11.5089,1503,2794.86
22465,-2.3188,-1.1935,11.9806,1508,2794.86
22470,-3.2238,1.5155,9.9683,1507,2795.25
22475,0.9984,3.1771,10.0341,1557,2795.25
22480,1.8519,2.6217,11.0552,1507,2795.25
22485,-1.585,-0.7566,11.9878,1502,2795.25
22490,-3.7649,0.595,10.6458,1499,2795.25
22495,0.1604,2.8695,9.7456,1543,2795.25
22500,2.0423,3.462,10.556,1505,2795.25
22505,-1.9609,0.3591,11.9459,1497,2795.25
22510,-3.614,-0.3268,11.4024,1497,2795.25
22515,-1.1384,2.5486,9.584,1564,2795.25
22520,1.6831,3.7661,10.2496,1513,2795.25
22525,-1.4425,1.3204,11.6083,1503,2795.25
22530,-2.7258,-1.0822,11.892,1507,2795.25
22535,-2.6635,1.8627,9.76,1573,2795.12
22540,1.2522,3.3914,10.082,1499,2795.12
22545,1.0642,2.1524,11.2815,1503,2795.12
22550,-1.8016,-1.1947,11.989,1501,2795.12
22555,-3.6524,0.9122,10.2735,1513,2795.12
22560,0.5483,2.9772,9.8282,1545,2795.38
22565,2.0734,3.207,10.738,1501,2795.38
22570,-1.7813,-0.1053,12.0237,1503,2795.38
22575,-3.7421,0.1161,11.151,1499,2795.38
22580,-0.4741,2.8036,9.6307,1544,2795.77
22585,1.8902,3.7697,10.313,1509,2795.77
22590,-1.9597,0.9828,11.7041,1508,2795.77
22595,-3.0921,-0.7757,11.6729,1507,2795.77
22600,-2.0315,2.1883,9.6498,1565,2795.9
22605,1.4521,3.486,10.1406,1502,2795.9
22610,0.0335,1.7035,11.3449,1507,2795.9
22615,-2.1584,-1.3168,11.9961,1497,2795.9
22620,-3.4069,1.3491,9.9922,1501,2795.9
22625,0.8607,3.1077,9.9934,1533,2795.38
22630,1.9166,2.8168,11.0073,1503,2795.38
22635,-1.6281,-0.6093,12.0249,1507,2795.38
22640,-3.814,0.51,10.8026,1515,2795.38
22645,0.0611,2.9257,9.7193,1557,2795.64
22650,2.0458,3.6296,10.477,1507,2795.64
22655,-2.0171,0.5207,11.8621,1501,2795.64
22660,-3.4105,-0.4681,11.5209,1500,2795.64
22665,-1.3635,2.4517,9.5301,1563,2795.38
22670,1.6424,3.6619,10.2532,1511,2795.38
22675,-1.1456,1.3659,11.552,1507,2795.38
22680,-2.6013,-1.1935,11.9171,1515,2795.38
22685,-2.8994,1.7633,9.821,1565,2795.51
22690,1.1732,3.3531,10.1071,1515,2795.51
22695,1.3276,2.3858,11.1941,1511,2795.51
22700,-1.6747,-0.9912,12.0225,1497,2795.51
22705,-3.699,0.8308,10.4004,1507,2795.51
22710,0.4717,2.9772,9.8497,1545,2795.51
22715,2.1488,3.2777,10.6255,1506,2795.51
22720,-1.7549,-0.018,12.0057,1500,2795.51
22725,-3.6966,-0.0898,11.2408,1506,2795.51
22730,-0.7338,2.7007,9.5828,1565,2795.25
22735,1.7921,3.7721,10.3382,1507,2795.25
22740,-1.9213,1.0523,11.7064,1503,2795.25
22745,-3.0311,-0.899,11.7663,1497,2795.25
22750,-2.2577,2.1057,9.6546,1541,2795.77
22755,1.4413,3.5159,10.1191,1507,2795.77
22760,0.3986,1.8639,11.3078,1515,2795.77
22765,-1.9848,-1.2282,11.9782,1507,2795.77
22770,-3.4369,1.1732,10.1083,1528,2795.77
22775,0.7518,3.0622,9.8881,1529,2795.25
22780,2.0135,2.8898,10.8565,1501,2795.25
22785,-1.6221,-0.48,11.9758,1499,2795.25
22790,-3.8834,0.3819,10.8912,1507,2795.25
22795,-0.158,2.8946,9.6331,1546,2795.51
22800,1.9477,3.6931,10.4794,1509,2795.51
22805,-2.1213,0.6907,11.8465,1499,2795.51
22810,-3.3351,-0.5088,11.57,1507,2795.51
22815,-1.5239,2.4002,9.5349,1561,2795.51
22820,1.6688,3.6619,10.1885,1505,2795.51
22825,-0.7386,1.488,11.5281,1503,2795.51
22830,-2.4062,-1.2977,11.9614,1499,2795.51
22835,-3.0347,1.5335,9.8258,1547,2795.9
22840,1.0822,3.1903,10.0305,1511,2795.9
22845,1.4808,2.4708,11.0337,1507,2795.9
22850,-1.737,-0.893,12.0955,1499,2795.9
22855,-3.8068,0.7985,10.5237,1501,2795.9
22860,0.3065,2.9928,9.8342,1532,2796.81
22865,2.1344,3.4692,10.6291,1507,2796.81
22870,-1.8926,0.2155,11.9662,1499,2796.81
22875,-3.6081,-0.1808,11.2946,1515,2796.81
22880,-0.9014,2.5881,9.5325,1567,2796.81
22885,1.7873,3.7362,10.2328,1501,2796.81
22890,-1.6017,1.0977,11.6358,1500,2796.81
22895,-2.9329,-1.0259,11.8597,1502,2796.81
22900,-2.4337,2.0123,9.6977,1560,2796.68
22905,1.3467,3.4548,10.1382,1499,2796.68
22910,0.6297,2.0004,11.2934,1513,2796.68
22915,-1.9489,-1.1456,12.0177,1503,2796.68
22920,-3.5781,1.1456,10.167,1515,2796.68
22925,0.7195,3.0801,9.8964,1548,2796.55
22930,2.1572,3.0335,10.8673,1501,2796.55
22935,-1.6125,-0.3184,11.9997,1497,2796.55
22940,-3.8008,0.2526,10.9726,1500,2796.55
22945,-0.2634,2.7821,9.5996,1556,2796.68
22950,1.9692,3.6895,10.4639,1507,2796.68
22955,-2.0063,0.7219,11.795,1511,2796.68
22960,-3.3471,-0.6464,11.643,1507,2796.68
22965,-1.749,2.3152,9.5589,1565,2796.94
22970,1.5957,3.7122,10.1861,1510,2796.94
22975,-0.5423,1.64,11.4802,1506,2796.94
22980,-2.332,-1.221,11.995,1507,2796.94
22985,-3.1627,1.5347,9.8653,1508,2796.94
22990,1.0151,3.1651,10.0006,1531,2796.94
22995,1.737,2.5187,11.0864,1503,2796.94
23000,-1.6089,-0.9206,12.0524,1507,2796.94
23005,-3.8176,0.6045,10.5919,1501,2796.94
23010,0.255,2.9532,9.845,1545,2797.07
23015,2.0399,3.5291,10.5872,1507,2797.07
23020,-1.9848,0.3089,11.8812,1497,2797.07
23025,-3.6105,-0.152,11.327,1509,2797.07
23030,-1.0151,2.6276,9.59,1565,2796.81
23035,1.8399,3.7469,10.3106,1513,2796.81
23040,-1.5431,1.1851,11.6227,1503,2796.81
23045,-2.727,-1.1109,11.8824,1513,2796.81
23050,-2.5774,1.8555,9.7001,1568,2796.55
23055,1.2761,3.3507,10.094,1499,2796.55
23060,0.8033,2.0782,11.2025,1508,2796.55
23065,-1.8866,-1.2366,12.0261,1500,2796.55
23070,-3.6404,1.0487,10.2364,1513,2796.55
23075,0.6656,3.0658,9.8976,1545,2796.29
23080,2.1165,3.1987,10.8182,1501,2796.29
23085,-1.7322,-0.2526,11.9973,1509,2796.29
23090,-3.7529,0.1903,11.0397,1503,2796.29
23095,-0.3735,2.7892,9.6007,1542,2796.29
23100,1.9776,3.7541,10.3609,1503,2796.29
23105,-1.968,0.8212,11.7316,1509,2796.29
23110,-3.1975,-0.7506,11.6753,1507,2796.29
23115,-1.919,2.2386,9.5708,1567,2796.81
23120,1.4664,3.5829,10.2065,1510,2796.81
23125,-0.3484,1.6328,11.461,1509,2796.81
23130,-2.3008,-1.2163,12.0237,1499,2796.81
23135,-3.2489,1.4904,9.9264,1501,2796.81
23140,0.9744,3.2082,10.0736,1533,2796.42
23145,1.8914,2.6671,11.0612,1503,2796.42
23150,-1.5838,-0.7302,12.0811,1508,2796.42
23155,-3.7433,0.5387,10.6207,1505,2796.42
23160,0.1305,2.8778,9.7061,1559,2796.55
23165,2.047,3.5374,10.5153,1503,2796.55
23170,-1.9333,0.3292,11.8645,1496,2796.55
23175,-3.5937,-0.3508,11.4311,1507,2796.55
23180,-1.2067,2.557,9.6019,1563,2796.55
23185,1.7059,3.7757,10.3465,1511,2796.55
23190,-1.3791,1.3348,11.5796,1501,2796.55
23195,-2.6851,-1.0642,11.9327,1515,2796.55
23200,-2.6767,1.8435,9.7396,1547,2796.68
23205,1.2402,3.3818,10.0808,1501,2796.68
23210,1.1875,2.1967,11.1869,1509,2796.68
23215,-1.7597,-1.1157,12.0165,1497,2796.68
23220,-3.6667,0.9589,10.2831,1513,2796.68
23225,0.5435,2.9868,9.8881,1528,2796.68
23230,2.0842,3.2561,10.7703,1512,2796.68
23235,-1.7633,-0.1413,11.9602,1499,2796.68
23240,-3.8104,0.158,11.1055,1506,2796.68
23245,-0.4764,2.7414,9.6726,1567,2796.42
23250,1.9441,3.7948,10.3441,1507,2796.42
23255,-1.9393,0.9529,11.6909,1509,2796.42
23260,-3.0969,-0.7638,11.7699,1506,2796.42
23265,-1.9992,2.1727,9.5241,1533,2796.42
23270,1.4904,3.5039,10.1634,1506,2796.42
23275,-0.0168,1.7083,11.3844,1512,2796.42
23280,-2.1751,-1.336,11.9794,1505,2796.42
23285,-3.401,1.2989,9.93,1505,2796.42
23290,0.9026,3.0993,10.0054,1526,2796.29
23295,1.8483,2.7964,11.0169,1503,2796.29
23300,-1.664,-0.6105,12.0321,1500,2796.29
23305,-3.8188,0.5531,10.7847,1503,2796.29
23310,0.0587,2.8742,9.6726,1555,2796.03
23315,2.1045,3.644,10.4878,1512,2796.03
23320,-1.9728,0.4944,11.8537,1499,2796.03
23325,-3.4249,-0.4046,11.4323,1501,2796.03
23330,-1.3587,2.4217,9.5589,1567,2796.29
23335,1.6628,3.6691,10.2855,1507,2796.29
23340,-1.1169,1.3443,11.5472,1503,2796.29
23345,-2.6456,-1.1708,11.9279,1512,2796.29
23350,-2.8934,1.7322,9.8222,1547,2795.64
23355,1.1648,3.3208,10.1311,1507,2795.64
23360,1.2749,2.3104,11.1749,1511,2795.64
23365,-1.7382,-1.0175,12.0644,1499,2795.64
23370,-3.7122,0.8966,10.4016,1501,2795.64
23375,0.4932,2.9628,9.7659,1544,2795.9
23380,2.1907,3.322,10.6458,1511,2795.9
23385,-1.81,-0.0108,11.9399,1499,2795.9
23390,-3.6978,-0.0934,11.2204,1515,2795.9
23395,-0.6812,2.648,9.6043,1567,2795.12
23400,1.8148,3.7625,10.3585,1507,2795.12
23405,-1.9034,1.0104,11.7076,1499,2795.12
23410,-3.0143,-0.8823,11.7723,1503,2795.12
23415,-2.235,2.1213,9.5876,1573,2794.99
23420,1.415,3.535,10.1634,1501,2794.99
23425,0.3579,1.8806,11.3126,1515,2794.99
23430,-2.0111,-1.2438,12.0608,1509,2794.99
23435,-3.4393,1.2186,10.058,1517,2794.99
23440,0.7853,3.0119,9.9766,1545,2794.86
23445,2.0051,2.8898,10.8996,1501,2794.86
23450,-1.6556,-0.5219,11.9818,1496,2794.86
23455,-3.8595,0.3735,10.8314,1499,2794.86
23460,-0.1137,2.8359,9.6833,1547,2794.73
23465,1.9656,3.7038,10.4842,1509,2794.73
23470,-2.0782,0.6847,11.8693,1509,2794.73
23475,-3.3651,-0.4992,11.5628,1507,2794.73
23480,-1.5526,2.4038,9.5732,1567,2794.6
23485,1.6771,3.6464,10.1897,1509,2794.6
23490,-0.7482,1.4545,11.473,1508,2794.6
23495,-2.3834,-1.2905,11.898,1507,2794.6
23500,-3.0406,1.5754,9.8629,1507,2794.6
23505,1.0594,3.2214,10.0868,1541,2794.47
23510,1.5347,2.4756,11.1318,1509,2794.47
23515,-1.6831,-0.9589,12.044,1509,2794.47
23520,-3.7721,0.7542,10.5943,1503,2794.47
23525,0.316,2.9521,9.8019,1531,2795.12
23530,2.1679,3.4465,10.6087,1503,2795.12
23535,-1.8495,0.2227,11.9363,1497,2795.12
23540,-3.5733,-0.1269,11.3617,1509,2795.12
23545,-0.8799,2.648,9.5469,1565,2795.51
23550,1.8268,3.7278,10.2747,1514,2795.51
23555,-1.5981,1.1265,11.6119,1499,2795.51
23560,-2.8766,-1.0367,11.7795,1509,2795.51
23565,-2.5043,1.9249,9.651,1533,2795.77
23570,1.3001,3.4058,10.149,1499,2795.77
23575,0.6644,2.0494,11.2791,1507,2795.77
23580,-1.98,-1.1564,12.0524,1499,2795.77
23585,-3.5961,1.1492,10.1945,1513,2795.77
23590,0.7027,3.0502,9.8533,1545,2796.03
23595,2.1572,3.0765,10.8038,1507,2796.03
23600,-1.652,-0.3496,12.0285,1503,2796.03
23605,-3.8068,0.1927,10.9391,1502,2796.03
23610,-0.31,2.7521,9.6019,1531,2795.77
23615,1.9094,3.7242,10.4555,1499,2795.77
23620,-2.0554,0.741,11.819,1507,2795.77
23625,-3.2801,-0.656,11.6825,1507,2795.77
23630,-1.804,2.3272,9.5924,1565,2796.29
23635,1.5443,3.6224,10.1382,1507,2796.29
23640,-0.4477,1.6161,11.4335,1507,2796.29
23645,-2.2781,-1.2198,11.9483,1495,2796.29
23650,-3.2034,1.5323,9.9204,1507,2796.29
23655,1.0044,3.2094,10.0102,1529,2796.03
23660,1.7885,2.6085,11.0552,1500,2796.03
23665,-1.6305,-0.8236,11.9722,1507,2796.03
23670,-3.8618,0.5974,10.6315,1509,2796.03
23675,0.2143,2.885,9.73,1557,2796.03
23680,2.0482,3.5566,10.6015,1505,2796.03
23685,-2.0183,0.3268,11.8681,1501,2796.03
23690,-3.5961,-0.2239,11.4096,1501,2796.03
23695,-1.1133,2.5762,9.5816,1562,2796.29
23700,1.8208,3.7721,10.2244,1507,2796.29
23705,-1.4222,1.3072,11.5676,1499,2796.29
23710,-2.7473,-1.063,11.8752,1515,2796.29
23715,-2.6755,1.8387,9.7121,1566,2797.07
23720,1.2653,3.3734,10.0832,1500,2797.07
23725,0.9577,2.138,11.2815,1511,2797.07
23730,-1.8639,-1.1863,12.062,1497,2797.07
23735,-3.6943,0.972,10.2364,1510,2797.07
23740,0.5938,3.0047,9.8821,1533,2797.59
23745,2.1237,3.1831,10.7871,1511,2797.59
23750,-1.7394,-0.1915,12.0033,1501,2797.59
23755,-3.7445,0.1999,11.078,1503,2797.59
23760,-0.3735,2.8108,9.6031,1567,2796.29
23765,1.9632,3.6907,10.3693,1507,2796.29
23770,-1.9477,0.8547,11.734,1506,2796.29
23775,-3.1244,-0.7853,11.6095,1503,2796.29
23780,-1.9812,2.1979,9.5193,1545,2795.77
23785,1.4724,3.4979,10.167,1507,2795.77
23790,-0.1664,1.7023,11.467,1516,2795.77
23795,-2.2482,-1.2773,11.9554,1503,2795.77
23800,-3.322,1.4509,10.0137,1511,2795.77
23805,0.9481,3.1388,9.9874,1531,2795.77
23810,1.907,2.7438,11.0145,1499,2795.77
23815,-1.6448,-0.68,11.9938,1501,2795.77
23820,-3.79,0.5447,10.7631,1497,2795.77
23825,0.1329,2.9054,9.748,1555,2795.25
23830,2.0578,3.5674,10.5812,1509,2795.25
23835,-1.9944,0.431,11.8788,1503,2795.25
23840,-3.5027,-0.4166,11.4754,1509,2795.25
23845,-1.2893,2.5319,9.5852,1565,2795.38
23850,1.6568,3.7278,10.24,1501,2795.38
23855,-1.2282,1.3838,11.5688,1506,2795.38
23860,-2.6288,-1.1229,11.9112,1511,2795.38
23865,-2.8706,1.8459,9.8031,1547,2794.99
23870,1.2558,3.3471,10.0952,1511,2794.99
23875,1.2989,2.2793,11.1965,1509,2794.99
23880,-1.7202,-1.0702,12.0117,1499,2794.99
23885,-3.6787,0.8511,10.3322,1499,2794.99
23890,0.5112,2.9628,9.8833,1543,2795.9
23895,2.1177,3.2513,10.665,1509,2795.9
23900,-1.8076,-0.0599,11.9626,1498,2795.9
23905,-3.7876,-0.0132,11.1941,1513,2795.9
23910,-0.6093,2.6971,9.6917,1568,2795.38
23915,1.8495,3.8128,10.3441,1503,2795.38
23920,-1.9154,1.0116,11.7148,1501,2795.38
23925,-3.0311,-0.8164,11.71,1501,2795.38
23930,-2.2158,2.1201,9.6175,1567,2795.25
23935,1.4748,3.5027,10.1502,1499,2795.25
23940,0.2023,1.834,11.3593,1511,2795.25
23945,-2.0542,-1.3216,11.9662,1502,2795.25
23950,-3.4393,1.2366,10.0772,1514,2795.25
23955,0.8045,3.0885,9.9754,1547,2794.99
23960,1.974,2.8958,10.9343,1503,2794.99
23965,-1.634,-0.5638,12.0488,1503,2794.99
23970,-3.8642,0.3819,10.8541,1499,2794.99
23975,-0.0287,2.8838,9.7001,1545,2794.73
23980,2.0075,3.6488,10.4938,1503,2794.73
23985,-2.0411,0.6716,11.8094,1511,2794.73
23990,-3.3591,-0.5028,11.5281,1505,2794.73
23995,-1.4724,2.4265,9.5265,1563,2794.34
24000,1.6448,3.6069,10.173,1509,2794.34
24005,-0.8739,1.4509,11.5233,1508,2794.34
24010,-2.4816,-1.2629,11.8549,1499,2794.34
24015,-3.0251,1.6305,9.8342,1507,2794.34
24020,1.0439,3.2154,10.0796,1533,2794.34
24025,1.4904,2.4708,11.1414,1507,2794.34
24030,-1.7418,-0.9194,11.995,1507,2794.34
24035,-3.7134,0.8033,10.501,1503,2794.34
24040,0.4298,2.9353,9.7959,1557,2794.47
24045,2.15,3.4034,10.6051,1499,2794.47
24050,-1.8615,0.2095,11.9411,1500,2794.47
24055,-3.5997,-0.1808,11.2659,1501,2794.47
24060,-0.8607,2.6157,9.566,1565,2794.47
24065,1.7705,3.7074,10.2436,1511,2794.47
24070,-1.6939,1.1468,11.6861,1495,2794.47
24075,-2.9006,-1.0151,11.8238,1512,2794.47
24080,-2.4576,1.9908,9.6367,1574,2794.6
24085,1.3455,3.4357,10.1299,1499,2794.6
24090,0.6404,1.9932,11.3569,1498,2794.6
24095,-1.8699,-1.2043,11.9878,1499,2794.6
24100,-3.5159,1.1253,10.1861,1511,2794.6
24105,0.7398,3.0347,9.924,1544,2794.47
24110,2.0758,3.0071,10.817,1515,2794.47
24115,-1.6053,-0.3436,11.9854,1506,2794.47
24120,-3.7852,0.2203,11.0014,1503,2794.47
24125,-0.3005,2.8204,9.7109,1568,2794.6
24130,1.9357,3.7146,10.3848,1505,2794.6
24135,-2.0734,0.8056,11.7711,1509,2794.6
24140,-3.2693,-0.6297,11.6191,1507,2794.6
24145,-1.816,2.3786,9.6115,1533,2794.34
24150,1.6029,3.6368,10.1622,1507,2794.34
24155,-0.4357,1.658,11.4622,1511,2794.34
24160,-2.2793,-1.2761,11.9758,1501,2794.34
24165,-3.1963,1.4246,9.9204,1511,2794.34
24170,1.0139,3.14,9.9898,1531,2794.73
24175,1.7142,2.5786,11.0241,1502,2794.73
24180,-1.6508,-0.8356,12.0225,1499,2794.73
24185,-3.7816,0.5782,10.6159,1502,2794.73
24190,0.2322,2.9449,9.7624,1550,2795.25
24195,2.0614,3.5721,10.5584,1510,2795.25
24200,-1.9752,0.413,11.9183,1499,2795.25
24205,-3.5039,-0.2143,11.382,1502,2795.25
24210,-1.0606,2.6085,9.5158,1563,2795.64
24215,1.7681,3.699,10.2496,1503,2795.64
24220,-1.3719,1.2953,11.6167,1503,2795.64
24225,-2.7222,-1.1396,11.813,1507,2795.64
24230,-2.6923,1.8256,9.7695,1575,2796.03
24235,1.221,3.3818,10.0952,1509,2796.03
24240,0.978,2.1799,11.2396,1509,2796.03
24245,-1.8244,-1.1169,12.0309,1499,2796.03
24250,-3.6679,0.984,10.3441,1502,2796.03
24255,0.6237,3.0574,9.8713,1543,2796.16
24260,2.1404,3.2477,10.7751,1509,2796.16
24265,-1.7585,-0.0898,11.9483,1497,2796.16
24270,-3.7098,0.0922,11.1103,1514,2796.16
24275,-0.4429,2.7869,9.5972,1567,2796.81
24280,1.9082,3.6931,10.3298,1502,2796.81
24285,-1.9393,0.8739,11.7196,1497,2796.81
24290,-3.1723,-0.8296,11.6502,1509,2796.81
24295,-2.0482,2.2398,9.5577,1568,2797.2
24300,1.5083,3.5183,10.1754,1501,2797.2
24305,-0.1125,1.7095,11.4072,1513,2797.2
24310,-2.1955,-1.1983,12.0117,1503,2797.2
24315,-3.3315,1.4174,9.9515,1518,2797.2
24320,0.9697,3.1568,9.9754,1547,2797.46
24325,1.9453,2.6671,10.9607,1501,2797.46
24330,-1.5993,-0.6764,12.0249,1497,2797.46
24335,-3.8295,0.4549,10.7057,1502,2797.46
24340,0.0742,2.8718,9.7767,1557,2797.72
24345,2.0255,3.559,10.5285,1509,2797.72
24350,-1.9812,0.486,11.9052,1510,2797.72
24355,-3.5398,-0.3867,11.4239,1508,2797.72
24360,-1.257,2.5438,9.6235,1549,2797.99
24365,1.7717,3.7373,10.2795,1502,2797.99
24370,-1.2474,1.3396,11.6083,1507,2797.99
24375,-2.654,-1.1372,11.9411,1508,2797.99
24380,-2.7773,1.7681,9.7671,1549,2797.85
24385,1.2725,3.3064,10.0772,1511,2797.85
24390,1.2234,2.1991,11.2276,1509,2797.85
24395,-1.7597,-1.148,12.0009,1502,2797.85
24400,-3.7266,0.9014,10.3597,1501,2797.85
24405,0.559,2.9832,9.9,1544,2798.25
24410,2.0578,3.2717,10.7727,1509,2798.25
24415,-1.7873,-0.0503,12.0057,1499,2798.25
24420,-3.7457,0.1401,11.1211,1513,2798.25
24425,-0.516,2.7593,9.5924,1564,2797.99
24430,1.9345,3.7385,10.3633,1507,2797.99
24435,-1.9106,0.9337,11.7352,1500,2797.99
24440,-3.0634,-0.8009,11.7208,1507,2797.99
24445,-2.0901,2.1452,9.6043,1561,2797.33
24450,1.4641,3.4919,10.1993,1498,2797.33
24455,0.0503,1.719,11.3832,1511,2797.33
24460,-2.1727,-1.2869,11.9926,1499,2797.33
24465,-3.4177,1.306,10.0066,1514,2797.33
24470,0.8882,3.158,9.9551,1550,2797.59
24475,1.8938,2.8695,10.9978,1507,2797.59
24480,-1.6484,-0.5614,12.0823,1501,2797.59
24485,-3.7996,0.4645,10.7859,1503,2797.59
24490,0.0431,2.8898,9.675,1548,2797.72
24495,2.0578,3.5997,10.495,1503,2797.72
24500,-1.9656,0.4956,11.8238,1509,2797.72
24505,-3.4512,-0.4609,11.5329,1505,2797.72
24510,-1.3683,2.4684,9.5433,1563,2797.2
24515,1.6604,3.6966,10.2687,1509,2797.2
24520,-1.1803,1.3838,11.5736,1507,2797.2
24525,-2.575,-1.1396,11.9542,1499,2797.2
24530,-2.8659,1.7861,9.7384,1509,2797.2
24535,1.2103,3.3064,10.0509,1533,2796.81
24540,1.2833,2.3272,11.139,1505,2796.81
24545,-1.6999,-0.9948,12.0273,1507,2796.81
24550,-3.7445,0.8595,10.3813,1501,2796.81
24555,0.5171,3.0203,9.8342,1555,2797.2
24560,2.1344,3.2813,10.6805,1503,2797.2
24565,-1.8016,-0.0156,11.9411,1500,2797.2
24570,-3.7769,-0.0299,11.1761,1501,2797.2
24575,-0.7207,2.7114,9.6319,1565,2797.33
24580,1.8687,3.7469,10.3513,1515,2797.33
24585,-1.8962,1.0355,11.746,1503,2797.33
24590,-3.0622,-0.7697,11.7759,1511,2797.33
24595,-2.2278,2.1368,9.6343,1545,2797.72
24600,1.4916,3.5326,10.1251,1499,2797.72
24605,0.261,1.8208,11.3306,1511,2797.72
24610,-2.0554,-1.2881,11.9938,1500,2797.72
24615,-3.4273,1.2091,9.9623,1512,2797.72
24620,0.8607,3.0897,9.9551,1549,2798.25
24625,1.9764,2.8742,11.0121,1503,2798.25
24630,-1.6412,-0.5567,12.0105,1500,2798.25
24635,-3.899,0.4094,10.7955,1503,2798.25
24640,-0.0144,2.8814,9.645,1544,2798.51
24645,2.0411,3.6607,10.4782,1503,2798.51
24650,-2.0219,0.6045,11.8142,1509,2798.51
24655,-3.3962,-0.4214,11.564,1503,2798.51
24660,-1.4018,2.4205,9.5158,1561,2798.38
24665,1.7346,3.6033,10.2627,1509,2798.38
24670,-0.9553,1.397,11.5808,1506,2798.38
24675,-2.5331,-1.2438,11.8992,1493,2798.38
24680,-2.9808,1.658,9.7671,1501,2798.38
24685,1.148,3.2453,10.0724,1531,2798.12
24690,1.3431,2.3918,11.2527,1507,2798.12
24695,-1.7801,-1.0032,12.0919,1503,2798.12
24700,-3.7781,0.832,10.4902,1503,2798.12
24705,0.4752,2.9916,9.815,1555,2797.99
24710,2.1727,3.3998,10.6925,1500,2797.99
24715,-1.8579,0.091,11.8932,1499,2797.99
24720,-3.7014,-0.0455,11.2767,1507,2797.99
24725,-0.6907,2.6624,9.596,1563,2798.38
24730,1.8723,3.6727,10.2783,1511,2798.38
24735,-1.7609,1.0104,11.6873,1501,2798.38
24740,-3.0538,-0.905,11.7914,1513,2798.38
24745,-2.3296,2.0746,9.5277,1568,2798.25
24750,1.4389,3.4656,10.1167,1500,2798.25
24755,0.3136,1.9345,11.4012,1503,2798.25
24760,-2.053,-1.1624,11.9806,1499,2798.25
24765,-3.4309,1.3156,10.0928,1513,2798.25
24770,0.8464,3.1125,9.9192,1547,2798.25
24775,2.0913,2.8874,10.9559,1511,2798.25
24780,-1.6269,-0.516,11.9602,1501,2798.25
24785,-3.8343,0.322,10.7978,1505,2798.25
24790,-0.0922,2.7916,9.7013,1565,2797.99
24795,1.9908,3.644,10.5093,1501,2797.99
24800,-2.0698,0.6201,11.886,1509,2797.99
24805,-3.4668,-0.4729,11.5724,1501,2797.99
24810,-1.5347,2.4289,9.5672,1550,2797.59
24815,1.6592,3.7014,10.2197,1509,2797.59
24820,-0.9086,1.4832,11.5125,1511,2797.59
24825,-2.4505,-1.2019,11.9674,1496,2797.59
24830,-2.9688,1.6472,9.7743,1502,2797.59
24835,1.1504,3.2417,10.0628,1527,2797.33
24840,1.5083,2.3894,11.1606,1503,2797.33
24845,-1.7119,-1.0247,11.9926,1507,2797.33
24850,-3.7972,0.7278,10.4507,1508,2797.33
24855,0.4286,2.9221,9.8414,1556,2797.07
24860,2.1033,3.4189,10.7224,1503,2797.07
24865,-1.9369,0.1652,11.9076,1495,2797.07
24870,-3.644,-0.0048,11.2659,1498,2797.07
24875,-0.747,2.6815,9.5672,1563,2797.2
24880,1.8974,3.79,10.3154,1512,2797.2
24885,-1.6831,1.0642,11.7064,1499,2797.2
24890,-2.909,-0.9912,11.7519,1515,2797.2
24895,-2.375,1.9537,9.5624,1543,2797.46
24900,1.3551,3.3806,10.1119,1500,2797.46
24905,0.4489,1.907,11.3389,1511,2797.46
24910,-2.0411,-1.2881,11.9973,1497,2797.46
24915,-3.5745,1.1863,10.1598,1509,2797.46
24920,0.7638,3.1232,9.9419,1529,2797.33
24925,2.0722,3.1113,10.884,1511,2797.33
24930,-1.7071,-0.3675,11.9542,1501,2797.33
24935,-3.802,0.3196,10.8828,1502,2797.33
24940,-0.1425,2.8252,9.6367,1549,2796.81
24945,2.0722,3.6799,10.4256,1499,2796.81
24950,-2.0291,0.662,11.7759,1501,2796.81
24955,-3.3196,-0.5962,11.6322,1497,2796.81
24960,-1.664,2.3391,9.5062,1532,2797.33
24965,1.5778,3.6224,10.2831,1508,2797.33
24970,-0.7913,1.5706,11.5652,1517,2797.33
24975,-2.4349,-1.2115,11.9303,1502,2797.33
24980,-3.0646,1.6173,9.7875,1512,2797.33
24985,1.0977,3.2346,10.0592,1533,2797.07
24990,1.6305,2.484,11.1618,1501,2797.07
24995,-1.6532,-0.8775,11.9698,1499,2797.07
25000,-3.7481,0.7266,10.4902,1510,2797.07
25005,0.3472,2.8527,9.7887,1555,2797.2
25010,2.0997,3.45,10.6374,1506,2797.2
25015,-1.9249,0.1676,11.8968,1497,2797.2
25020,-3.6835,-0.2011,11.3449,1503,2797.2
25025,-0.9218,2.6372,9.5505,1567,2797.2
25030,1.8088,3.7852,10.3334,1507,2797.2
25035,-1.6556,1.2139,11.6861,1501,2797.2
25040,-2.8635,-0.9373,11.8321,1512,2797.2
25045,-2.4421,1.98,9.6702,1573,2797.46
25050,1.4018,3.4357,10.1227,1507,2797.46
25055,0.7195,2.0063,11.3342,1511,2797.46
25060,-1.9309,-1.2426,11.9674,1499,2797.46
25065,-3.5769,1.0475,10.161,1501,2797.46
25070,0.7326,2.9856,9.8904,1533,2797.59
25075,2.0542,3.0921,10.8146,1511,2797.59
25080,-1.7178,-0.3591,11.9375,1497,2797.59
25085,-3.8319,0.3089,10.993,1511,2797.59
25090,-0.2406,2.8443,9.6714,1567,2797.72
25095,1.9968,3.808,10.4675,1501,2797.72
25100,-2.0602,0.7278,11.7902,1507,2797.72
25105,-3.2513,-0.6117,11.6155,1501,2797.72
25110,-1.6783,2.2757,9.517,1571,2798.25
25115,1.6712,3.5757,10.1945,1494,2798.25
25120,-0.5351,1.5598,11.4862,1517,2798.25
25125,-2.3499,-1.2905,11.965,1503,2798.25
25130,-3.1963,1.5251,9.8857,1515,2798.25
25135,0.9948,3.1627,10.0676,1541,2797.72
25140,1.6197,2.6288,11.1378,1503,2797.72
25145,-1.7573,-0.832,11.9722,1497,2797.72
25150,-3.8415,0.7087,10.58,1506,2797.72
25155,0.3208,2.9676,9.7157,1547,2796.94
25160,2.1787,3.5219,10.6075,1509,2796.94
25165,-1.913,0.2921,11.9279,1509,2796.94
25170,-3.5279,-0.1999,11.3641,1507,2796.94
25175,-0.99,2.545,9.4966,1567,2796.42
25180,1.7825,3.6559,10.3034,1507,2796.42
25185,-1.5227,1.148,11.6502,1508,2796.42
25190,-2.8264,-1.1037,11.886,1511,2796.42
25195,-2.6037,1.9237,9.7085,1509,2796.16
25200,1.3001,3.389,10.1227,1513,2796.16
25205,0.7877,2.1739,11.3042,1510,2796.16
25210,-1.9094,-1.136,11.9973,1497,2796.16
25215,-3.5769,1.0642,10.2208,1500,2796.16
25220,0.6919,3.0011,9.8593,1543,2796.03
25225,2.1656,3.1364,10.8098,1501,2796.03
25230,-1.7286,-0.2658,11.9387,1497,2796.03
25235,-3.7828,0.1544,11.0433,1511,2796.03
25240,-0.4046,2.7641,9.6295,1565,2796.68
25245,1.8399,3.7517,10.3693,1513,2796.68
25250,-2.0482,0.8655,11.8046,1499,2796.68
25255,-3.2142,-0.668,11.6753,1503,2796.68
25260,-1.8974,2.2948,9.5397,1541,2797.07
25265,1.6041,3.5793,10.2065,1498,2797.07
25270,-0.2466,1.6544,11.5604,1512,2797.07
25275,-2.2541,-1.2629,11.9399,1502,2797.07
25280,-3.1891,1.4102,9.8916,1517,2797.07
25285,1.0032,3.1268,9.9359,1545,2797.2
25290,1.7897,2.6504,11.06,1503,2797.2
25295,-1.658,-0.8452,11.9471,1509,2797.2
25300,-3.8188,0.5638,10.6602,1501,2797.2
25305,0.1808,2.9078,9.7636,1544,2797.07
25310,2.0506,3.5757,10.6434,1499,2797.07
25315,-2.0039,0.4202,11.892,1510,2797.07
25320,-3.48,-0.231,11.4395,1501,2797.07
25325,-1.1217,2.5355,9.5337,1564,2796.68
25330,1.8004,3.7254,10.2424,1507,2796.68
25335,-1.2953,1.2929,11.5664,1503,2796.68
25340,-2.6887,-1.1432,11.88,1496,2796.68
25345,-2.6875,1.7813,9.7576,1509,2796.68
25350,1.227,3.2441,10.0772,1533,2796.55
25355,1.0139,2.1943,11.2731,1505,2796.55
25360,-1.895,-1.1516,11.995,1507,2796.55
25365,-3.7194,1.0175,10.313,1509,2796.55
25370,0.6153,3.0011,9.8761,1555,2796.42
25375,2.1835,3.2274,10.7859,1501,2796.42
25380,-1.7669,-0.1101,11.904,1497,2796.42
25385,-3.6547,0.1377,11.1055,1503,2796.42
25390,-0.4609,2.7066,9.5912,1562,2796.16
25395,1.9225,3.6679,10.3465,1513,2796.16
25400,-1.9094,0.9134,11.7771,1503,2796.16
25405,-3.1508,-0.7937,11.7029,1510,2796.16
25410,-2.0482,2.1799,9.6091,1572,2796.03
25415,1.4305,3.5506,10.2137,1501,2796.03
25420,-0.103,1.7957,11.5317,1508,2796.03
25425,-2.1991,-1.2163,11.9171,1498,2796.03
25430,-3.3734,1.4114,9.9623,1513,2796.03
25435,0.9565,3.1352,9.9192,1533,2795.9
25440,1.9884,2.8096,11.0516,1511,2795.9
25445,-1.6664,-0.6225,12.0009,1503,2795.9
25450,-3.7888,0.4322,10.7595,1503,2795.9
25455,0.0287,2.8383,9.7229,1564,2795.9
25460,1.9429,3.565,10.5536,1501,2795.9
25465,-2.053,0.5088,11.8369,1509,2795.9
25470,-3.5027,-0.4238,11.461,1501,2795.9
25475,-1.3671,2.5091,9.5648,1567,2796.16
25480,1.7023,3.6883,10.2256,1507,2796.16
25485,-1.1157,1.4186,11.5903,1507,2796.16
25490,-2.6025,-1.1205,11.9255,1502,2796.16
25495,-2.8611,1.7238,9.7815,1507,2796.16
25500,1.2246,3.2549,10.0413,1530,2796.16
25505,1.3491,2.2661,11.1881,1508,2796.16
25510,-1.7214,-1.1504,11.9746,1506,2796.16
25515,-3.7541,0.8033,10.4327,1501,2796.16
25520,0.4681,2.9604,9.827,1557,2796.68
25525,2.0853,3.3255,10.7392,1508,2796.68
25530,-1.8818,0.0419,11.9638,1500,2796.68
25535,-3.735,0.1101,11.224,1503,2796.68
25540,-0.6393,2.7054,9.5696,1565,2797.2
25545,1.9513,3.7505,10.2855,1511,2797.2
25550,-1.8651,1.0606,11.7005,1499,2797.2
25555,-2.9975,-0.8835,11.728,1515,2797.2
25560,-2.1835,2.0985,9.59,1571,2797.59
25565,1.4509,3.4165,10.0784,1501,2797.59
25570,0.1592,1.8938,11.4084,1515,2797.59
25575,-2.1201,-1.324,11.9902,1499,2797.59
25580,-3.4872,1.2163,10.0353,1509,2797.59
25585,0.8308,3.0777,9.985,1531,2797.85
25590,1.998,2.9125,10.9666,1511,2797.85
25595,-1.9249,0.2897,11.9112,1500,2797.85
25600,-3.7936,0.4429,10.8397,1507,2797.85
25605,-0.9852,2.6157,9.5864,1572,2797.72
25610,1.7813,3.6907,10.2615,1508,2797.72
25615,-1.5323,1.2055,11.6789,1503,2797.72
25620,-2.8323,-1.0558,11.7783,1503,2797.72
25625,-2.5762,1.8759,9.6666,1563,2798.12
25630,1.336,3.3387,10.1969,1509,2798.12
25635,0.7518,2.1033,11.3533,1515,2798.12
25640,-1.9273,-1.172,11.983,1507,2798.12
25645,-3.5913,1.1181,10.2292,1518,2798.12
25650,0.7338,3.0754,9.9132,1527,2798.9
25655,2.1751,3.0897,10.8026,1503,2798.9
25660,-1.6987,-0.3065,11.9566,1502,2798.9
25665,-3.7529,0.1712,11.0409,1507,2798.9
25670,-0.31,2.7809,9.6307,1547,2798.9
25675,1.9441,3.6488,10.41,1511,2798.9
25680,-2.053,0.7649,11.8393,1501,2798.9
25685,-3.3076,-0.6764,11.6215,1499,2798.9
25690,-1.804,2.3571,9.5541,1562,2798.51
25695,1.5862,3.6476,10.155,1505,2798.51
25700,-0.4405,1.6652,11.5209,1501,2798.51
25705,-2.3834,-1.2582,11.9447,1513,2798.51
25710,-3.1711,1.482,9.8617,1543,2798.25
25715,1.0594,3.1496,10.0161,1503,2798.25
25720,1.7394,2.575,11.0995,1511,2798.25
25725,-1.6592,-0.8428,11.9459,1499,2798.25
25730,-3.8331,0.6069,10.5572,1501,2798.25
25735,0.2466,2.9389,9.7468,1543,2798.25
25740,2.0267,3.5422,10.6159,1509,2798.25
25745,-2.0063,0.3376,11.9554,1499,2798.25
25750,-3.6392,-0.2071,11.3018,1513,2798.25
25755,-1.0175,2.5929,9.5517,1555,2797.85
25760,1.8375,3.7469,10.2855,1501,2797.85
25765,-1.4964,1.2594,11.6502,1497,2797.85
25770,-2.7677,-1.0762,11.8513,1499,2797.85
25775,-2.5965,1.9058,9.7097,1543,2798.25
25780,1.3108,3.383,10.1119,1499,2798.25
25785,0.8248,2.0853,11.327,1513,2798.25
25790,-1.8723,-1.2522,11.9842,1506,2798.25
25795,-3.6404,1.002,10.1622,1516,2798.25
25800,0.6823,3.0335,9.9515,1544,2797.85
25805,2.1069,3.1591,10.8386,1501,2797.85
25810,-1.7538,-0.2215,12.068,1499,2797.85
25815,-3.7936,0.2119,11.0361,1503,2797.85
25820,-0.3041,2.7701,9.6091,1553,2797.33
25825,2.0075,3.6679,10.331,1509,2797.33
25830,-2.0219,0.838,11.7639,1507,2797.33
25835,-3.2334,-0.741,11.6167,1503,2797.33
25840,-1.8687,2.2553,9.5636,1567,2797.33
25845,1.5538,3.4979,10.2149,1506,2797.33
25850,-0.3795,1.64,11.4898,1503,2797.33
25855,-2.3128,-1.2079,11.9626,1511,2797.33
25860,-3.2645,1.4557,9.8749,1544,2796.68
25865,1.0319,3.1627,10.0197,1510,2796.68
25870,1.7921,2.6875,11.0744,1511,2796.68
25875,-1.6245,-0.7685,11.9926,1503,2796.68
25880,-3.8032,0.516,10.6374,1500,2796.68
25885,0.1784,2.9281,9.7133,1529,2797.07
25890,2.1296,3.5231,10.5524,1507,2797.07
25895,-1.9549,0.346,11.9423,1497,2797.07
25900,-3.565,-0.3268,11.4156,1512,2797.07
25905,-1.1301,2.5355,9.5409,1567,2797.07
25910,1.7346,3.6895,10.2735,1506,2797.07
25915,-1.4485,1.318,11.6262,1501,2797.07
25920,-2.7378,-1.081,11.8381,1506,2797.07
25925,-2.6911,1.913,9.7528,1564,2797.33
25930,1.3048,3.3962,10.0545,1499,2797.33
25935,1.0618,2.2063,11.2934,1517,2797.33
25940,-1.8076,-1.142,11.9554,1500,2797.33
25945,-3.6524,0.9481,10.2711,1515,2797.33
25950,0.6237,2.9652,9.8809,1548,2796.94
25955,2.1165,3.14,10.8158,1507,2796.94
25960,-1.7597,-0.1161,11.9483,1499,2796.94
25965,-3.7769,0.1401,11.1486,1501,2796.94
25970,-0.4896,2.7533,9.6594,1545,2796.42
25975,1.9704,3.7852,10.3382,1509,2796.42
25980,-2.0123,0.923,11.7651,1507,2796.42
25985,-3.1532,-0.7338,11.7256,1501,2796.42
25990,-2.0231,2.2051,9.578,1567,2795.77
25995,1.6173,3.535,10.1789,1509,2795.77
26000,-0.1341,1.7502,11.4706,1501,2795.77
26005,-2.1979,-1.2737,11.9938,1503,2795.77
26010,-3.322,1.3515,9.973,1503,2795.77
26015,0.9218,3.1125,9.973,1529,2795.38
26020,1.8471,2.7869,11.0468,1507,2795.38
26025,-1.6939,-0.668,12.0273,1509,2795.38
26030,-3.8104,0.5124,10.7452,1500,2795.38
26035,0.0778,2.879,9.7145,1547,2795.64
26040,2.071,3.6164,10.495,1507,2795.64
26045,-2.0446,0.4932,11.8812,1497,2795.64
26050,-3.4297,-0.3938,11.4539,1508,2795.64
26055,-1.2857,2.4948,9.4679,1553,2795.64
26060,1.7214,3.6356,10.252,1512,2795.64
26065,-1.2067,1.3348,11.6203,1501,2795.64
26070,-2.6097,-1.1959,11.8561,1511,2795.64
26075,-2.8814,1.7142,9.7217,1565,2795.77
26080,1.2127,3.292,10.07,1503,2795.77
26085,1.2139,2.3212,11.2097,1508,2795.77
26090,-1.7777,-0.984,12.0189,1498,2795.77
26095,-3.729,0.8799,10.4758,1513,2795.77
26100,0.5171,3.0179,9.8198,1545,2795.77
26105,2.15,3.2825,10.744,1512,2795.77
26110,-1.8136,-0.0515,11.8848,1498,2795.77
26115,-3.7014,-0.079,11.1845,1503,2795.77
26120,-0.6548,2.6803,9.5636,1564,2795.64
26125,1.8663,3.7433,10.3346,1501,2795.64
26130,-1.9154,1.008,11.7112,1510,2795.64
26135,-3.0299,-0.8464,11.7687,1501,2795.64
26140,-2.1991,2.1416,9.5648,1533,2795.64
26145,1.4569,3.5039,10.1179,1511,2795.64
26150,0.231,1.8423,11.4347,1509,2795.64
26155,-2.0901,-1.2258,11.989,1498,2795.64
26160,-3.4237,1.2426,10.0233,1501,2795.64
26165,0.8847,3.0765,9.918,1517,2795.77
26170,2.0255,2.9066,11.0097,1501,2795.77
26175,-1.6436,-0.4932,12.0141,1503,2795.77
26180,-3.8068,0.3843,10.7907,1508,2795.77
26185,-0.0754,2.8359,9.6295,1557,2796.68
26190,2.0051,3.638,10.489,1507,2796.68
26195,-2.0698,0.6009,11.8345,1498,2796.68
26200,-3.3938,-0.4549,11.5963,1500,2796.68
26205,-1.5107,2.4157,9.5624,1564,2796.68
26210,1.7059,3.7206,10.2053,1511,2796.68
26215,-0.8894,1.5095,11.4826,1501,2796.68
26220,-2.466,-1.2103,11.8716,1514,2796.68
26225,-2.9856,1.6161,9.8007,1571,2796.42
26230,1.154,3.207,10.0712,1500,2796.42
26235,1.4102,2.4074,11.1881,1511,2796.42
26240,-1.7717,-1.0032,11.9902,1500,2796.42
26245,-3.7924,0.7518,10.5153,1507,2796.42
26250,0.4118,2.9999,9.8294,1546,2796.42
26255,2.1332,3.456,10.6722,1502,2796.42
26260,-1.8986,0.176,11.9135,1501,2796.42
26265,-3.6284,-0.0395,11.2899,1507,2796.42
26270,-0.7338,2.6181,9.5205,1567,2796.29
26275,1.9285,3.7086,10.2843,1507,2796.29
26280,-1.7585,1.1025,11.6849,1511,2796.29
26285,-2.9329,-0.9708,11.7448,1502,2796.29
26290,-2.3475,2.0027,9.6474,1571,2796.55
26295,1.3659,3.4249,10.1107,1502,2796.55
26300,0.4238,2.0147,11.3916,1512,2796.55
26305,-2.0159,-1.2019,12.0201,1501,2796.55
26310,-3.5518,1.142,10.173,1517,2796.55
26315,0.729,3.0777,9.9467,1529,2796.68
26320,2.0662,3.0311,10.9283,1501,2796.68
26325,-1.7214,-0.3926,11.9578,1499,2796.68
26330,-3.7577,0.2765,10.8888,1503,2796.68
26335,-0.176,2.7845,9.6211,1553,2796.55
26340,2.0171,3.6751,10.4675,1509,2796.55
26345,-2.047,0.7183,11.8489,1515,2796.55
26350,-3.2932,-0.6177,11.6286,1507,2796.55
26355,-1.6245,2.2936,9.5086,1567,2796.29
26360,1.646,3.6093,10.2448,1499,2796.29
26365,-0.6656,1.5598,11.461,1500,2796.29
26370,-2.4277,-1.2115,11.971,1509,2796.29
26375,-3.1244,1.5419,9.8821,1545,2796.03
26380,1.0882,3.2214,10.0604,1519,2796.03
26385,1.6496,2.5115,11.1043,1509,2796.03
26390,-1.6819,-0.8823,11.9483,1499,2796.03
26395,-3.7769,0.6345,10.5788,1498,2796.03
26400,0.2658,2.9054,9.7947,1545,2795.9
26405,2.1261,3.4189,10.6267,1508,2795.9
26410,-1.9752,0.2298,11.8896,1499,2795.9
26415,-3.5829,-0.1796,11.3485,1511,2795.9
26420,-0.9349,2.636,9.5397,1567,2795.64
26425,1.816,3.7481,10.2987,1505,2795.64
26430,-1.6005,1.2079,11.6741,1501,2795.64
26435,-2.8264,-1.0331,11.8489,1499,2795.64
26440,-2.5127,1.883,9.7025,1559,2795.51
26445,1.3767,3.3567,10.0987,1496,2795.51
26450,0.741,2.0303,11.2599,1515,2795.51
26455,-1.913,-1.2258,12.0368,1495,2795.51
26460,-3.5889,1.0475,10.2185,1515,2795.51
26465,0.6788,2.9951,9.9048,1545,2795.38
26470,2.0746,3.158,10.8397,1500,2795.38
26475,-1.7238,-0.3184,11.9614,1505,2795.38
26480,-3.7565,0.2179,11.0002,1502,2795.38
26485,-0.3448,2.8012,9.5984,1545,2794.99
26490,2.0387,3.7457,10.422,1508,2794.99
26495,-2.0458,0.8775,11.8321,1507,2794.99
26500,-3.1304,-0.7219,11.6885,1502,2794.99
26505,-1.8232,2.217,9.5828,1564,2794.86
26510,1.5802,3.5207,10.1801,1511,2794.86
26515,-0.3651,1.6723,11.4694,1501,2794.86
26520,-2.2625,-1.2737,11.898,1499,2794.86
26525,-3.2896,1.4269,9.9228,1503,2794.86
26530,0.9589,3.1544,10.0461,1531,2794.47
26535,1.7801,2.745,11.1055,1503,2794.47
26540,-1.7334,-0.6764,11.9303,1508,2794.47
26545,-3.7984,0.559,10.6817,1505,2794.47
26550,0.1879,2.8778,9.736,1556,2794.86
26555,2.1141,3.5578,10.5393,1506,2794.86
26560,-2.0147,0.3771,11.8657,1499,2794.86
26565,-3.48,-0.3448,11.5149,1506,2794.86
26570,-1.1648,2.4936,9.4822,1563,2795.12
26575,1.7466,3.7242,10.2747,1515,2795.12
26580,-1.336,1.3216,11.576,1501,2795.12
26585,-2.7078,-1.1085,11.9052,1513,2795.12
26590,-2.8156,1.7992,9.7552,1574,2795.51
26595,1.2797,3.3016,10.137,1501,2795.51
26600,1.1384,2.2338,11.2719,1507,2795.51
26605,-1.8232,-1.0546,11.9734,1496,2795.51
26610,-3.6488,0.9337,10.3262,1516,2795.51
26615,0.577,3.0023,9.8186,1543,2795.51
26620,2.1632,3.2729,10.726,1513,2795.51
26625,-1.7705,-0.1006,11.9243,1503,2795.51
26630,-3.7577,0.0371,11.2144,1502,2795.51
26635,-0.5902,2.6576,9.578,1557,2795.51
26640,1.9022,3.7529,10.3633,1506,2795.51
26645,-1.9908,0.9613,11.6777,1511,2795.51
26650,-3.1005,-0.7697,11.7112,1502,2795.51
26655,-2.1296,2.162,9.6115,1571,2795.64
26660,1.5287,3.5027,10.1275,1507,2795.64
26665,0.079,1.8184,11.3581,1509,2795.64
26670,-2.0937,-1.3036,11.8968,1501,2795.64
26675,-3.4046,1.2785,10.0305,1506,2795.64
26680,0.8487,3.055,10.0389,1519,2795.38
26685,1.907,2.8287,11.0373,1500,2795.38
26690,-1.6209,-0.6321,11.9495,1499,2795.38
26695,-3.8247,0.4334,10.8541,1503,2795.38
26700,0.0299,2.891,9.6857,1555,2795.25
26705,2.0806,3.6464,10.5369,1510,2795.25
26710,-2.0506,0.5626,11.8166,1501,2795.25
26715,-3.4046,-0.4238,11.5305,1500,2795.25
26720,-1.3791,2.4289,9.4858,1564,2795.12
26725,1.7454,3.626,10.2484,1507,2795.12
26730,-1.0367,1.3922,11.4706,1502,2795.12
26735,-2.5175,-1.1971,11.8645,1511,2795.12
26740,-2.976,1.6328,9.7408,1543,2795.12
26745,1.1277,3.2441,10.0832,1508,2795.12
26750,1.3467,2.4445,11.236,1509,2795.12
26755,-1.7442,-0.9708,12.0237,1499,2795.12
26760,-3.7673,0.814,10.4902,1501,2795.12
26765,0.4345,2.9509,9.7899,1541,2794.99
26770,2.1775,3.4345,10.6698,1506,2794.99
26775,-1.8699,0.146,11.8764,1495,2794.99
26780,-3.6105,-0.067,11.2683,1512,2794.99
26785,-0.7494,2.6647,9.5481,1567,2794.86
26790,1.8328,3.6955,10.307,1507,2794.86
26795,-1.7681,1.057,11.6825,1503,2794.86
26800,-2.897,-0.9756,11.7495,1497,2794.86
26805,-2.3511,2.0339,9.6031,1567,2794.08
26810,1.4102,3.4728,10.149,1500,2794.08
26815,0.4633,2.0027,11.4024,1515,2794.08
26820,-2.0123,-1.1827,11.9375,1500,2794.08
26825,-3.5374,1.1923,10.1227,1517,2794.08
26830,0.7817,3.0646,9.8773,1545,2795.25
26835,2.1153,3.0047,10.8864,1502,2795.25
26840,-1.6556,-0.4154,11.9315,1497,2795.25
26845,-3.8152,0.2215,10.9942,1501,2795.25
26850,-0.2107,2.7533,9.6546,1555,2794.86
26855,1.9321,3.6966,10.4818,1507,2794.86
26860,-2.0901,0.7123,11.7843,1509,2794.86
26865,-3.322,-0.5531,11.661,1503,2794.86
26870,-1.6879,2.381,9.5936,1565,2795.12
26875,1.6759,3.6224,10.1526,1511,2795.12
26880,-0.6249,1.5634,11.5137,1499,2795.12
26885,-2.3571,-1.8411,-0.3089,1501,2795.12
26890,-3.146,1.5179,9.9204,1503,2795.12
26895,1.069,3.1903,10.0078,1533,2794.99
26900,1.6855,2.5618,11.0947,1506,2794.99
26905,-1.6927,-0.917,11.9614,1509,2794.99
26910,-3.8068,0.6105,10.6027,1503,2794.99
26915,0.2693,2.8814,9.7815,1543,2794.47
26920,2.0877,3.5219,10.6219,1507,2794.47
26925,-1.998,0.2825,11.91,1498,2794.47
26930,-3.6045,-0.1772,11.3988,1508,2794.47
26935,-1.0151,2.6384,9.5589,1565,2794.47
26940,1.8723,3.717,10.2352,1513,2794.47
26945,-1.5395,1.2342,11.5915,1500,2794.47
26950,-2.733,-1.0965,11.8118,1512,2794.47
26955,-2.5869,1.8723,9.6869,1546,2794.73
26960,1.2701,3.3076,10.1418,1501,2794.73
26965,0.7985,2.1284,11.3533,1503,2794.73
26970,-1.9166,-1.1827,11.9423,1499,2794.73
26975,-3.6763,1.0403,10.3034,1512,2794.73
26980,0.6309,3.0287,9.8928,1551,2794.73
26985,2.1129,3.2346,10.8517,1509,2794.73
26990,-1.7274,-0.1532,11.9495,1503,2794.73
26995,-3.7278,0.1652,11.0684,1507,2794.73
27000,-0.3759,2.7701,9.6259,1563,2794.47
27005,1.986,3.6966,10.2963,1503,2794.47
27010,-1.9728,0.8631,11.7208,1507,2794.47
27015,-3.1448,-0.7781,11.6861,1507,2794.47
27020,-1.9992,2.2661,9.6115,1567,2794.73
27025,1.5048,3.5051,10.1454,1510,2794.73
27030,-0.1915,1.7609,11.5101,1511,2794.73
27035,-2.2482,-1.2163,12.0165,1497,2794.73
27040,-3.322,1.4246,10.0209,1503,2794.73
27045,0.9565,3.146,9.9311,1526,2794.99
27050,1.9644,2.7354,10.9894,1505,2794.99
27055,-1.6077,-0.6931,11.9375,1499,2794.99
27060,-3.7409,0.4872,10.6865,1507,2794.99
27065,0.1113,2.8323,9.6941,1559,2794.86
27070,2.0518,3.5769,10.5309,1509,2794.86
27075,-2.0303,0.4741,11.8944,1499,2794.86
27080,-3.5446,-0.4166,11.4575,1499,2794.86
27085,-1.3001,2.5139,9.5756,1563,2794.86
27090,1.7154,3.7242,10.2963,1511,2794.86
27095,-1.2234,1.4509,11.6837,1507,2794.86
27100,-2.6085,-1.1013,11.8884,1513,2794.86
27105,-2.806,1.7897,9.7875,1572,2794.99
27110,1.2342,3.3052,10.0975,1507,2794.99
27115,1.2689,2.2685,11.2791,1511,2794.99
27120,-1.7214,-1.1648,11.9626,1499,2794.99
27125,-3.7134,0.7566,10.337,1503,2794.99
27130,0.5315,2.9556,9.8234,1545,2795.51
27135,2.1308,3.3184,10.7344,1512,2795.51
27140,-1.8663,0.0,11.9219,1499,2795.51
27145,-3.7613,0.0934,11.1833,1515,2795.51
27150,-0.6069,2.7689,9.5888,1559,2796.03
27155,1.9094,3.7948,10.3058,1507,2796.03
27160,-1.8675,1.0187,11.6861,1503,2796.03
27165,-3.0131,-0.8894,11.6945,1501,2796.03
27170,-2.1823,2.071,9.5517,1544,2796.42
27175,1.4724,3.4249,10.149,1501,2796.42
27180,0.1568,1.8196,11.382,1515,2796.42
27185,-2.138,-1.2965,11.9794,1495,2796.42
27190,-3.5147,1.2629,10.0916,1516,2796.42
27195,0.8308,3.0813,9.9216,1542,2796.55
27200,1.9668,2.9066,10.9762,1499,2796.55
27205,-1.6915,-0.504,12.0213,1497,2796.55
27210,-3.8247,0.4046,10.8074,1500,2796.55
27215,-0.0335,2.8455,9.6977,1553,2795.64
27220,2.0662,3.6248,10.4459,1509,2795.64
27225,-2.047,0.6309,11.8705,1507,2795.64
27230,-3.3555,-0.5219,11.5017,1507,2795.64
27235,-1.4557,2.4205,9.5229,1563,2795.12
27240,1.6508,3.6188,10.1933,1507,2795.12
27245,-0.9804,1.5191,11.5903,1507,2795.12
27250,-2.5187,-1.2103,11.8621,1507,2795.12
27255,-3.0311,1.6891,9.7923,1509,2795.12
27260,1.1205,3.2561,10.058,1525,2795.12
27265,1.5119,2.472,11.1845,1511,2795.12
27270,-1.725,-0.9074,11.9578,1501,2795.12
27275,-3.7553,0.753,10.4866,1499,2795.12
27280,0.4058,2.9269,9.7468,1548,2796.29
27285,2.1859,3.3866,10.659,1507,2796.29
27290,-1.8423,0.1317,11.9076,1497,2796.29
27295,-3.6739,-0.1317,11.2863,1512,2796.29
27300,-0.8523,2.6755,9.5672,1567,2796.81
27305,1.8304,3.7948,10.3441,1512,2796.81
27310,-1.7514,1.1432,11.6705,1501,2796.81
27315,-3.0011,-0.9337,11.8333,1507,2796.81
27320,-2.4205,2.0446,9.6845,1553,2797.46
27325,1.4425,3.4345,10.0868,1499,2797.46
27330,0.5842,1.9668,11.3665,1511,2797.46
27335,-1.962,-1.2366,11.9531,1495,2797.46
27340,-3.5518,1.1492,10.1083,1513,2797.46
27345,0.7721,3.0203,9.8904,1545,2797.99
27350,2.1021,3.0131,10.9319,1507,2797.99
27355,-1.6975,-0.407,12.0009,1503,2797.99
27360,-3.8511,0.2885,10.9319,1503,2797.99
27365,-0.1448,2.8335,9.7408,1545,2797.99
27370,2.0267,3.6966,10.4052,1499,2797.99
27375,-2.0423,0.7721,11.8046,1507,2797.99
27380,-3.3519,-0.5519,11.5712,1506,2797.99
27385,-1.6101,2.3559,9.5385,1563,2798.38
27390,1.6807,3.6188,10.2125,1514,2798.38
27395,-0.7398,1.5107,11.6286,1507,2798.38
27400,-2.4062,-1.3252,11.904,1501,2798.38
27405,-3.1065,1.5155,9.7767,1503,2798.38
27410,1.063,3.1843,9.9994,1531,2798.38
27415,1.5682,2.5402,11.1259,1511,2798.38
27420,-1.7059,-0.8882,11.9758,1507,2798.38
27425,-3.8319,0.747,10.5716,1503,2798.38
27430,0.3891,2.982,9.815,1557,2798.9
27435,2.2134,3.4668,10.6315,1503,2798.9
27440,-1.8735,0.2107,11.9028,1497,2798.9
27445,-3.6464,-0.1616,11.242,1507,2798.9
27450,-0.8511,2.6025,9.4703,1564,2798.9
27455,1.8783,3.6883,10.246,1511,2798.9
27460,-1.6843,1.136,11.6789,1503,2798.9
27465,-2.9389,-0.978,11.7974,1507,2798.9
27470,-2.4828,2.0435,9.6774,1547,2798.9
27475,1.3946,3.4488,10.1742,1499,2798.9
27480,0.583,2.0303,11.3593,1509,2798.9
27485,-2.0698,-1.2366,11.9961,1500,2798.9
27490,-3.5793,1.1372,10.161,1513,2798.9
27495,0.7817,3.0993,9.9371,1543,2799.55
27500,2.1656,3.0035,10.8769,1507,2799.55
27505,-1.7107,-0.3531,12.0165,1506,2799.55
27510,-3.7697,0.2442,10.9092,1503,2799.55
27515,-0.1927,2.7701,9.6163,1542,2799.81
27520,1.98,3.6368,10.404,1507,2799.81
27525,-2.0566,0.7266,11.8896,1509,2799.81
27530,-3.3842,-0.6105,11.5879,1508,2799.81
27535,-1.6843,2.3846,9.572,1565,2800.21
27540,1.664,3.699,10.1742,1507,2800.21
27545,-0.6596,1.5634,11.5628,1507,2800.21
27550,-2.4409,-1.2186,11.8681,1499,2800.21
27555,-3.0622,1.5897,9.8366,1501,2800.21
27560,1.1504,3.1831,9.9814,1531,2799.68
27565,1.6053,2.4696,11.1941,1507,2799.68
27570,-1.6532,-0.9565,12.0297,1501,2799.68
27575,-3.8092,0.7099,10.4519,1502,2799.68
27580,0.3292,2.9628,9.7755,1551,2798.77
27585,2.1368,3.4261,10.6769,1503,2798.77
27590,-1.9285,0.2203,11.8944,1495,2798.77
27595,-3.6775,-0.1389,11.3018,1503,2798.77
27600,-0.8751,2.6803,9.6223,1560,2798.12
27605,1.8926,3.7613,10.3418,1512,2798.12
27610,-1.6891,1.148,11.6897,1501,2798.12
27615,-2.8347,-0.9972,11.8058,1511,2798.12
27620,-2.4337,2.0039,9.6558,1541,2797.07
27625,1.3647,3.4465,10.1011,1499,2797.07
27630,0.5734,2.0027,11.3904,1509,2797.07
27635,-1.9453,-1.2797,12.0225,1499,2797.07
27640,-3.5721,1.154,10.1658,1513,2797.07
27645,0.7111,3.0514,9.9683,1548,2798.12
27650,2.1033,3.0454,10.9475,1511,2798.12
27655,-1.6975,-0.3531,12.0033,1507,2798.12
27660,-3.8008,0.3017,10.8876,1501,2798.12
27665,-0.2263,2.7689,9.6403,1527,2796.94
27670,2.0566,3.632,10.3681,1501,2796.94
27675,-1.9968,0.7685,11.8142,1503,2796.94
27680,-3.2968,-0.6141,11.6155,1507,2796.94
27685,-1.6975,2.3331,9.566,1567,2798.12
27690,1.573,3.5901,10.2173,1509,2798.12
27695,-0.6129,1.5754,11.5628,1511,2798.12
27700,-2.4062,-1.2366,11.9806,1497,2798.12
27705,-3.1687,1.5407,9.8785,1503,2798.12
27710,1.0618,3.2262,10.0197,1527,2797.46
27715,1.6915,2.5809,11.1713,1503,2797.46
27720,-1.7023,-0.8248,12.0907,1505,2797.46
27725,-3.796,0.6249,10.5548,1503,2797.46
27730,0.3376,2.8886,9.748,1555,2797.33
27735,2.1368,3.4441,10.6279,1508,2797.33
27740,-1.9249,0.2095,11.8621,1496,2797.33
27745,-3.6164,-0.2298,11.3485,1501,2797.33
27750,-0.9852,2.6025,9.5816,1565,2796.94
27755,1.7777,3.8044,10.337,1511,2796.94
27760,-1.6077,1.2306,11.6418,1500,2796.94
27765,-2.8503,-1.0499,11.7926,1513,2796.94
27770,-2.5343,1.9285,9.6702,1573,2796.81
27775,1.3862,3.4321,10.1215,1503,2796.81
27780,0.7901,2.0722,11.3138,1503,2796.81
27785,-1.8794,-1.1851,12.0368,1499,2796.81
27790,-3.5841,1.0415,10.2065,1511,2796.81
27795,0.6428,3.049,9.9216,1547,2796.81
27800,2.0818,3.1496,10.8625,1512,2796.81
27805,-1.7154,-0.2682,11.9878,1501,2796.81
27810,-3.8128,0.2107,11.0073,1501,2796.81
27815,-0.3711,2.7797,9.6822,1562,2796.81
27820,1.9752,3.7397,10.3884,1502,2796.81
27825,-2.0506,0.8787,11.7615,1508,2796.81
27830,-3.219,-0.6033,11.716,1503,2796.81
27835,-1.8148,2.2781,9.5457,1533,2796.29
27840,1.6029,3.565,10.1335,1509,2796.29
27845,-0.4441,1.6556,11.485,1515,2796.29
27850,-2.2673,-1.2785,11.9363,1503,2796.29
27855,-3.2825,1.409,9.9383,1512,2796.29
27860,0.9481,3.1783,9.9874,1530,2796.03
27865,1.7142,2.6899,11.0971,1501,2796.03
27870,-1.6939,-0.7781,11.9411,1503,2796.03
27875,-3.784,0.6237,10.671,1506,2796.03
27880,0.2298,2.891,9.7157,1557,2796.03
27885,2.156,3.5506,10.574,1507,2796.03
27890,-1.992,0.3651,11.8621,1499,2796.03
27895,-3.5111,-0.3089,11.4323,1503,2796.03
27900,-1.1001,2.5307,9.5193,1563,2796.03
27905,1.7621,3.6404,10.2987,1506,2796.03
27910,-1.4341,1.2809,11.5879,1507,2796.03
27915,-2.7246,-1.0965,11.8489,1511,2796.03
27920,-2.7019,1.8423,9.7336,1573,2796.16
27925,1.2378,3.3243,10.1131,1509,2796.16
27930,1.0199,2.2122,11.2827,1512,2796.16
27935,-1.8747,-1.0678,11.9914,1494,2796.16
27940,-3.6404,0.9601,10.3406,1506,2796.16
27945,0.6512,2.9904,9.8342,1545,2796.16
27950,2.1548,3.2394,10.7057,1508,2796.16
27955,-1.7909,-0.0814,11.9447,1497,2796.16
27960,-3.6823,0.0958,11.1474,1511,2796.16
27965,-0.4812,2.7294,9.6414,1565,2796.03
27970,1.8567,3.7122,10.4184,1508,2796.03
27975,-1.9836,0.8918,11.7807,1499,2796.03
27980,-3.1591,-0.7781,11.728,1501,2796.03
27985,-2.0411,2.1931,9.5708,1567,2795.77
27990,1.5574,3.5769,10.1538,1501,2795.77
27995,-0.0682,1.7849,11.461,1513,2795.77
28000,-2.211,-1.2534,12.0045,1502,2795.77
28005,-3.3196,1.3515,9.9587,1515,2795.77
28010,0.9218,3.1089,9.9671,1546,2795.64
28015,1.9381,2.7521,11.0217,1502,2795.64
28020,-1.6113,-0.7003,11.9554,1495,2795.64
28025,-3.7888,0.4573,10.726,1499,2795.64
28030,0.0515,2.8371,9.7193,1547,2795.38
28035,2.0267,3.6392,10.5572,1511,2795.38
28040,-2.0746,0.5351,11.8345,1510,2795.38
28045,-3.4488,-0.3747,11.5065,1507,2795.38
28050,-1.3192,2.4541,9.5253,1567,2795.51
28055,1.7478,3.7086,10.2615,1509,2795.51
28060,-1.2175,1.3994,11.5329,1507,2795.51
28065,-2.5582,-1.1899,11.8836,1503,2795.51
28070,-2.8563,1.7083,9.7564,1509,2795.51
28075,1.2019,3.2896,10.0856,1541,2795.38
28080,1.2965,2.332,11.1881,1507,2795.38
28085,-1.8112,-1.087,11.9973,1507,2795.38
28090,-3.7146,0.8116,10.416,1501,2795.38
28095,0.4896,2.9844,9.906,1553,2795.38
28100,2.15,3.3267,10.7176,1507,2795.38
28105,-1.9034,0.0347,11.9243,1497,2795.38
28110,-3.6607,0.0539,11.2432,1511,2795.38
28115,-0.6596,2.7198,9.566,1565,2795.38
28120,1.8902,3.7493,10.3046,1513,2795.38
28125,-1.8771,1.0654,11.7196,1501,2795.38
28130,-2.9808,-0.8583,11.7879,1511,2795.38
28135,-2.2697,2.0554,9.6486,1545,2795.51
28140,1.3982,3.4692,10.155,1499,2795.51
28145,0.2753,1.8783,11.4479,1510,2795.51
28150,-2.1033,-1.257,12.0548,1498,2795.51
28155,-3.4453,1.2582,10.1287,1513,2795.51
28160,0.8236,3.0706,9.9276,1547,2795.64
