timestamp_ms,ax,ay,az,acs_adc,rpm
12580,-1.5275,0.2454,12.1613,1485,2837.55
12585,-4.209,-0.4848,11.3737,1495,2837.55
12590,-1.2977,2.6073,9.2332,1554,2838.22
12595,2.0482,3.9337,10.4519,1495,2838.22
12600,-1.1696,1.0666,11.8369,1491,2838.22
12605,-3.4201,-1.1408,11.9531,1493,2838.22
12610,-2.8276,2.1691,9.2081,1527,2838.49
12615,1.7861,3.7385,10.2903,1493,2838.49
12620,0.5902,1.7214,11.4419,1495,2838.49
12625,-2.1727,-1.4162,12.2416,1483,2838.49
12630,-4.0223,1.5251,9.6055,1487,2838.49
12635,1.1947,3.3255,10.0114,1518,2838.76
12640,2.1967,2.5486,11.0552,1493,2838.76
12645,-1.3958,-1.075,12.3313,1490,2838.76
12650,-4.64,0.6979,10.252,1491,2838.76
12655,0.3938,3.0538,9.6642,1520,2838.89
12660,2.6073,3.4201,10.7512,1493,2838.89
12665,-1.3551,-0.0766,12.2691,1487,2838.89
12670,-4.5849,-0.0862,11.0181,1491,2838.89
12675,-0.6764,2.7785,9.2823,1553,2839.16
12680,2.3691,3.9014,10.4279,1490,2839.16
12685,-1.4581,0.7458,11.9124,1494,2839.16
12690,-3.7373,-0.8655,11.7627,1489,2839.16
12695,-2.1368,2.411,9.1734,1567,2839.3
12700,1.9094,3.796,10.3094,1495,2839.3
12705,-0.2586,1.3946,11.6047,1491,2839.3
12710,-2.6815,-1.4341,12.1781,1496,2839.3
12715,-3.468,1.7873,9.4152,1527,2839.03
12720,1.3659,3.4488,10.155,1491,2839.03
12725,1.5574,2.2553,11.2444,1493,2839.03
12730,-1.7238,-1.239,12.396,1485,2839.03
12735,-4.5346,1.1289,9.9491,1501,2839.03
12740,0.7985,3.2094,9.8258,1523,2838.89
12745,2.6659,3.1089,10.9008,1492,2838.89
12750,-1.3503,-0.4633,12.3637,1483,2838.89
12755,-4.5681,0.2634,10.6638,1495,2838.89
12760,-0.1879,2.8647,9.3937,1529,2839.16
12765,2.4648,3.6763,10.5237,1497,2839.16
12770,-1.5119,0.3735,12.1578,1487,2839.16
12775,-4.0462,-0.5686,11.5005,1490,2839.16
12780,-1.4868,2.5331,9.2524,1549,2839.16
12785,1.9489,3.8583,10.4232,1500,2839.16
12790,-0.9062,1.1265,11.8286,1491,2839.16
12795,-3.225,-1.2354,11.9746,1491,2839.16
12800,-3.0394,2.1129,9.2249,1523,2839.3
12805,1.7011,3.6643,10.3011,1487,2839.3
12810,0.9254,1.8771,11.412,1499,2839.3
12815,-2.0913,-1.415,12.3206,1492,2839.3
12820,-4.1288,1.4712,9.6259,1497,2839.3
12825,1.0726,3.3076,9.9335,1515,2839.3
12830,2.4385,2.6923,11.0157,1490,2839.3
12835,-1.2821,-0.8966,12.3541,1496,2839.3
12840,-4.7082,0.6393,10.3453,1491,2839.3
12845,0.261,2.9999,9.566,1515,2840.1
12850,2.6169,3.4764,10.653,1493,2840.1
12855,-1.4174,0.0359,12.2439,1487,2840.1
12860,-4.4748,-0.176,11.151,1496,2840.1
12865,-0.8978,2.7222,9.2751,1533,2840.37
12870,2.2146,3.8427,10.4591,1493,2840.37
12875,-1.3132,0.8619,11.9447,1491,2840.37
12880,-3.7098,-0.9708,11.8561,1491,2840.37
12885,-2.375,2.3487,9.147,1557,2840.1
12890,1.9166,3.8223,10.313,1497,2840.1
12895,-0.0144,1.5107,11.5592,1493,2840.1
12900,-2.5474,-1.4186,12.2164,1494,2840.1
12905,-3.6823,1.7334,9.4272,1525,2839.7
12910,1.3611,3.4213,10.1227,1496,2839.7
12915,1.7945,2.2996,11.2767,1499,2839.7
12920,-1.658,-1.2713,12.3852,1487,2839.7
12925,-4.6579,1.0283,9.9946,1497,2839.7
12930,0.7626,3.1891,9.76,1523,2840.1
12935,2.6695,3.1915,10.8613,1495,2840.1
12940,-1.2941,-0.3915,12.3325,1491,2840.1
12945,-4.6184,0.2286,10.7847,1491,2840.1
12950,-0.2179,2.8946,9.3805,1530,2840.24
12955,2.4756,3.7457,10.5213,1495,2840.24
12960,-1.4425,0.5064,12.1075,1491,2840.24
12965,-4.1013,-0.6656,11.5161,1485,2840.24
12970,-1.658,2.5295,9.1674,1555,2840.24
12975,2.0171,3.8223,10.3872,1495,2840.24
12980,-0.7913,1.1372,11.7867,1491,2840.24
12985,-3.0694,-1.2857,12.0716,1500,2840.24
12990,-3.1771,2.0387,9.3015,1519,2840.1
12995,1.6041,3.6117,10.2855,1490,2840.1
13000,1.0343,1.9022,11.376,1497,2840.1
13005,-2.0303,-1.3288,12.3194,1492,2840.1
13010,-4.2916,1.4269,9.7001,1501,2840.1
13015,1.093,3.3303,9.9479,1509,2840.77
13020,2.484,2.7617,11.0157,1493,2840.77
13025,-1.47,-0.8021,12.3816,1487,2840.77
13030,-4.5334,0.5986,10.4112,1491,2840.77
13035,0.1856,2.9724,9.5612,1527,2840.91
13040,2.4756,3.45,10.671,1493,2840.91
13045,-1.3695,0.0754,12.2392,1494,2840.91
13050,-4.397,-0.2885,11.1953,1499,2840.91
13055,-1.0534,2.6707,9.2141,1555,2841.18
13060,2.1524,3.8702,10.4579,1490,2841.18
13065,-1.3348,0.8368,11.9519,1486,2841.18
13070,-3.6512,-1.0044,11.8812,1490,2841.18
13075,-2.472,2.2709,9.1482,1557,2841.58
13080,1.8735,3.8008,10.2256,1493,2841.58
13085,0.1113,1.5119,11.5472,1498,2841.58
13090,-2.5738,-1.4054,12.2439,1487,2841.58
13095,-3.8259,1.7238,9.4164,1493,2841.58
13100,1.4329,3.4297,10.0556,1519,2841.72
13105,1.9142,2.2829,11.2144,1496,2841.72
13110,-1.6388,-1.2127,12.4139,1486,2841.72
13115,-4.6376,0.996,9.9874,1496,2841.72
13120,0.6835,3.1472,9.7276,1524,2841.99
13125,2.6348,3.1568,10.8529,1497,2841.99
13130,-1.2905,-0.3926,12.4044,1493,2841.99
13135,-4.7154,0.1891,10.7296,1494,2841.99
13140,-0.2945,2.9113,9.3913,1527,2842.39
13145,2.4505,3.7601,10.5309,1495,2842.39
13150,-1.5263,0.4812,12.0764,1495,2842.39
13155,-4.0546,-0.5926,11.5005,1491,2842.39
13160,-1.6712,2.5343,9.1925,1553,2842.79
13165,1.9992,3.8307,10.3561,1495,2842.79
13170,-0.7278,1.1708,11.7855,1487,2842.79
13175,-3.0263,-1.2881,12.0488,1499,2842.79
13180,-3.1496,2.0339,9.2416,1523,2843.2
13185,1.5538,3.5985,10.2173,1487,2843.2
13190,1.0319,1.8615,11.4156,1499,2843.2
13195,-2.1093,-1.4365,12.3457,1490,2843.2
13200,-4.3766,1.4533,9.6893,1502,2843.2
13205,1.136,3.292,9.9503,1514,2843.33
13210,2.4696,2.7066,11.078,1485,2843.33
13215,-1.4114,-0.8104,12.402,1493,2843.33
13220,-4.7321,0.6476,10.3884,1493,2843.33
13225,0.3244,3.0191,9.5684,1530,2843.74
13230,2.6863,3.4405,10.6973,1493,2843.74
13235,-1.324,0.0754,12.3026,1484,2843.74
13240,-4.5203,-0.2298,11.1785,1493,2843.74
13245,-0.899,2.7198,9.2093,1557,2843.6
13250,2.223,3.8068,10.4579,1492,2843.6
13255,-1.3491,0.8033,11.9746,1491,2843.6
13260,-3.6871,-0.9301,11.7567,1490,2843.6
13265,-2.3296,2.3774,9.1171,1533,2843.33
13270,1.8675,3.8247,10.3693,1496,2843.33
13275,-0.0718,1.4509,11.6622,1491,2843.33
13280,-2.6635,-1.3252,12.2487,1493,2843.33
13285,-3.5243,1.822,9.402,1493,2843.33
13290,1.2617,3.4943,10.0365,1496,2843.33
13295,1.6987,2.162,11.2875,1499,2843.33
13300,-1.6759,-1.251,12.3912,1485,2843.33
13305,-4.3323,1.0894,9.9611,1497,2843.33
13310,0.6955,3.1615,9.7995,1519,2843.47
13315,2.557,3.055,10.9271,1495,2843.47
13320,-1.2893,-0.4896,12.3002,1491,2843.47
13325,-4.5837,0.2454,10.6925,1493,2843.47
13330,-0.243,2.8994,9.4116,1541,2843.47
13335,2.4385,3.7002,10.5465,1494,2843.47
13340,-1.5323,0.401,12.1506,1491,2843.47
13345,-4.0893,-0.51,11.461,1490,2843.47
13350,-1.5335,2.6037,9.2117,1553,2843.6
13355,2.0351,3.8475,10.3382,1497,2843.6
13360,-0.9505,1.0523,11.8082,1485,2843.6
13365,-3.1244,-1.1672,11.9794,1495,2843.6
13370,-2.9066,2.0925,9.1973,1558,2843.47
13375,1.6137,3.632,10.1502,1487,2843.47
13380,0.8248,1.7514,11.4874,1497,2843.47
13385,-2.1787,-1.4054,12.2918,1491,2843.47
13390,-4.1683,1.4988,9.6223,1501,2843.47
13395,1.1504,3.3267,9.9443,1514,2843.33
13400,2.3308,2.6312,11.1187,1492,2843.33
13405,-1.5239,-0.9637,12.378,1494,2843.33
13410,-4.7716,0.7434,10.3082,1493,2843.33
13415,0.4489,3.1232,9.6175,1508,2843.6
13420,2.6923,3.4477,10.756,1490,2843.6
13425,-1.3455,-0.0395,12.3026,1485,2843.6
13430,-4.5921,-0.0682,11.0085,1497,2843.6
13435,-0.6644,2.7737,9.2416,1519,2843.06
13440,2.3451,3.7984,10.4758,1491,2843.06
13445,-1.4257,0.6764,11.9674,1492,2843.06
13450,-3.8223,-0.8823,11.7172,1487,2843.06
13455,-2.1608,2.3715,9.1638,1556,2844.14
13460,1.9046,3.8259,10.3657,1501,2844.14
13465,-0.2526,1.324,11.661,1495,2844.14
13470,-2.8311,-1.3946,12.1889,1499,2844.14
13475,-3.5829,1.9094,9.3446,1523,2843.47
13480,1.5323,3.5997,10.1825,1493,2843.47
13485,1.6544,2.1045,11.3282,1493,2843.47
13490,-1.834,-1.2905,12.3589,1479,2843.47
13495,-4.5035,1.2175,9.815,1501,2843.47
13500,0.8679,3.2238,9.821,1524,2843.87
13505,2.6492,2.9485,10.969,1490,2843.87
13510,-1.2594,-0.589,12.3684,1493,2843.87
13515,-4.7836,0.3663,10.5536,1491,2843.87
13520,-0.0168,2.9269,9.4667,1530,2843.74
13525,2.569,3.5662,10.6518,1496,2843.74
13530,-1.5167,0.2945,12.1721,1489,2843.74
13535,-4.3155,-0.4489,11.3868,1486,2843.74
13540,-1.3539,2.6396,9.1877,1553,2843.6
13545,2.0961,3.8607,10.4208,1499,2843.6
13550,-1.0858,1.0463,11.898,1490,2843.6
13555,-3.4417,-1.0846,11.9471,1491,2843.6
13560,-2.794,2.1955,9.1794,1553,2843.74
13565,1.8495,3.6907,10.2807,1487,2843.74
13570,0.6093,1.634,11.5041,1503,2843.74
13575,-2.3774,-1.4724,12.2906,1491,2843.74
13580,-4.0953,1.5694,9.499,1493,2843.74
13585,1.2989,3.3674,10.0078,1513,2843.87
13590,2.2218,2.4576,11.1498,1509,2843.87
13595,-1.5766,-1.0798,12.4115,1493,2843.87
13600,-4.7525,0.8775,10.161,1491,2843.87
13605,0.5914,3.1101,9.6391,1519,2844.28
13610,2.7054,3.3459,10.8014,1495,2844.28
13615,-1.3731,-0.1939,12.3792,1484,2844.28
13620,-4.6495,0.1101,10.914,1493,2844.28
13625,-0.5004,2.8635,9.2572,1531,2844.01
13630,2.4181,3.7781,10.501,1489,2844.01
13635,-1.3491,0.674,12.0979,1497,2844.01
13640,-4.0235,-0.7566,11.6059,1496,2844.01
13645,-1.8878,2.4241,9.086,1553,2845.35
13650,2.0506,3.7912,10.41,1496,2845.35
13655,-0.5351,1.2007,11.7053,1493,2845.35
13660,-3.0466,-1.3791,12.0548,1497,2845.35
13665,-3.3842,1.9357,9.2919,1555,2844.68
13670,1.5897,3.6033,10.2819,1490,2844.68
13675,1.2821,2.0255,11.406,1492,2844.68
13680,-2.0063,-1.3216,12.396,1487,2844.68
13685,-4.3586,1.3431,9.7971,1499,2844.68
13690,1.0092,3.2789,9.9204,1519,2844.82
13695,2.6025,2.8395,11.0049,1491,2844.82
13700,-1.3036,-0.6931,12.4103,1484,2844.82
13705,-4.7453,0.5339,10.4244,1491,2844.82
13710,0.1724,2.982,9.5445,1542,2844.95
13715,2.6947,3.4919,10.6722,1495,2844.95
13720,-1.4509,0.1245,12.1793,1491,2844.95
13725,-4.397,-0.3005,11.2204,1494,2844.95
13730,-1.0989,2.6755,9.1997,1555,2845.35
13735,2.2039,3.8475,10.3968,1497,2845.35
13740,-1.2797,0.917,11.971,1487,2845.35
13745,-3.5853,-0.9158,11.8513,1491,2845.35
13750,-2.4924,2.302,9.2057,1562,2846.03
13755,1.7621,3.7769,10.2077,1491,2846.03
13760,0.1748,1.5814,11.6167,1496,2846.03
13765,-2.5522,-1.3994,12.22,1489,2846.03
13770,-3.8547,1.7549,9.3829,1491,2846.03
13775,1.482,3.4453,10.0676,1518,2846.7
13780,2.0339,2.2984,11.3054,1495,2846.7
13785,-1.7274,-1.2582,12.4056,1487,2846.7
13790,-4.6651,1.0211,9.9204,1491,2846.7
13795,0.7853,3.1125,9.7157,1523,2847.79
13800,2.721,3.0813,10.896,1498,2847.79
13805,-1.4066,-0.4884,12.3493,1493,2847.79
13810,-4.7716,0.2813,10.7356,1491,2847.79
13815,-0.182,2.9293,9.4128,1527,2846.7
13820,2.5379,3.7373,10.6279,1493,2846.7
13825,-1.567,0.4286,12.147,1496,2846.7
13830,-4.1037,-0.4501,11.4742,1493,2846.7
13835,-1.4569,2.5809,9.1183,1553,2846.16
13840,2.0674,3.8523,10.4196,1493,2846.16
13845,-0.8703,1.0822,11.7735,1491,2846.16
13850,-3.1903,-1.1827,11.995,1499,2846.16
13855,-2.9724,2.0985,9.1614,1541,2845.49
13860,1.6472,3.6188,10.2915,1487,2845.49
13865,0.814,1.7274,11.497,1497,2845.49
13870,-2.2494,-1.4305,12.3409,1492,2845.49
13875,-4.2365,1.5646,9.6019,1501,2845.49
13880,1.1911,3.3363,10.0209,1509,2845.35
13885,2.3727,2.6408,11.1127,1493,2845.35
13890,-1.6089,-0.9325,12.4534,1491,2845.35
13895,-4.5753,0.7673,10.2448,1493,2845.35
13900,0.3819,3.055,9.6007,1531,2845.49
13905,2.6815,3.3232,10.6889,1493,2845.49
13910,-1.2067,-0.0311,12.2739,1485,2845.49
13915,-4.6017,-0.1053,11.0516,1501,2845.49
13920,-0.6668,2.7737,9.2763,1557,2845.09
13925,2.3715,3.7745,10.4962,1492,2845.09
13930,-1.3731,0.6668,12.0919,1494,2845.09
13935,-3.9696,-0.8619,11.6562,1492,2845.09
13940,-2.0818,2.4265,9.0597,1549,2844.68
13945,1.9094,3.8008,10.3681,1495,2844.68
13950,-0.3567,1.3312,11.7771,1495,2844.68
13955,-2.9209,-1.3168,12.1506,1495,2844.68
13960,-3.5255,1.9908,9.3194,1527,2845.22
13965,1.5634,3.5686,10.1766,1496,2845.22
13970,1.5886,2.0411,11.4036,1499,2845.22
13975,-1.8375,-1.318,12.3409,1485,2845.22
13980,-4.4616,1.233,9.7372,1501,2845.22
13985,0.9481,3.219,9.8222,1525,2844.68
13990,2.6791,2.8754,11.0002,1491,2844.68
13995,-1.4545,-0.6955,12.4068,1492,2844.68
14000,-4.6017,0.4513,10.5105,1485,2844.68
14005,-0.0335,2.9509,9.5062,1533,2844.28
14010,2.4983,3.6069,10.6111,1496,2844.28
14015,-1.4102,0.2502,12.2009,1487,2844.28
14020,-4.4377,-0.3136,11.3042,1486,2844.28
14025,-1.1995,2.6683,9.2021,1549,2843.47
14030,2.2541,3.8978,10.4543,1499,2843.47
14035,-1.1887,0.9601,11.8669,1490,2843.47
14040,-3.4309,-1.008,11.898,1491,2843.47
14045,-2.6528,2.2039,9.1387,1523,2843.33
14050,1.7382,3.7038,10.3034,1487,2843.33
14055,0.4262,1.6041,11.5317,1503,2843.33
14060,-2.4074,-1.4784,12.232,1491,2843.33
14065,-3.9971,1.6005,9.493,1496,2843.33
14070,1.3228,3.383,10.0844,1515,2843.06
14075,2.1344,2.4325,11.2049,1491,2843.06
14080,-1.6532,-1.0846,12.4187,1495,2843.06
14085,-4.616,0.9577,10.0856,1493,2843.06
14090,0.5626,3.1556,9.6774,1527,2843.2
14095,2.7545,3.2609,10.7428,1495,2843.2
14100,-1.2582,-0.2047,12.3421,1489,2843.2
14105,-4.6495,0.1317,10.9032,1499,2843.2
14110,-0.407,2.8407,9.3805,1555,2843.6
14115,2.4744,3.7074,10.4986,1489,2843.6
14120,-1.391,0.565,12.0943,1493,2843.6
14125,-4.0402,-0.7314,11.5879,1493,2843.6
14130,-1.8483,2.4541,9.1016,1553,2844.01
14135,1.9824,3.8044,10.3633,1495,2844.01
14140,-0.6345,1.1983,11.8034,1491,2844.01
14145,-3.1292,-1.2653,12.0668,1497,2844.01
14150,-3.3196,2.0243,9.2668,1559,2844.14
14155,1.5969,3.6081,10.2113,1493,2844.14
14160,1.2354,1.9884,11.4491,1498,2844.14
14165,-2.0686,-1.2989,12.305,1487,2844.14
14170,-4.1515,1.3994,9.7492,1500,2844.14
14175,0.9254,3.2382,9.8928,1524,2844.14
14180,2.5187,2.7617,11.0409,1495,2844.14
14185,-1.2821,-0.7757,12.3493,1481,2844.14
14190,-4.7369,0.5423,10.4208,1491,2844.14
14195,0.1784,3.0179,9.5277,1529,2844.14
14200,2.6049,3.5458,10.7236,1495,2844.14
14205,-1.4401,0.1185,12.2571,1489,2844.14
14210,-4.4999,-0.2406,11.2037,1491,2844.14
14215,-1.0235,2.7366,9.1842,1553,2844.14
14220,2.2446,3.8595,10.4375,1499,2844.14
14225,-1.2354,0.8966,11.9064,1491,2844.14
14230,-3.6595,-0.9337,11.7902,1492,2844.14
14235,-2.4457,2.3475,9.1231,1545,2843.6
14240,1.8878,3.7685,10.3106,1490,2843.6
14245,0.1748,1.476,11.576,1500,2843.6
14250,-2.5953,-1.4557,12.2152,1486,2843.6
14255,-3.8295,1.7238,9.3913,1494,2843.6
14260,1.4461,3.3998,10.1742,1519,2845.09
14265,1.8974,2.2338,11.3425,1495,2845.09
14270,-1.7274,-1.1899,12.4151,1491,2845.09
14275,-4.5969,1.0475,9.9742,1491,2845.09
14280,0.7254,3.2046,9.7683,1519,2844.28
14285,2.6324,3.122,10.8637,1496,2844.28
14290,-1.5526,-0.3879,12.3852,1489,2844.28
14295,-4.4484,0.322,10.756,1491,2844.28
14300,-0.2729,2.9473,9.3948,1524,2844.55
14305,2.3487,3.6691,10.4447,1493,2844.55
14310,-1.4126,0.4788,12.1769,1495,2844.55
14315,-3.9935,-0.5423,11.4922,1495,2844.55
14320,-1.5778,2.5223,9.1207,1529,2844.82
14325,1.9764,3.7816,10.3537,1493,2844.82
14330,0.7278,1.7442,11.5472,1490,2844.82
14335,-3.213,-1.233,12.0201,1499,2844.82
14340,-4.1647,1.5598,9.5852,1525,2844.82
14345,1.6472,3.6332,10.3118,1491,2844.82
14350,2.4134,2.6157,11.1737,1493,2844.82
14355,-1.6149,-0.9445,12.4403,1485,2844.82
14360,-4.4819,0.8356,10.2113,1501,2844.82
14365,0.3926,3.0598,9.6259,1523,2845.35
14370,2.6911,3.2801,10.7703,1492,2845.35
14375,-1.3264,-0.1604,12.2679,1485,2845.35
14380,-4.4915,-0.0527,10.9846,1493,2845.35
14385,-0.7015,2.7737,9.3099,1532,2845.35
14390,2.296,3.7948,10.5285,1495,2845.35
14395,-1.488,0.6596,12.0572,1485,2845.35
14400,-3.7757,-0.741,11.6993,1497,2845.35
14405,-2.0039,2.4157,9.1411,1557,2845.62
14410,1.8124,3.8547,10.3346,1494,2845.62
14415,-0.3735,1.2989,11.7292,1491,2845.62
14420,-2.8611,-1.2953,12.1937,1493,2845.62
14425,-3.4165,1.9956,9.3027,1519,2845.76
14430,1.5371,3.5889,10.1394,1495,2845.76
14435,1.5862,2.0063,11.3749,1495,2845.76
14440,-1.9884,-1.3024,12.3708,1486,2845.76
14445,-4.2138,1.2414,9.7923,1493,2845.76
14450,0.8511,3.2046,9.8557,1520,2845.62
14455,2.5055,2.8431,11.0157,1497,2845.62
14460,-1.3036,-0.7302,12.3625,1487,2845.62
14465,-4.8064,0.5674,10.5129,1492,2845.62
14470,0.1089,2.9963,9.499,1525,2845.76
14475,2.5953,3.6212,10.6602,1496,2845.76
14480,-1.6676,0.1999,12.2392,1489,2845.76
14485,-4.2306,-0.2382,11.2683,1491,2845.76
14490,-1.0726,2.7114,9.1638,1527,2845.62
14495,2.1308,3.8618,10.4112,1492,2845.62
14500,-1.2079,0.9002,11.9782,1497,2845.62
14505,-3.4405,-1.0355,11.8633,1490,2845.62
14510,-2.5474,2.2984,9.0992,1547,2844.68
14515,1.7597,3.6919,10.2975,1495,2844.68
14520,0.2682,1.5048,11.5867,1491,2844.68
14525,-2.5019,-1.4569,12.2272,1498,2844.68
14530,-3.8726,1.6628,9.4607,1517,2844.28
14535,1.2294,3.4153,10.0724,1487,2844.28
14540,2.0494,2.3619,11.2372,1498,2844.28
14545,-1.8639,-1.1265,12.3708,1487,2844.28
14550,-4.294,1.0738,10.0664,1500,2844.28
14555,0.5614,3.158,9.6857,1524,2844.28
14560,2.5702,3.1831,10.8242,1490,2844.28
14565,-1.2163,-0.2861,12.3696,1495,2844.28
14570,-4.6448,0.1221,10.8326,1495,2844.28
14575,-0.3112,2.8683,9.347,1529,2843.87
14580,2.4253,3.729,10.4962,1491,2843.87
14585,-1.6305,0.4465,12.123,1483,2843.87
14590,-3.9337,-0.6285,11.4395,1497,2843.87
14595,-1.6316,2.5031,9.1411,1557,2843.74
14600,1.822,3.7589,10.3681,1494,2843.74
14605,-0.7602,1.154,11.8441,1491,2843.74
14610,-3.0646,-1.233,12.0859,1493,2843.74
14615,-3.1412,2.0686,9.2273,1548,2843.87
14620,1.5886,3.6344,10.2041,1495,2843.87
14625,1.1684,1.8675,11.4191,1493,2843.87
14630,-2.0686,-1.4042,12.3325,1494,2843.87
14635,-4.2701,1.4317,9.6091,1525,2844.01
14640,1.1468,3.3196,9.93,1497,2844.01
14645,2.5522,2.7007,11.0133,1500,2844.01
14650,-1.561,-0.8464,12.3996,1487,2844.01
14655,-4.4951,0.6716,10.3202,1499,2844.01
14660,0.2047,2.9676,9.5433,1529,2843.87
14665,2.5151,3.4129,10.6674,1493,2843.87
14670,-1.3862,0.0551,12.2978,1492,2843.87
14675,-4.5442,-0.1784,11.1354,1491,2843.87
14680,-0.9182,2.7689,9.2512,1531,2844.01
14685,2.2972,3.899,10.4854,1497,2844.01
14690,-1.4305,0.7685,11.9698,1489,2844.01
14695,-3.6081,-0.832,11.7675,1488,2844.01
14700,-2.1967,2.2769,9.1459,1551,2843.87
14705,1.7238,3.7206,10.2639,1499,2843.87
14710,-0.0371,1.4329,11.631,1493,2843.87
14715,-2.6252,-1.3886,12.214,1493,2843.87
14720,-3.6524,1.8184,9.3817,1527,2843.74
14725,1.3479,3.4477,10.1239,1485,2843.74
14730,1.8352,2.2003,11.2743,1501,2843.74
14735,-1.8052,-1.2689,12.3672,1490,2843.74
14740,-4.6029,1.1253,9.9168,1495,2843.74
14745,0.7841,3.1627,9.7899,1515,2843.2
14750,2.6923,3.0849,10.9247,1493,2843.2
14755,-1.482,-0.4633,12.3732,1493,2843.2
14760,-4.4867,0.3771,10.7883,1485,2843.2
14765,-0.1832,2.9401,9.3673,1527,2843.6
14770,2.4708,3.6547,10.5297,1495,2843.6
14775,-1.4449,0.3615,12.1386,1484,2843.6
14780,-4.13,-0.5351,11.4275,1499,2843.6
14785,-1.5131,2.5606,9.1291,1555,2843.47
14790,2.0087,3.8271,10.4339,1491,2843.47
14795,-0.8823,1.0654,11.8453,1495,2843.47
14800,-3.2597,-1.172,12.0141,1493,2843.47
14805,-2.8587,2.0937,9.171,1557,2843.87
14810,1.5095,3.6476,10.2388,1499,2843.87
14815,0.8092,1.7549,11.4946,1491,2843.87
14820,-2.2278,-1.3827,12.3649,1501,2843.87
14825,-4.1492,1.5514,9.6067,1555,2844.41
14830,1.2043,3.383,9.9994,1491,2844.41
14835,2.4732,2.5977,11.0852,1497,2844.41
14840,-1.5933,-0.8859,12.3888,1484,2844.41
14845,-4.5406,0.7745,10.2592,1507,2844.41
14850,0.346,3.0406,9.5876,1525,2844.55
14855,2.6468,3.3375,10.7129,1493,2844.55
14860,-1.4533,-0.0742,12.3517,1485,2844.55
14865,-4.446,-0.0251,11.0397,1491,2844.55
14870,-0.7781,2.7869,9.3039,1529,2844.68
14875,2.2075,3.784,10.4722,1497,2844.68
14880,-1.4413,0.7051,12.0979,1491,2844.68
14885,-3.7649,-0.7554,11.6873,1491,2844.68
14890,-2.0782,2.4241,9.1686,1551,2844.55
14895,1.8268,3.7804,10.3406,1493,2844.55
14900,-0.2777,1.306,11.7148,1489,2844.55
14905,-2.7521,-1.3168,12.123,1493,2844.55
14910,-3.3507,1.8747,9.3194,1543,2843.6
14915,1.4305,3.5111,10.064,1490,2843.6
14920,1.555,2.0626,11.3437,1500,2843.6
14925,-1.8519,-1.3228,12.396,1491,2843.6
14930,-4.4089,1.2258,9.8246,1493,2843.6
14935,0.8487,3.2166,9.7839,1517,2844.55
14940,2.6049,2.9054,10.9978,1493,2844.55
14945,-1.4916,-0.6309,12.396,1491,2844.55
14950,-4.5861,0.5195,10.5548,1491,2844.55
14955,0.0108,3.0191,9.4511,1523,2844.28
14960,2.49,3.5997,10.5896,1495,2844.28
14965,-1.5311,0.2227,12.2463,1489,2844.28
14970,-4.2318,-0.3747,11.3617,1491,2844.28
14975,-1.257,2.6803,9.1231,1519,2844.28
14980,2.1009,3.8223,10.3549,1487,2844.28
14985,-1.0702,0.9266,11.9004,1494,2844.28
14990,-3.377,-1.0523,11.9267,1493,2844.28
14995,-2.6767,2.1967,9.1506,1530,2844.28
15000,1.652,3.6763,10.3154,1485,2844.28
15005,0.5231,1.5886,11.5963,1489,2844.28
15010,-2.5235,-1.3838,12.2583,1499,2844.28
15015,-3.8774,1.6831,9.4954,1517,2844.28
15020,1.2234,3.4105,10.0545,1491,2844.28
15025,2.1763,2.4289,11.1917,1495,2844.28
15030,-1.5838,-1.0307,12.3936,1486,2844.28
15035,-4.6388,0.9373,10.1275,1501,2844.28
15040,0.5914,3.1627,9.7061,1524,2844.28
15045,2.7354,3.2286,10.8254,1493,2844.28
15050,-1.4198,-0.2646,12.2978,1487,2844.28
15055,-4.549,0.0874,10.8733,1491,2844.28
15060,-0.5016,2.8168,9.2668,1533,2844.41
15065,2.332,3.7254,10.5309,1497,2844.41
15070,-1.5191,0.5507,12.1506,1485,2844.41
15075,-3.9552,-0.6859,11.6179,1493,2844.41
15080,-1.8196,2.496,9.1542,1555,2844.41
15085,1.8651,3.8415,10.3406,1492,2844.41
15090,-0.577,1.1959,11.7687,1485,2844.41
15095,-3.061,-1.2953,12.0883,1494,2844.41
15100,-3.322,2.0698,9.2344,1560,2844.55
15105,1.6652,3.6045,10.2041,1493,2844.55
15110,1.3384,1.9118,11.4479,1491,2844.55
15115,-2.0758,-1.3396,12.3529,1484,2844.55
15120,-4.2533,1.4174,9.7229,1490,2844.55
15125,0.9852,3.237,9.8617,1524,2844.01
15130,2.5367,2.7258,11.0744,1495,2844.01
15135,-1.3455,-0.82,12.3505,1487,2844.01
15140,-4.792,0.6393,10.3154,1487,2844.01
15145,0.1987,3.0287,9.5421,1525,2843.87
15150,2.6612,3.5075,10.6901,1499,2843.87
15155,-1.5431,0.0958,12.2882,1491,2843.87
15160,-4.4317,-0.2071,11.1989,1491,2843.87
15165,-0.972,2.7354,9.1494,1519,2843.6
15170,2.2218,3.8056,10.4256,1491,2843.6
15175,-1.3204,0.832,11.9842,1495,2843.6
15180,-3.5039,-0.929,11.8417,1491,2843.6
15185,-2.381,2.3224,9.1459,1554,2843.6
15190,1.7657,3.7182,10.2795,1490,2843.6
15195,0.1676,1.4808,11.5963,1491,2843.6
15200,-2.5594,-1.3982,12.226,1499,2843.6
15205,-3.8499,1.7741,9.3685,1559,2843.6
15210,1.3731,3.4429,10.0844,1485,2843.6
15215,2.0482,2.296,11.2228,1497,2843.6
15220,-1.7789,-1.1851,12.3421,1491,2843.6
15225,-4.6866,1.093,9.9958,1507,2843.6
15230,0.7901,3.1867,9.7851,1525,2843.74
15235,2.7653,3.1436,10.8338,1491,2843.74
15240,-1.4365,-0.316,12.408,1491,2843.74
15245,-4.707,0.2502,10.6997,1493,2843.74
15250,-0.2155,2.9293,9.3877,1542,2844.01
15255,2.4972,3.626,10.5177,1493,2844.01
15260,-1.5227,0.3891,12.1506,1486,2844.01
15265,-4.1228,-0.6081,11.4203,1497,2844.01
15270,-1.6328,2.569,9.1051,1554,2844.28
15275,1.9968,3.7948,10.3968,1491,2844.28
15280,-0.7614,1.1145,11.8465,1491,2844.28
15285,-3.3267,-1.227,12.0141,1491,2844.28
15290,-3.1436,2.138,9.2249,1545,2844.14
15295,1.6987,3.6919,10.2879,1497,2844.14
15300,1.002,1.7957,11.4682,1492,2844.14
15305,-2.217,-1.3467,12.2918,1485,2844.14
15310,-4.0893,1.5071,9.6067,1494,2844.14
15315,1.0774,3.3351,9.9491,1523,2844.41
15320,2.4169,2.5977,11.1594,1492,2844.41
15325,-1.403,-0.8547,12.3852,1487,2844.41
15330,-4.7872,0.7578,10.2963,1495,2844.41
15335,0.425,3.0347,9.584,1523,2844.41
15340,2.6911,3.3639,10.7811,1497,2844.41
15345,-1.5359,-0.079,12.3122,1491,2844.41
15350,-4.4724,-0.0599,11.0636,1493,2844.41
15355,-0.8607,2.7701,9.2213,1527,2844.28
15360,2.2051,3.8475,10.5034,1493,2844.28
15365,-1.3276,0.7626,12.0907,1493,2844.28
15370,-3.8654,-0.8224,11.728,1491,2844.28
15375,-2.2134,2.4134,9.0896,1549,2844.68
15380,1.9896,3.8044,10.3394,1497,2844.68
15385,-0.1341,1.3635,11.6167,1489,2844.68
15390,-2.7785,-1.3623,12.159,1493,2844.68
15395,-3.5757,1.8399,9.3063,1557,2844.41
15400,1.4772,3.4692,10.1514,1489,2844.41
15405,1.7262,2.0901,11.3174,1507,2844.41
15410,-1.8998,-1.3024,12.3553,1491,2844.41
15415,-4.6244,1.221,9.8234,1503,2844.41
15420,0.8954,3.2118,9.8162,1517,2845.35
15425,2.6863,2.9616,10.9702,1493,2845.35
15430,-1.4413,-0.5495,12.4558,1493,2845.35
15435,-4.7681,0.4645,10.6171,1493,2845.35
15440,0.0144,3.0059,9.4715,1514,2844.82
15445,2.6228,3.6093,10.5788,1495,2844.82
15450,-1.4509,0.3172,12.214,1481,2844.82
15455,-4.2856,-0.3711,11.3174,1499,2844.82
15460,-1.2953,2.6516,9.1494,1533,2844.55
15465,2.1368,3.7924,10.4244,1493,2844.55
15470,-1.0463,0.9469,11.9315,1493,2844.55
15475,-3.4608,-1.1564,11.9531,1494,2844.55
15480,-2.8024,2.1775,9.1183,1553,2845.62
15485,1.7071,3.6272,10.2735,1499,2845.62
15490,0.6381,1.6197,11.6119,1491,2845.62
15495,-2.4684,-1.409,12.2799,1495,2845.62
15500,-4.1168,1.6927,9.4978,1559,2844.82
15505,1.3587,3.3938,10.0281,1493,2844.82
15510,2.3044,2.4493,11.2348,1496,2844.82
15515,-1.5921,-1.0163,12.4271,1483,2844.82
15520,-4.7022,0.9122,10.0904,1499,2844.82
15525,0.6189,3.0658,9.6702,1525,2844.95
15530,2.8024,3.1987,10.8134,1491,2844.95
15535,-1.4509,-0.2119,12.2823,1485,2844.95
15540,-4.5059,0.0814,10.914,1485,2844.95
15545,-0.5794,2.818,9.3099,1531,2844.95
15550,2.2613,3.6823,10.5225,1496,2844.95
15555,-1.4293,0.559,12.1087,1485,2844.95
15560,-4.0366,-0.7302,11.6215,1491,2844.95
15565,-1.9417,2.5498,9.1147,1549,2845.22
15570,2.0351,3.9049,10.3693,1496,2845.22
15575,-0.498,1.2318,11.7543,1487,2845.22
15580,-3.049,-1.2462,12.0907,1490,2845.22
15585,-3.322,1.9884,9.2165,1527,2844.95
15590,1.7274,3.6009,10.1957,1490,2844.95
15595,1.3946,1.8962,11.3569,1499,2844.95
15600,-2.0243,-1.4198,12.3529,1485,2844.95
15605,-4.3814,1.312,9.7049,1491,2844.95
15610,1.0439,3.2573,9.9383,1513,2845.22
15615,2.5618,2.7605,10.9607,1493,2845.22
15620,-1.4425,-0.808,12.463,1492,2845.22
15625,-4.8111,0.6105,10.3681,1485,2845.22
15630,0.2119,3.0347,9.4954,1523,2844.82
15635,2.6085,3.5554,10.6374,1497,2844.82
15640,-1.5299,0.1413,12.3122,1485,2844.82
15645,-4.4353,-0.1664,11.2049,1491,2844.82
15650,-0.9553,2.7402,9.2165,1509,2844.95
15655,2.3104,3.8523,10.4902,1493,2844.95
15660,-1.2737,0.8164,11.9423,1491,2844.95
15665,-3.5925,-0.9685,11.8441,1491,2844.95
15670,-2.4852,2.2398,9.098,1545,2844.95
15675,1.7909,3.6775,10.3166,1487,2844.95
15680,0.2047,1.4473,11.6693,1486,2844.95
15685,-2.642,-1.4281,12.2559,1499,2844.95
15690,-3.8116,1.7741,9.3853,1533,2844.68
15695,1.3827,3.4692,10.1179,1491,2844.68
15700,1.9848,2.2984,11.2504,1492,2844.68
15705,-1.7909,-1.1456,12.3708,1487,2844.68
15710,-4.6352,1.1325,9.9108,1501,2844.68
15715,0.8272,3.1735,9.7312,1525,2846.16
15720,2.7713,3.1292,10.89,1496,2846.16
15725,-1.3683,-0.3831,12.3649,1483,2846.16
15730,-4.7046,0.2729,10.6757,1485,2846.16
15735,-0.1915,2.8826,9.3817,1531,2845.49
15740,2.4983,3.5937,10.5764,1493,2845.49
15745,-1.5335,0.3579,12.1302,1483,2845.49
15750,-4.1252,-0.577,11.4706,1491,2845.49
15755,-1.5754,2.5666,9.165,1553,2845.62
15760,1.9776,3.8403,10.4291,1493,2845.62
15765,-0.8679,1.0882,11.8716,1485,2845.62
15770,-3.2549,-1.1564,12.0333,1490,2845.62
15775,-2.9449,2.1476,9.1758,1520,2845.49
15780,1.6161,3.6631,10.2017,1497,2845.49
15785,0.9074,1.7394,11.4838,1489,2845.49
15790,-2.2434,-1.391,12.3289,1487,2845.49
15795,-3.9983,1.5287,9.5948,1489,2845.49
15800,1.1097,3.31,9.8737,1527,2845.89
15805,2.3667,2.5319,11.1043,1496,2845.89
15810,-1.4341,-0.978,12.3876,1483,2845.89
15815,-4.7453,0.7697,10.2113,1490,2845.89
15820,0.431,3.0658,9.5828,1519,2845.62
15825,2.6444,3.3411,10.7512,1501,2845.62
15830,-1.4413,-0.0754,12.3433,1491,2845.62
15835,-4.6735,0.0611,11.0121,1493,2845.62
15840,-0.6369,2.8659,9.2488,1524,2845.62
15845,2.3355,3.8164,10.4746,1493,2845.62
15850,-1.5275,0.735,12.0644,1499,2845.62
15855,-3.7457,-0.7602,11.722,1487,2845.62
15860,-2.0853,2.4385,9.0585,1553,2845.35
15865,1.9082,3.7409,10.2663,1496,2845.35
15870,-0.1879,1.2498,11.734,1491,2845.35
15875,-2.824,-1.3563,12.0883,1499,2845.35
15880,-3.383,1.907,9.2967,1525,2844.95
15885,1.391,3.4668,10.1909,1487,2844.95
15890,1.4988,1.9764,11.3868,1497,2844.95
15895,-1.9058,-1.2917,12.3433,1491,2844.95
15900,-4.3766,1.3132,9.8246,1503,2844.95
15905,0.8511,3.2645,9.8138,1518,2844.95
15910,2.5678,2.9209,11.0456,1492,2844.95
15915,-1.391,-0.5854,12.3876,1493,2844.95
15920,-4.7561,0.565,10.4627,1493,2844.95
15925,0.1401,2.9916,9.4236,1528,2844.82
15930,2.6348,3.5314,10.5788,1493,2844.82
15935,-1.4808,0.1999,12.2691,1485,2844.82
15940,-4.3299,-0.4106,11.2946,1496,2844.82
15945,-1.2055,2.6348,9.1818,1553,2844.55
15950,2.162,3.7601,10.4052,1493,2844.55
15955,-1.1492,0.8523,11.91,1493,2844.55
15960,-3.4441,-1.0858,11.874,1491,2844.55
15965,-2.6612,2.2757,9.1758,1555,2844.41
15970,1.7154,3.7876,10.3094,1495,2844.41
15975,0.4609,1.5562,11.6478,1491,2844.41
15980,-2.4505,-1.3563,12.3098,1495,2844.41
15985,-3.9732,1.7166,9.4152,1523,2844.68
15990,1.3862,3.4201,10.0437,1492,2844.68
15995,2.2302,2.3523,11.1797,1495,2844.68
16000,-1.6149,-1.1133,12.3996,1485,2844.68
16005,-4.6926,0.9828,10.0329,1499,2844.68
16010,0.6752,3.0933,9.6905,1519,2844.28
16015,2.6887,3.14,10.8804,1492,2844.28
16020,-1.5071,-0.3256,12.3194,1486,2844.28
16025,-4.5226,0.1616,10.835,1487,2844.28
16030,-0.4166,2.873,9.2943,1529,2844.28
16035,2.2805,3.7302,10.4818,1495,2844.28
16040,-1.5479,0.5399,12.1254,1485,2844.28
16045,-3.8714,-0.5399,11.5556,1486,2844.28
16050,-1.7178,2.5247,9.147,1553,2844.28
16055,1.962,3.8678,10.3094,1497,2844.28
16060,-0.5866,1.2186,11.7519,1489,2844.28
16065,-2.9628,-1.2498,12.0656,1493,2844.28
16070,-3.2394,1.9752,9.1973,1554,2844.28
16075,1.6101,3.5267,10.2137,1487,2844.28
16080,1.2713,1.8423,11.4299,1502,2844.28
16085,-2.211,-1.4126,12.3014,1491,2844.28
16090,-4.1324,1.3755,9.7169,1492,2844.28
16095,0.9409,3.2932,9.9623,1511,2844.14
16100,2.3236,2.7533,11.0852,1496,2844.14
16105,-1.5215,-0.7733,12.3864,1494,2844.14
16110,-4.5969,0.7063,10.416,1492,2844.14
16115,0.2298,3.067,9.5301,1522,2844.41
16120,2.6169,3.468,10.653,1493,2844.41
16125,-1.4377,0.1269,12.2607,1491,2844.41
16130,-4.2952,-0.1484,11.1546,1493,2844.41
16135,-0.9373,2.739,9.177,1542,2843.87
16140,2.1955,3.7469,10.4291,1493,2843.87
16145,-1.2725,0.7757,11.9794,1496,2843.87
16150,-3.5949,-0.929,11.7807,1493,2843.87
16155,-2.3954,2.3308,9.1303,1549,2845.22
16160,1.731,3.7421,10.3214,1495,2845.22
16165,0.0874,1.4138,11.6861,1491,2845.22
16170,-2.715,-1.3767,12.2332,1497,2845.22
16175,-3.8295,1.8818,9.3565,1557,2845.09
16180,1.5263,3.5099,10.1011,1487,2845.09
16185,1.9716,2.2362,11.2923,1491,2845.09
16190,-1.8136,-1.1696,12.4714,1485,2845.09
16195,-4.64,1.1588,9.9539,1501,2845.09
16200,0.8631,3.1544,9.7456,1527,2844.95
16205,2.7617,2.9951,10.9379,1495,2844.95
16210,-1.4724,-0.492,12.3912,1482,2844.95
16215,-4.6196,0.2286,10.6805,1493,2844.95
16220,-0.2155,2.8862,9.3506,1533,2845.09
16225,2.3703,3.632,10.6039,1491,2845.09
16230,-1.5826,0.3855,12.2224,1484,2845.09
16235,-4.1468,-0.4669,11.4407,1493,2845.09
16240,-1.5299,2.63,9.1351,1555,2845.35
16245,2.0387,3.8942,10.3585,1494,2845.35
16250,-0.8859,1.069,11.8908,1491,2845.35
16255,-3.219,-1.1001,12.0069,1491,2845.35
16260,-2.8371,2.1404,9.1686,1545,2845.62
16265,1.6735,3.6835,10.1813,1493,2845.62
16270,0.8751,1.6807,11.4874,1493,2845.62
16275,-2.2841,-1.4054,12.2739,1485,2845.62
16280,-3.9756,1.5155,9.5565,1491,2845.62
16285,1.0894,3.3184,10.0018,1517,2845.62
16290,2.2374,2.4948,11.1701,1495,2845.62
16295,-1.6305,-0.9756,12.463,1485,2845.62
16300,-4.5933,0.8715,10.1873,1491,2845.62
16305,0.3915,3.1149,9.681,1526,2845.62
16310,2.5965,3.3423,10.8338,1499,2845.62
16315,-1.5622,-0.1257,12.3038,1493,2845.62
16320,-4.361,0.0862,10.9451,1491,2845.62
16325,-0.5866,2.824,9.2476,1515,2845.35
16330,2.3284,3.7733,10.5189,1486,2845.35
16335,-1.3551,0.6321,12.0895,1491,2845.35
16340,-3.711,-0.7841,11.7328,1491,2845.35
16345,-2.0135,2.4181,9.104,1550,2845.22
16350,1.8663,3.7541,10.3202,1495,2845.22
16355,-0.328,1.2258,11.7172,1491,2845.22
16360,-2.9377,-1.3168,12.1278,1499,2845.22
16365,-3.3363,1.9632,9.317,1560,2845.09
16370,1.3455,3.5662,10.1837,1487,2845.09
16375,1.3755,2.0291,11.4622,1497,2845.09
16380,-1.998,-1.2462,12.3481,1487,2845.09
16385,-4.3586,1.3683,9.815,1503,2845.09
16390,0.9361,3.2729,9.8114,1525,2845.09
16395,2.624,2.8886,10.9966,1489,2845.09
16400,-1.5562,-0.6512,12.3732,1491,2845.09
16405,-4.44,0.5303,10.5153,1491,2845.09
16410,0.0431,2.9497,9.4511,1531,2844.95
16415,2.4541,3.4764,10.6482,1492,2844.95
16420,-1.4868,0.1664,12.2356,1487,2844.95
16425,-4.2796,-0.3184,11.2695,1499,2844.95
16430,-1.148,2.6803,9.1614,1556,2845.09
16435,2.1213,3.8391,10.4842,1492,2845.09
16440,-1.251,0.8787,11.9351,1491,2845.09
16445,-3.4357,-0.9673,11.9147,1487,2845.09
16450,-2.4361,2.2817,9.1818,1555,2844.95
16455,1.7083,3.7266,10.3298,1496,2844.95
16460,0.3795,1.5359,11.5855,1493,2844.95
16465,-2.4349,-1.4162,12.2344,1493,2844.95
16470,-3.8379,1.719,9.4403,1496,2844.55
16475,1.3408,3.3938,10.0245,1495,2844.55
16480,2.132,2.2924,11.2575,1501,2844.55
16485,-1.7322,-1.1744,12.408,1485,2844.55
16490,-4.4484,1.0116,10.0664,1497,2844.55
16495,0.5698,3.1292,9.7145,1520,2844.82
16500,2.5379,3.152,10.8589,1494,2844.82
16505,-1.5215,-0.328,12.3696,1493,2844.82
16510,-4.4867,0.2933,10.8697,1491,2844.82
16515,-0.3891,2.9042,9.3541,1530,2844.68
16520,2.3296,3.7218,10.4675,1495,2844.68
16525,-1.4904,0.5495,12.129,1490,2844.68
16530,-3.9373,-0.5531,11.5161,1492,2844.68
16535,-1.6652,2.5582,9.1051,1553,2844.95
16540,2.0159,3.7709,10.3058,1498,2844.95
16545,-0.7039,1.1181,11.7902,1487,2844.95
16550,-3.0119,-1.245,12.0452,1495,2844.95
16555,-3.067,1.998,9.2596,1513,2845.35
16560,1.5071,3.5482,10.1658,1489,2845.35
16565,1.0391,1.804,11.5401,1500,2845.35
16570,-2.2075,-1.3515,12.3469,1493,2845.35
16575,-4.2102,1.4688,9.6642,1495,2845.35
16580,1.0139,3.3483,9.9419,1512,2845.49
16585,2.387,2.6827,11.0923,1489,2845.49
16590,-1.5455,-0.7925,12.4247,1494,2845.49
16595,-4.5813,0.7219,10.3046,1491,2845.49
16600,0.2777,3.0502,9.4894,1524,2845.76
16605,2.6803,3.395,10.6865,1495,2845.76
16610,-1.4976,0.006,12.3086,1485,2845.76
16615,-4.2904,-0.1245,11.1199,1495,2845.76
16620,-0.8954,2.8036,9.2105,1515,2846.16
16625,2.1069,3.7781,10.4483,1491,2846.16
16630,-1.3312,0.6943,12.0536,1495,2846.16
16635,-3.7577,-0.8667,11.7687,1493,2846.16
16640,-2.2386,2.4002,9.1351,1557,2846.57
16645,1.8794,3.784,10.2759,1491,2846.57
16650,-0.0563,1.3288,11.6861,1491,2846.57
16655,-2.7497,-1.3012,12.2344,1498,2846.57
16660,-3.4728,1.889,9.3805,1559,2846.7
16665,1.4222,3.5027,10.0999,1487,2846.7
16670,1.7394,2.083,11.2791,1492,2846.7
16675,-1.8435,-1.2689,12.4415,1483,2846.7
16680,-4.4784,1.1756,9.815,1501,2846.7
16685,0.7913,3.1831,9.7624,1525,2846.84
16690,2.648,2.9161,10.9235,1493,2846.84
16695,-1.5419,-0.577,12.3984,1485,2846.84
16700,-4.549,0.4106,10.6063,1491,2846.84
16705,-0.0982,2.9473,9.42,1530,2847.11
16710,2.3942,3.565,10.5788,1495,2847.11
16715,-1.5514,0.3124,12.1506,1487,2847.11
16720,-4.1911,-0.34,11.3665,1495,2847.11
16725,-1.257,2.6815,9.1423,1555,2847.38
16730,2.1679,3.8283,10.3896,1491,2847.38
16735,-1.0271,0.9577,11.9112,1487,2847.38
16740,-3.3615,-1.0427,11.8836,1482,2847.38
16745,-2.6169,2.1907,9.1099,1558,2846.7
16750,1.719,3.6619,10.2556,1493,2846.7
16755,0.5303,1.5586,11.6083,1493,2846.7
16760,-2.4373,-1.4269,12.2894,1487,2846.7
16765,-3.9373,1.6544,9.499,1491,2846.7
16770,1.2246,3.3543,10.0209,1520,2846.3
16775,2.1416,2.4134,11.2204,1491,2846.3
16780,-1.81,-1.1049,12.3984,1491,2846.3
16785,-4.4616,1.0247,10.1179,1491,2846.3
16790,0.5016,3.1412,9.6175,1518,2846.03
16795,2.6288,3.1999,10.8745,1497,2846.03
16800,-1.3791,-0.2825,12.3984,1490,2846.03
16805,-4.537,0.1544,10.805,1494,2846.03
16810,-0.419,2.903,9.2632,1528,2846.03
16815,2.399,3.7074,10.4842,1494,2846.03
16820,-1.5119,0.4645,12.1398,1497,2846.03
16825,-3.8283,-0.6536,11.552,1494,2846.03
16830,-1.7071,2.5127,9.0944,1551,2846.03
16835,1.8663,3.7649,10.3837,1494,2846.03
16840,-0.5734,1.1468,11.8022,1487,2846.03
16845,-3.0754,-1.2737,12.0847,1498,2846.03
16850,-3.1711,2.0865,9.2165,1523,2845.76
16855,1.67,3.6452,10.2041,1489,2845.76
16860,1.2366,1.8962,11.4479,1499,2845.76
16865,-2.1189,-1.2953,12.3254,1490,2845.76
16870,-4.1372,1.4317,9.7336,1503,2845.76
16875,0.9996,3.2741,9.8653,1524,2845.76
16880,2.4457,2.6408,11.0887,1495,2845.76
16885,-1.4365,-0.7829,12.4451,1491,2845.76
16890,-4.6196,0.6464,10.2771,1491,2845.76
16895,0.2286,3.0311,9.5205,1530,2845.49
16900,2.5534,3.4046,10.6626,1496,2845.49
16905,-1.5299,0.0395,12.3002,1485,2845.49
16910,-4.4484,-0.1149,11.1199,1499,2845.49
16915,-0.9074,2.7988,9.244,1549,2845.35
16920,2.1775,3.8391,10.4375,1487,2845.35
16925,-1.385,0.7302,12.0069,1493,2845.35
16930,-3.5805,-0.8224,11.734,1491,2845.35
16935,-2.2458,2.3559,9.1614,1555,2845.35
16940,1.8459,3.7649,10.2496,1497,2845.35
16945,-0.0108,1.403,11.7064,1491,2845.35
16950,-2.624,-1.4102,12.2056,1497,2845.35
16955,-3.7062,1.7717,9.3362,1529,2845.62
16960,1.5,3.4477,10.1227,1493,2845.62
16965,1.8304,2.1105,11.2899,1499,2845.62
16970,-1.9321,-1.2965,12.3756,1491,2845.62
16975,-4.4017,1.1624,9.9551,1501,2845.62
16980,0.7709,3.2394,9.8689,1525,2845.35
16985,2.5893,3.0215,10.9283,1491,2845.35
16990,-1.3767,-0.4992,12.3732,1491,2845.35
16995,-4.7704,0.4573,10.5704,1491,2845.35
17000,-0.0802,2.9904,9.4116,1533,2845.49
17005,2.6133,3.6081,10.6243,1499,2845.49
17010,-1.5107,0.3196,12.2068,1490,2845.49
17015,-4.2569,-0.4561,11.4311,1491,2845.49
17020,-1.3156,2.6145,9.1662,1549,2845.49
17025,2.156,3.7625,10.4339,1498,2845.49
17030,-0.9816,0.9206,11.8214,1489,2845.49
17035,-3.4081,-1.1097,11.9507,1491,2845.49
17040,-2.8443,2.1979,9.159,1541,2845.35
17045,1.7442,3.6284,10.307,1491,2845.35
17050,0.7362,1.6233,11.5796,1501,2845.35
17055,-2.4457,-1.3958,12.3373,1487,2845.35
17060,-4.1144,1.6819,9.4942,1493,2845.35
17065,1.3384,3.3794,10.0185,1524,2845.09
17070,2.3415,2.466,11.1594,1491,2845.09
17075,-1.6053,-0.9936,12.4427,1493,2845.09
17080,-4.701,0.9469,10.1382,1491,2845.09
17085,0.5614,3.0993,9.6462,1523,2845.62
17090,2.739,3.2561,10.8002,1495,2845.62
17095,-1.5024,-0.158,12.3289,1484,2845.62
17100,-4.555,0.0287,10.8972,1495,2845.62
17105,-0.5997,2.8192,9.2404,1513,2845.09
17110,2.3116,3.7242,10.4986,1493,2845.09
17115,-1.3563,0.6213,12.0764,1495,2845.09
17120,-4.0725,-0.7769,11.6622,1487,2845.09
17125,-1.9285,2.4708,9.0884,1548,2845.35
17130,2.0578,3.8415,10.4267,1487,2845.35
17135,-0.4501,1.2402,11.7519,1491,2845.35
17140,-3.0239,-1.2917,12.0919,1497,2845.35
17145,-3.3662,2.0231,9.2715,1558,2845.22
17150,1.6676,3.5602,10.1754,1491,2845.22
17155,1.4365,1.9405,11.412,1495,2845.22
17160,-2.0339,-1.3431,12.3337,1485,2845.22
17165,-4.4664,1.3659,9.7037,1499,2845.22
17170,1.0953,3.2633,9.8497,1531,2845.22
17175,2.6264,2.7677,11.0289,1489,2845.22
17180,-1.4533,-0.7039,12.4091,1491,2845.22
17185,-4.7776,0.6285,10.4184,1495,2845.22
17190,0.1999,3.0406,9.5062,1541,2845.62
17195,2.6552,3.4931,10.6434,1493,2845.62
17200,-1.4126,0.1748,12.2344,1490,2845.62
17205,-4.4676,-0.1891,11.1462,1495,2845.62
17210,-1.0331,2.7557,9.1267,1554,2845.62
17215,2.3068,3.8223,10.4184,1493,2845.62
17220,-1.1887,0.8739,11.886,1481,2845.62
17225,-3.6404,-1.0032,11.8166,1489,2845.62
17230,-2.478,2.314,9.0465,1524,2845.76
17235,1.8543,3.7062,10.2424,1493,2845.76
17240,0.2251,1.4676,11.6227,1494,2845.76
17245,-2.6121,-1.4329,12.2607,1487,2845.76
17250,-3.8511,1.7968,9.3901,1491,2845.76
17255,1.3827,3.4465,10.0808,1523,2845.62
17260,1.9513,2.3032,11.2911,1497,2845.62
17265,-1.7466,-1.1169,12.4379,1483,2845.62
17270,-4.604,1.1241,10.0066,1491,2845.62
17275,0.7326,3.1867,9.736,1519,2846.3
17280,2.715,3.0969,10.8721,1500,2846.3
17285,-1.3551,-0.3579,12.3972,1493,2846.3
17290,-4.7645,0.2478,10.6841,1491,2846.3
17295,-0.1867,2.9245,9.341,1523,2846.3
17300,2.5678,3.6464,10.5836,1493,2846.3
17305,-1.6197,0.3867,12.1578,1509,2846.3
17310,-4.051,-0.5231,11.4467,1494,2846.3
17315,-1.5371,2.5127,9.1219,1553,2846.43
17320,1.9848,3.8211,10.2903,1497,2846.43
17325,-0.8224,1.0726,11.874,1493,2846.43
17330,-3.2908,-1.1923,12.0189,1497,2846.43
17335,-3.0083,2.1943,9.1937,1555,2846.7
17340,1.7633,3.7038,10.2232,1493,2846.7
17345,0.9266,1.7274,11.5017,1499,2846.7
17350,-2.3284,-1.3886,12.311,1493,2846.7
17355,-4.1958,1.5622,9.5541,1501,2846.7
17360,1.3264,3.3387,9.9288,1515,2846.7
17365,2.4385,2.5414,11.1175,1492,2846.7
17370,-1.5502,-0.9828,12.4068,1495,2846.7
17375,-4.7429,0.8511,10.2185,1488,2846.7
17380,0.4752,3.0837,9.6103,1519,2846.57
17385,2.6851,3.3387,10.7631,1495,2846.57
17390,-1.4365,-0.1437,12.3505,1485,2846.57
17395,-4.6436,0.0503,11.0014,1496,2846.57
17400,-0.5926,2.8216,9.1866,1554,2847.11
17405,2.411,3.7733,10.5165,1491,2847.11
17410,-1.3922,0.6536,12.0548,1494,2847.11
17415,-3.9564,-0.7865,11.6634,1491,2847.11
17420,-1.992,2.4804,9.0453,1555,2846.7
17425,2.0159,3.7888,10.3142,1496,2846.7
17430,-0.3627,1.2366,11.6765,1491,2846.7
17435,-2.9078,-1.3252,12.1518,1495,2846.7
17440,-3.4512,1.9178,9.2644,1529,2846.3
17445,1.5479,3.4632,10.1837,1491,2846.3
17450,1.5119,1.9597,11.3796,1495,2846.3
17455,-2.0327,-1.3276,12.3577,1487,2846.3
17460,-4.5119,1.3886,9.7683,1501,2846.3
17465,1.0678,3.2908,9.8964,1527,2846.03
17470,2.6348,2.8802,11.0002,1492,2846.03
17475,-1.5826,-0.6225,12.4115,1485,2846.03
17480,-4.6208,0.583,10.5441,1492,2846.03
17485,0.1089,3.0358,9.4607,1531,2846.16
17490,2.5702,3.5039,10.6817,1491,2846.16
17495,-1.3527,0.2035,12.2128,1490,2846.16
17500,-4.4652,-0.3232,11.1737,1493,2846.16
17505,-1.0558,2.7078,9.1506,1554,2846.03
17510,2.223,3.8008,10.4208,1500,2846.03
17515,-1.2366,0.8224,11.9531,1491,2846.03
17520,-3.6248,-1.0451,11.8693,1491,2846.03
17525,-2.5642,2.2793,9.1447,1527,2845.76
17530,1.7789,3.6895,10.3178,1491,2845.76
17535,0.3376,1.4641,11.631,1496,2845.76
17540,-2.5355,-1.385,12.2583,1484,2845.76
17545,-3.8846,1.8292,9.3937,1491,2845.76
17550,1.4174,3.4524,10.0916,1525,2845.89
17555,2.1284,2.2781,11.2336,1496,2845.89
17560,-1.6891,-1.1145,12.4103,1486,2845.89
17565,-4.6878,1.0882,9.9874,1487,2845.89
17570,0.7973,3.1663,9.7288,1525,2845.89
17575,2.7641,3.0993,10.8445,1497,2845.89
17580,-1.6269,-0.3807,12.3672,1491,2845.89
17585,-4.4197,0.3089,10.7751,1481,2845.89
17590,-0.3352,2.8611,9.3494,1514,2845.62
17595,2.2482,3.6739,10.5656,1493,2845.62
17600,-1.5275,0.4226,12.153,1496,2845.62
17605,-4.0151,-0.5016,11.5077,1491,2845.62
17610,-1.5455,2.5426,9.1722,1553,2845.49
17615,1.9573,3.814,10.3621,1491,2845.49
17620,-0.7685,1.1073,11.8369,1491,2845.49
17625,-3.1879,-1.1959,12.0201,1500,2845.49
17630,-3.0526,2.0626,9.1985,1562,2845.35
17635,1.7514,3.626,10.2292,1492,2845.35
17640,1.0199,1.731,11.4898,1499,2845.35
17645,-2.2529,-1.409,12.3625,1467,2845.35
17650,-4.2617,1.4928,9.5924,1503,2845.35
17655,1.2127,3.2657,9.9371,1523,2845.35
17660,2.4457,2.6217,11.1031,1491,2845.35
17665,-1.64,-0.9098,12.4068,1489,2845.35
17670,-4.7214,0.8188,10.2747,1493,2845.35
17675,0.3831,3.0694,9.6307,1523,2845.22
17680,2.6851,3.4405,10.7464,1492,2845.22
17685,-1.4413,-0.0575,12.3122,1485,2845.22
17690,-4.5526,-0.0658,11.0468,1496,2845.22
17695,-0.7266,2.8156,9.2153,1560,2845.22
17700,2.3942,3.7757,10.4974,1493,2845.22
17705,-1.4126,0.6847,12.0285,1491,2845.22
17710,-3.7936,-0.8583,11.7543,1491,2845.22
17715,-2.1476,2.4217,9.0369,1557,2845.22
17720,1.8914,3.7541,10.2987,1498,2845.22
17725,-0.1293,1.2929,11.728,1497,2845.22
17730,-2.9221,-1.4054,12.1171,1492,2845.22
17735,-3.6248,1.9501,9.329,1495,2845.49
17740,1.5826,3.5207,10.1718,1500,2845.49
17745,1.6879,2.0746,11.4191,1499,2845.49
17750,-2.0207,-1.1959,12.323,1495,2845.49
17755,-4.3072,1.3156,9.8474,1498,2845.49
17760,0.8272,3.2154,9.8114,1527,2845.76
17765,2.6085,2.8479,10.9571,1496,2845.76
17770,-1.4449,-0.5914,12.3565,1495,2845.76
17775,-4.464,0.4752,10.6231,1495,2845.76
17780,-0.1161,2.9257,9.4068,1533,2845.76
17785,2.4002,3.5362,10.6374,1495,2845.76
17790,-1.5347,0.2526,12.2164,1485,2845.76
17795,-4.1767,-0.3579,11.3353,1495,2845.76
17800,-1.2175,2.6695,9.1686,1551,2845.49
17805,1.9668,3.8307,10.404,1497,2845.49
17810,-1.1432,0.9218,11.9064,1486,2845.49
17815,-3.4022,-1.0319,11.9231,1496,2845.49
17820,-2.5295,2.2482,9.1997,1526,2845.49
17825,1.6448,3.6871,10.2232,1491,2845.49
17836,0.4764,1.585,11.5137,1495,2845.49
17840,-4.0366,1.6544,9.4535,1490,2845.49
17845,1.4569,3.3914,10.082,1513,2845.22
17850,2.2541,2.3583,11.1893,1493,2845.22
17855,-1.8148,-1.1169,12.3684,1493,2845.22
17860,-4.531,0.9098,10.0844,1493,2845.22
17865,0.583,3.0981,9.7252,1527,2845.49
17870,2.5905,3.231,10.8158,1495,2845.49
17875,-1.4305,-0.2203,12.3972,1487,2845.49
17880,-4.7094,0.1927,10.8553,1495,2845.49
17885,-0.3651,2.9173,9.3039,1529,2845.35
17890,2.5007,3.7421,10.5201,1493,2845.35
17895,-1.5658,0.5674,12.1242,1496,2845.35
17900,-4.0019,-0.6524,11.5185,1493,2845.35
17905,-1.7705,2.4948,9.1051,1553,2845.62
17910,2.0925,3.7529,10.3801,1493,2845.62
17915,-0.5327,1.1492,11.8154,1491,2845.62
17920,-3.1304,-1.3036,12.0261,1499,2845.62
17925,-3.2525,2.0147,9.1602,1555,2845.76
17930,1.6616,3.559,10.2077,1490,2845.76
17935,1.2402,1.8783,11.4072,1495,2845.76
17940,-2.2098,-1.3048,12.3517,1486,2845.76
17945,-4.3335,1.4796,9.6486,1502,2845.76
17950,1.1408,3.3351,9.9874,1529,2845.76
17955,2.5355,2.7378,11.078,1493,2845.76
17960,-1.4641,-0.7542,12.3888,1489,2845.76
17965,-4.7297,0.68,10.3681,1496,2845.76
17970,0.3543,3.0335,9.5421,1529,2845.62
17975,2.7402,3.4524,10.7392,1494,2845.62
17980,-1.4976,0.0826,12.2823,1487,2845.62
17985,-4.5035,-0.2191,11.1486,1495,2845.62
17990,-0.8882,2.721,9.2153,1557,2845.62
17995,2.241,3.8211,10.5237,1491,2845.62
18000,-1.3108,0.7362,11.9734,1487,2845.62
18005,-3.8152,-0.9206,11.819,1491,2845.62
18010,-2.3451,2.399,9.1542,1547,2845.49
18015,1.9261,3.7864,10.3465,1495,2845.49
18020,0.0275,1.4162,11.6502,1496,2845.49
18025,-2.7114,-1.3408,12.1961,1491,2845.49
18030,-3.5314,1.8447,9.4008,1495,2845.49
18035,1.4162,3.4895,10.0963,1518,2845.62
18040,1.8998,2.1751,11.2755,1497,2845.62
18045,-1.8196,-1.2594,12.3924,1491,2845.62
18050,-4.4903,1.1133,9.8653,1497,2845.62
18055,0.8368,3.1603,9.8294,1519,2846.03
18060,2.6719,2.9832,10.908,1499,2846.03
18065,-1.561,-0.5255,12.3672,1490,2846.03
18070,-4.5442,0.4094,10.7212,1493,2846.03
18075,-0.1281,2.9485,9.4176,1527,2846.3
18080,2.3954,3.6164,10.5465,1497,2846.3
18085,-1.4724,0.3867,12.2188,1495,2846.3
18090,-4.3359,-0.4202,11.4275,1491,2846.3
18095,-1.3958,2.6624,9.1423,1550,2846.57
18100,2.1668,3.8559,10.4196,1498,2846.57
18105,-0.9601,0.9625,11.8489,1493,2846.57
18110,-3.3495,-1.1456,11.8872,1499,2846.57
18115,-2.8347,2.1416,9.0932,1526,2846.57
18120,1.7406,3.638,10.2592,1487,2846.57
18125,0.7314,1.634,11.552,1500,2846.57
18130,-2.4002,-1.4569,12.3206,1491,2846.57
18135,-4.1132,1.652,9.5217,1503,2846.57
18140,1.3455,3.3806,10.0102,1515,2846.84
18145,2.2829,2.4768,11.1989,1493,2846.84
18150,-1.6951,-0.978,12.4367,1493,2846.84
18155,-4.6914,0.9529,10.1694,1490,2846.84
18160,0.6069,3.1316,9.6965,1529,2846.7
18165,2.7294,3.2717,10.8517,1495,2846.7
18170,-1.4222,-0.1652,12.3661,1485,2846.7
18175,-4.6603,0.0802,10.8386,1503,2846.7
18180,-0.4322,2.8575,9.2907,1557,2846.84
18185,2.4169,3.7074,10.4986,1495,2846.84
18190,-1.5131,0.5782,12.0931,1494,2846.84
18195,-3.9828,-0.7865,11.564,1491,2846.84
18200,-1.9261,2.4912,9.1315,1557,2846.7
18205,1.9465,3.8164,10.4339,1497,2846.7
18210,-0.5638,1.1863,11.8094,1492,2846.7
18215,-3.1089,-1.2414,12.1135,1499,2846.7
18220,-3.0921,2.0279,9.3099,1557,2846.98
18225,1.4856,3.5985,10.1155,1493,2846.98
18230,1.2582,1.8854,11.406,1491,2846.98
18235,-2.1656,-1.3252,12.4307,1481,2846.98
18240,-3.972,1.4066,9.7564,1502,2846.98
18245,0.9421,3.2789,9.8521,1526,2847.11
18250,2.4553,2.709,11.0217,1490,2847.11
18255,-1.5191,-0.8188,12.3792,1485,2847.11
18260,-4.5107,0.6081,10.3825,1491,2847.11
18265,0.1676,2.97,9.5672,1531,2847.25
18270,2.466,3.4919,10.6901,1496,2847.25
18275,-1.567,0.0934,12.323,1487,2847.25
18280,-4.4089,-0.1724,11.212,1489,2847.25
18285,-0.8906,2.7402,9.1997,1549,2847.25
18290,2.1931,3.8858,10.3741,1497,2847.25
18295,-1.391,0.7961,11.977,1491,2847.25
18300,-3.6117,-0.8823,11.7591,1490,2847.25
18305,-2.3272,2.3643,9.0812,1532,2846.7
18310,1.8974,3.7481,10.3298,1491,2846.7
18315,0.103,1.3683,11.6717,1494,2846.7
18320,-2.7282,-1.4473,12.1518,1484,2846.7
18325,-3.7266,1.8088,9.3494,1493,2846.7
18330,1.5538,3.4261,10.1466,1525,2846.98
18335,1.8136,2.1883,11.3461,1495,2846.98
18340,-1.9884,-1.2701,12.311,1491,2846.98
18345,-4.3993,1.1756,9.9491,1492,2846.98
18350,0.7458,3.1663,9.8031,1519,2847.11
18355,2.5989,3.0514,10.963,1499,2847.11
18360,-1.3491,-0.4812,12.3672,1491,2847.11
18365,-4.7848,0.4369,10.6219,1493,2847.11
18370,-0.0551,2.9341,9.396,1517,2846.98
18375,2.6959,3.6236,10.5848,1493,2846.98
18380,-1.634,0.2789,12.1937,1498,2846.98
18385,-4.124,-0.4501,11.3844,1493,2846.98
18390,-1.3384,2.5869,9.1075,1549,2847.11
18395,2.077,3.8008,10.3801,1495,2847.11
18400,-0.9685,0.9768,11.8764,1491,2847.11
18405,-3.292,-1.1217,11.9566,1498,2847.11
18410,-2.7629,2.2063,9.1494,1525,2847.25
18415,1.6436,3.6619,10.2592,1490,2847.25
18420,0.7242,1.6508,11.5676,1501,2847.25
18425,-2.4517,-1.3922,12.2751,1493,2847.25
18430,-4.1492,1.7047,9.4798,1502,2847.25
18435,1.4006,3.4058,10.0329,1520,2847.25
18440,2.3559,2.4852,11.1785,1491,2847.25
18445,-1.658,-0.996,12.4127,1493,2847.25
18450,-4.6663,0.8871,10.1095,1493,2847.25
18455,0.5782,3.0957,9.6127,1533,2847.38
18460,2.7521,3.2537,10.7967,1495,2847.38
18465,-1.6197,0.5183,12.2248,1483,2847.38
18470,-4.0139,-0.6393,11.5365,1501,2847.38
18475,-1.731,2.5666,9.0848,1557,2847.65
18480,1.9381,3.8475,10.319,1493,2847.65
18485,-0.6321,1.1803,11.8908,1493,2847.65
18490,-3.1975,-1.2857,12.0404,1494,2847.65
18495,-3.2226,2.0794,9.1207,1557,2848.06
18500,1.7729,3.626,10.2077,1499,2848.06
18505,1.2019,1.8136,11.5149,1491,2848.06
18510,-2.1572,-1.409,12.3146,1497,2848.06
18515,-4.3239,1.4329,9.5672,1559,2848.06
18520,1.1756,3.3088,9.9132,1487,2848.06
18525,2.496,2.6552,11.1785,1519,2848.06
18530,-1.5658,-0.8511,12.4427,1489,2848.06
18535,-4.7932,0.759,10.3154,1503,2848.06
18540,0.3675,3.0478,9.6007,1529,2848.06
18545,2.7378,3.4297,10.7344,1493,2848.06
18550,-1.4485,0.0215,12.3254,1483,2848.06
18555,-4.6124,-0.0443,10.9559,1490,2848.06
18560,-0.741,2.7725,9.2141,1533,2847.52
18565,2.4193,3.784,10.5129,1492,2847.52
18570,-1.3886,0.7542,12.0859,1485,2847.52
18575,-3.8319,-0.8811,11.6717,1491,2847.52
18580,-2.1691,2.3475,8.9866,1553,2847.52
18585,1.9896,3.7122,10.3118,1498,2847.52
18590,-0.1556,1.3408,11.7495,1491,2847.52
18595,-2.9389,-1.391,12.1709,1487,2847.52
18600,-3.6224,1.907,9.2273,1542,2846.98
18605,1.5694,3.5099,10.1801,1493,2846.98
18610,1.6269,2.1368,11.4179,1496,2846.98
18615,-2.0494,-1.227,12.3254,1483,2846.98
18620,-4.4257,1.2905,9.8114,1489,2846.98
18625,0.9086,3.1831,9.8198,1515,2847.65
18630,2.6755,2.9532,11.0708,1494,2847.65
18635,-1.5455,-0.5854,12.4187,1487,2847.65
18640,-4.5298,0.4944,10.5752,1489,2847.65
18645,0.0024,2.9461,9.3841,1526,2846.98
18650,2.563,3.5865,10.6027,1497,2846.98
18655,-1.5024,0.1975,12.2739,1485,2846.98
18660,-4.3443,-0.3962,11.2611,1491,2846.98
18665,-1.2103,2.6564,9.1159,1520,2846.7
18670,2.1823,3.8702,10.4579,1493,2846.7
18675,-1.2462,0.9421,12.0512,1497,2846.7
18680,-3.4465,-1.0403,11.8585,1494,2846.7
18685,-2.4972,2.2146,9.086,1547,2846.43
18690,1.7071,3.6895,10.2161,1510,2846.43
18695,0.4298,1.6005,11.7053,1491,2846.43
18700,-2.4529,-1.4329,12.1757,1501,2846.43
18705,-3.8511,1.7119,9.4272,1559,2846.57
18710,1.3707,3.3914,10.0078,1487,2846.57
18715,2.1608,2.3583,11.3066,1500,2846.57
18720,-1.6376,-1.1384,12.3708,1495,2846.57
18725,-4.6771,0.9888,9.9754,1503,2846.57
18730,0.7015,3.1256,9.6223,1523,2846.84
18735,2.7521,3.2453,10.9403,1492,2846.84
18740,-1.4724,-0.334,12.3756,1492,2846.84
18745,-4.7657,0.2143,10.7739,1493,2846.84
18750,-0.328,2.8898,9.2847,1556,2847.11
18755,2.5738,3.6883,10.5836,1491,2847.11
18760,-1.5431,0.5375,12.1793,1491,2847.11
18765,-4.1851,-0.5614,11.4515,1501,2847.11
18770,-1.634,2.551,9.0812,1558,2847.52
18775,2.1679,3.7984,10.4435,1491,2847.52
18780,-0.7147,1.1756,11.8956,1493,2847.52
18785,-3.2489,-1.2689,12.0213,1491,2847.52
18790,-3.14,2.0746,9.1183,1549,2847.52
18795,1.7609,3.5542,10.2376,1497,2847.52
18800,0.9972,1.834,11.5796,1487,2847.52
18805,-2.3355,-1.4186,12.2511,1499,2847.52
18810,-4.1061,1.4772,9.6043,1557,2847.65
18815,1.0295,3.316,9.9395,1494,2847.65
18820,2.399,2.6312,11.2073,1501,2847.65
18825,-1.6364,-0.8571,12.3613,1487,2847.65
18830,-4.5107,0.7901,10.258,1501,2847.65
18835,0.3508,3.0454,9.4822,1527,2847.65
18840,2.6252,3.389,10.7847,1500,2847.65
18845,-1.3467,0.0012,12.3625,1483,2847.65
18850,-4.5813,-0.103,11.0409,1493,2847.65
18855,-0.668,2.788,9.1794,1531,2847.52
18860,2.3691,3.7661,10.5429,1497,2847.52
18865,-1.4856,0.6967,12.0835,1491,2847.52
18870,-3.9205,-0.8679,11.5772,1493,2847.52
18875,-2.1069,2.4373,9.013,1550,2847.38
18880,1.9692,3.8223,10.392,1499,2847.38
18885,-0.2646,1.2989,11.789,1494,2847.38
18890,-2.9233,-1.2929,12.1566,1495,2847.38
18895,-3.3842,1.9297,9.2979,1559,2847.25
18900,1.5131,3.486,10.1634,1491,2847.25
18905,1.5622,2.0446,11.4658,1501,2847.25
18910,-1.9944,-1.3144,12.2775,1490,2847.25
18915,-4.2737,1.2929,9.7839,1493,2847.25
18920,0.8823,3.2429,9.8078,1519,2847.11
18925,2.5965,2.8671,11.1019,1498,2847.11
18930,-1.4772,-0.644,12.3744,1487,2847.11
18935,-4.6316,0.5303,10.4782,1493,2847.11
18940,0.0575,2.909,9.3996,1527,2847.65
18945,2.5391,3.5482,10.6865,1501,2847.65
18950,-1.6029,0.2203,12.2428,1491,2847.65
18955,-4.2904,-0.2298,11.2779,1496,2847.65
18960,-1.1001,2.6947,9.1447,1520,2848.06
18965,2.1907,3.8451,10.4315,1493,2848.06
18970,-1.1983,0.905,11.9973,1497,2848.06
18975,-3.5626,-1.0391,11.9004,1489,2848.06
18980,-2.5798,2.2709,9.0214,1555,2848.19
18985,1.9609,3.6775,10.3214,1496,2848.19
18990,0.328,1.5407,11.7436,1491,2848.19
18995,-2.6312,-1.4569,12.2404,1501,2848.19
19000,-3.7649,1.7154,9.3685,1547,2848.33
19005,1.3503,3.4069,10.0317,1491,2848.33
19010,1.9537,2.3164,11.3701,1499,2848.33
19015,-1.9764,-1.2115,12.3505,1491,2848.33
19020,-4.2856,1.0798,9.9814,1507,2848.33
19025,0.6357,3.134,9.6833,1524,2848.33
19030,2.5199,3.1388,10.969,1492,2848.33
19035,-1.4988,-0.4034,12.3732,1495,2848.33
19040,-4.397,0.3424,10.7799,1495,2848.33
19045,-0.2131,2.9245,9.3362,1531,2848.87
19050,2.3703,3.6811,10.5608,1495,2848.87
19055,-1.5335,0.4322,12.1697,1483,2848.87
19060,-4.0318,-0.5207,11.3892,1501,2848.87
19065,-1.4569,2.5678,9.0225,1527,2848.33
19070,2.0171,3.7769,10.41,1491,2848.33
19075,-0.9206,1.1193,11.9985,1497,2848.33
19080,-3.2561,-1.1696,11.8812,1491,2848.33
19085,-2.8323,2.1572,9.1411,1557,2849.27
19090,1.6855,3.6607,10.2532,1497,2849.27
19095,0.8056,1.6987,11.6095,1491,2849.27
19100,-2.4816,-1.3946,12.3182,1497,2849.27
19105,-3.8858,1.6065,9.5553,1555,2848.87
19110,1.2127,3.3028,9.9575,1492,2848.87
19115,2.296,2.5821,11.2516,1491,2848.87
19120,-1.6688,-0.9361,12.3134,1491,2848.87
19125,-4.4784,0.8942,10.1035,1497,2848.87
19130,0.4848,3.0694,9.5804,1526,2848.6
19135,2.6576,3.3435,10.8493,1493,2848.6
19140,-1.4389,-0.1413,12.3625,1483,2848.6
19145,-4.6436,0.0323,10.914,1493,2848.6
19150,-0.5303,2.7928,9.2249,1534,2848.46
19155,2.4361,3.7517,10.574,1495,2848.46
19160,-1.5299,0.6189,12.1889,1485,2848.46
19165,-4.0701,-0.7434,11.6262,1493,2848.46
19170,-1.9046,2.4804,9.0118,1555,2848.6
19175,2.0746,3.8559,10.3573,1492,2848.6
19180,-0.5543,1.2306,11.898,1491,2848.6
19185,-3.0861,-1.2737,12.0536,1490,2848.6
19190,-3.2537,1.9716,9.1315,1555,2848.6
19195,1.6137,3.5698,10.1478,1492,2848.6
19200,1.2965,1.9453,11.576,1495,2848.6
19205,-2.1093,-1.4329,12.3014,1485,2848.6
19210,-4.4125,1.3946,9.6331,1497,2848.6
19215,1.148,3.3064,9.9048,1520,2847.65
19220,2.575,2.7821,11.1199,1499,2847.65
19225,-1.6963,-0.8224,12.3361,1491,2847.65
19230,-4.6148,0.6776,10.3777,1491,2847.65
19235,0.1927,3.0011,9.5241,1525,2846.98
19240,2.5666,3.4979,10.7536,1500,2846.98
19245,-1.4246,0.1006,12.2811,1492,2846.98
19250,-4.5717,-0.1341,11.0887,1493,2846.98
19255,-0.8739,2.7629,9.1638,1529,2846.7
19260,2.4038,3.8128,10.4495,1495,2846.7
19265,-1.3156,0.7542,11.995,1497,2846.7
19270,-3.7661,-0.9373,11.7412,1491,2846.7
19275,-2.3128,2.326,9.0106,1554,2846.57
19280,1.9525,3.7002,10.3896,1499,2846.57
19285,0.0706,1.4138,11.7507,1491,2846.57
19290,-2.8048,-1.421,12.1721,1497,2846.57
19295,-3.7146,1.816,9.329,1531,2846.57
19300,1.4772,3.474,10.076,1490,2846.57
19305,1.8543,2.2218,11.4048,1501,2846.57
19310,-1.9154,-1.2115,12.4223,1490,2846.57
19315,-4.6005,1.1803,9.8976,1501,2846.57
19320,0.9062,3.1675,9.7887,1513,2846.98
19325,2.7665,3.0921,11.0421,1491,2846.98
19330,-1.5814,-0.4633,12.3433,1494,2846.98
19335,-4.5586,0.3795,10.6841,1495,2846.98
19340,-0.1089,2.8886,9.2919,1531,2846.84
19345,2.466,3.5985,10.6303,1493,2846.84
19350,-1.4557,0.3304,12.2655,1485,2846.84
19355,-4.3658,-0.5171,11.3437,1500,2846.84
19360,-1.397,2.5929,9.0633,1559,2847.11
19365,2.2003,3.8331,10.477,1491,2847.11
19370,-1.0247,1.0271,11.9219,1501,2847.11
19375,-3.5291,-1.1372,11.9183,1494,2847.11
19380,-2.8096,2.2637,9.074,1555,2848.6
19385,1.8759,3.6775,10.2711,1497,2848.6
19390,0.6309,1.6556,11.6837,1495,2848.6
19395,-2.399,-1.4664,12.2823,1499,2848.6
19400,-4.0294,1.646,9.4188,1559,2850.49
19405,1.3551,3.4141,9.9659,1490,2850.49
19410,2.2996,2.4205,11.3509,1495,2850.49
19415,-1.6795,-1.1576,12.4091,1487,2850.49
19420,-4.7896,0.9756,10.0257,1502,2850.49
19425,0.7003,3.1161,9.6438,1525,2853.07
19430,2.806,3.201,10.9164,1494,2853.07
19435,-1.4545,-0.31,12.3876,1487,2853.07
19440,-4.8243,0.2203,10.7859,1493,2853.07
19445,-0.3029,2.8934,9.2296,1533,2852.8
19450,2.5798,3.7134,10.6123,1493,2852.8
19455,-1.482,0.4525,12.1877,1485,2852.8
19460,-4.2533,-0.5854,11.5077,1496,2852.8
19465,-1.5981,2.5917,9.0597,1559,2850.09
19470,2.1799,3.808,10.4184,1493,2850.09
19475,-0.8368,1.0726,11.904,1491,2850.09
19480,-3.1951,-1.1995,11.9806,1491,2850.09
19485,-3.0394,2.0698,9.0824,1519,2847.92
19490,1.6927,3.5698,10.2532,1497,2847.92
19495,1.0068,1.804,11.5736,1493,2847.92
19500,-2.2733,-1.3803,12.3349,1491,2847.92
19505,-4.2234,1.5107,9.5493,1496,2847.92
19510,1.221,3.2753,9.9527,1523,2847.25
19515,2.4768,2.6887,11.1713,1497,2847.25
19520,-1.7202,-0.8942,12.4139,1491,2847.25
19525,-4.4855,0.808,10.2771,1497,2847.25
19530,0.3639,3.0287,9.5553,1526,2847.11
19535,2.6372,3.3543,10.8218,1491,2847.11
19540,-1.4234,-0.0084,12.3277,1493,2847.11
19545,-4.5179,-0.0479,10.9894,1493,2847.11
19550,-0.6859,2.7665,9.1219,1528,2847.38
19555,2.3439,3.7769,10.5105,1497,2847.38
19560,-1.4078,0.6608,12.1183,1487,2847.38
19565,-3.9492,-0.8859,11.6825,1493,2847.38
19570,-2.1261,2.4349,9.0309,1549,2847.52
19575,2.0291,3.7661,10.4291,1499,2847.52
19580,-0.346,1.2845,11.801,1491,2847.52
19585,-2.9425,-1.3515,12.129,1497,2847.52
19590,-3.5075,1.9465,9.2416,1553,2847.79
19595,1.6173,3.5494,10.1861,1490,2847.79
19600,1.6197,2.0435,11.4634,1495,2847.79
19605,-2.0063,-1.3001,12.3912,1492,2847.79
19610,-4.5346,1.3563,9.7229,1493,2847.79
19615,1.0523,3.231,9.8593,1515,2847.52
19620,2.7485,2.8335,11.048,1495,2847.52
19625,-1.5299,-0.7195,12.3996,1493,2847.52
19630,-4.7537,0.5339,10.4495,1487,2847.52
19635,0.1125,2.9197,9.4176,1525,2847.52
19640,2.6193,3.5326,10.7021,1496,2847.52
19645,-1.5299,0.17,12.3122,1490,2847.52
19650,-4.5023,-0.2634,11.2647,1493,2847.52
19655,-1.0487,2.7162,9.1147,1531,2847.11
19660,2.2781,3.8152,10.4639,1495,2847.11
19665,-1.2354,0.8715,12.056,1497,2847.11
19670,-3.6739,-1.0223,11.8561,1493,2847.11
19675,-2.5498,2.2793,9.0573,1555,2846.57
19680,1.9537,3.6775,10.3058,1487,2846.57
19685,0.3543,1.5383,11.7088,1491,2846.57
19690,-2.6731,-1.4712,12.1494,1501,2846.57
19695,-3.8654,1.7645,9.3565,1531,2846.7
19700,1.4868,3.389,10.0317,1491,2846.7
19705,1.986,2.3176,11.406,1495,2846.7
19710,-1.8352,-1.1947,12.402,1491,2846.7
19715,-4.7118,1.1205,9.997,1505,2846.7
19720,0.7733,3.1591,9.6618,1531,2846.7
19725,2.7438,3.1556,10.9966,1493,2846.7
19730,-1.5622,-0.3555,12.3792,1487,2846.7
19735,-4.6304,0.2861,10.7045,1493,2846.7
19740,-0.2251,2.8982,9.2955,1534,2846.84
19745,2.5259,3.6595,10.6458,1495,2846.84
19750,-1.4664,0.4549,12.2236,1485,2846.84
19755,-4.2365,-0.5962,11.4203,1501,2846.84
19760,-1.5215,2.5343,9.0633,1549,2846.98
19765,2.1512,3.8152,10.4902,1493,2846.98
19770,-0.8224,1.0774,11.9303,1485,2846.98
19775,-3.3615,-1.251,11.9435,1487,2846.98
19780,-3.0945,2.1368,9.1171,1528,2846.7
19785,1.7394,3.6488,10.2687,1499,2846.7
19790,0.9421,1.7657,11.5784,1491,2846.7
19795,-2.3415,-1.4341,12.3337,1486,2846.7
19800,-4.2461,1.5526,9.5146,1495,2846.7
19805,1.3396,3.3651,10.0018,1525,2846.7
19810,2.4936,2.551,11.212,1498,2846.7
19815,-1.6305,-0.9337,12.3625,1487,2846.7
19820,-4.6256,0.7745,10.2328,1495,2846.7
19825,0.407,3.0059,9.5205,1527,2846.7
19830,2.6899,3.2765,10.835,1499,2846.7
19835,-1.3443,-0.1185,12.3828,1495,2846.7
19840,-4.7357,-0.0168,10.9355,1493,2846.7
19845,-0.589,2.788,9.2129,1531,2846.43
19850,2.4433,3.8307,10.5477,1495,2846.43
19855,-1.4952,0.7314,12.1147,1495,2846.43
19860,-3.9971,-0.7207,11.6753,1491,2846.43
19865,-2.0327,2.4541,9.08,1553,2846.03
19870,2.0842,3.8188,10.3573,1501,2846.03
19875,-0.3639,1.324,11.7651,1489,2846.03
19880,-2.9544,-1.3096,12.05,1499,2846.03
19885,-3.4405,1.9046,9.183,1560,2845.76
19890,1.6161,3.5267,10.1861,1485,2845.76
19895,1.5275,2.0614,11.4658,1501,2845.76
19900,-2.0087,-1.4066,12.3481,1495,2845.76
19905,-4.4987,1.3012,9.7408,1499,2845.76
19910,1.0235,3.1963,9.8258,1515,2845.62
19915,2.6085,2.903,11.1139,1493,2845.62
19920,-1.5634,-0.6656,12.3936,1495,2845.62
19925,-4.7178,0.559,10.5082,1493,2845.62
19930,0.0958,3.0239,9.5086,1525,2846.03
19935,2.6444,3.6308,10.7081,1496,2846.03
19940,-1.4198,0.2442,12.2487,1485,2846.03
19945,-4.4496,-0.3112,11.1654,1498,2846.03
19950,-1.0606,2.636,9.1411,1556,2846.43
19955,2.3655,3.8128,10.4698,1493,2846.43
19960,-1.1923,0.8751,11.9483,1497,2846.43
19965,-3.6081,-1.1157,11.8214,1493,2846.43
19970,-2.5726,2.2565,9.0764,1553,2846.84
19975,1.8471,3.6955,10.2915,1497,2846.84
19980,0.3268,1.5598,11.7005,1495,2846.84
19985,-2.6121,-1.4353,12.2272,1499,2846.84
19990,-3.9361,1.7621,9.3793,1529,2846.98
19995,1.4042,3.45,10.0712,1491,2846.98
20000,2.1428,2.3487,11.4335,1487,2846.98
20005,-1.8076,-1.1468,12.4151,1487,2846.98
20010,-4.6795,1.1241,9.9778,1501,2846.98
20015,0.8092,3.14,9.6798,1523,2848.19
20020,2.812,3.1424,10.92,1495,2848.19
20025,-1.5467,-0.407,12.3505,1486,2848.19
20030,-4.5633,0.2227,10.738,1491,2848.19
20035,-0.3148,2.824,9.2596,1543,2847.65
20040,2.4157,3.6404,10.6338,1495,2847.65
20045,-1.4281,0.4681,12.2511,1487,2847.65
20050,-4.3227,-0.5962,11.4706,1495,2847.65
20055,-1.5407,2.5678,9.0357,1556,2847.79
20060,2.1799,3.881,10.4028,1493,2847.79
20065,-0.9134,1.1432,11.9339,1493,2847.79
20070,-3.3255,-1.1588,12.0704,1489,2847.79
20075,-3.0059,2.1524,9.1075,1561,2848.06
20080,1.7777,3.6452,10.252,1495,2848.06
20085,0.9732,1.7394,11.5951,1496,2848.06
20090,-2.2924,-1.4186,12.2475,1485,2848.06
20095,-4.0426,1.4952,9.4858,1493,2848.06
20100,1.1947,3.2872,9.9491,1519,2848.19
20105,2.3499,2.5474,11.2132,1497,2848.19
20110,-1.567,-1.0032,12.4235,1491,2848.19
20115,-4.7561,0.8176,10.1275,1496,2848.19
20120,0.4405,3.055,9.6486,1526,2849.27
20125,2.733,3.3674,10.8074,1503,2849.27
20130,-1.6424,-0.1006,12.3134,1495,2849.27
20135,-4.4221,0.1089,10.9858,1493,2849.27
20140,-0.583,2.8778,9.2584,1529,2849.0
20145,2.3499,3.7697,10.5034,1494,2849.0
20150,-1.3001,0.674,12.1649,1492,2849.0
20155,-3.9624,-0.7865,11.5796,1500,2849.0
20160,-1.9393,2.4289,8.9914,1553,2849.27
20165,2.1117,3.802,10.3058,1499,2849.27
20170,-0.4022,1.245,11.8752,1495,2849.27
20175,-3.1328,-1.3527,12.1087,1496,2849.27
20180,-3.3914,1.9585,9.153,1555,2849.54
20185,1.6436,3.5267,10.2089,1489,2849.54
20190,1.3695,1.9992,11.5472,1501,2849.54
20195,-2.1548,-1.3431,12.3756,1496,2849.54
20200,-4.3191,1.4078,9.681,1497,2849.54
20205,1.0211,3.2681,9.9024,1517,2849.81
20210,2.63,2.8,11.1282,1493,2849.81
20215,-1.5275,-0.7207,12.3864,1495,2849.81
20220,-4.6495,0.6871,10.3549,1493,2849.81
20225,0.2179,3.0071,9.4846,1532,2850.09
20230,2.6683,3.4488,10.726,1495,2850.09
20235,-1.4329,0.0539,12.3206,1490,2850.09
20240,-4.4772,-0.2011,11.0636,1493,2850.09
20245,-0.9002,2.7102,9.0908,1556,2849.95
20250,2.2577,3.8032,10.4902,1493,2849.95
20255,-1.4114,0.7649,12.0967,1497,2849.95
20260,-3.6691,-0.8751,11.7962,1495,2849.95
20265,-2.2063,2.3391,9.0369,1555,2849.81
20270,1.7789,3.7541,10.3106,1491,2849.81
20275,-0.0036,1.4389,11.7914,1496,2849.81
20280,-2.8443,-1.3731,12.1889,1499,2849.81
20285,-3.401,1.8651,9.2931,1562,2849.68
20290,1.4054,3.4644,10.0688,1482,2849.68
20295,1.7274,2.1679,11.4263,1498,2849.68
20300,-1.9118,-1.3168,12.3134,1491,2849.68
20305,-4.2689,1.1791,9.8055,1507,2849.68
20310,0.8045,3.1328,9.7552,1525,2849.81
20315,2.5726,2.9604,11.0804,1491,2849.81
20320,-1.573,-0.6249,12.4522,1491,2849.81
20325,-4.6076,0.4908,10.5716,1497,2849.81
20330,-0.0706,2.9497,9.3649,1543,2850.09
20335,2.4672,3.6344,10.6734,1493,2850.09
20340,-1.4916,0.3208,12.2954,1487,2850.09
20345,-4.3993,-0.3112,11.303,1499,2850.09
20350,-1.1696,2.7102,9.0992,1557,2850.22
20355,2.2984,3.8499,10.4327,1495,2850.22
20360,-1.1109,0.9732,11.9854,1491,2850.22
20365,-3.5853,-1.0834,11.7938,1491,2850.22
20370,-2.6085,2.2577,9.0154,1545,2850.63
20375,1.9142,3.6655,10.2879,1499,2850.63
20380,0.4262,1.5359,11.7172,1492,2850.63
20385,-2.6504,-1.4437,12.2368,1499,2850.63
20390,-3.8822,1.7166,9.323,1543,2850.09
20395,1.3719,3.3998,10.0509,1491,2850.09
20400,2.0506,2.3499,11.3916,1499,2850.09
20405,-1.8004,-1.1384,12.4702,1485,2850.09
20410,-4.6328,1.1073,9.9683,1502,2850.09
20415,0.759,3.1795,9.6702,1529,2851.58
20420,2.7869,3.1328,10.9176,1493,2851.58
20425,-1.4102,-0.4082,12.4056,1490,2851.58
20430,-4.7549,0.2753,10.6674,1489,2851.58
20435,-0.1257,2.903,9.2979,1543,2851.17
20440,2.6181,3.6452,10.6446,1496,2851.17
20445,-1.4724,0.3508,12.1817,1491,2851.17
20450,-4.3263,-0.5555,11.333,1495,2851.17
20455,-1.4784,2.5989,8.9938,1557,2851.3
20460,2.1584,3.8331,10.4603,1495,2851.3
20465,-1.0008,1.0068,11.9483,1487,2851.3
20470,-3.4022,-1.154,12.0285,1493,2851.3
20475,-2.8706,2.1644,9.1435,1557,2851.03
20480,1.6987,3.6931,10.2472,1505,2851.03
20485,0.7865,1.6628,11.6442,1493,2851.03
20490,-2.4157,-1.4329,12.2775,1485,2851.03
20495,-4.1384,1.6508,9.4272,1493,2851.03
20500,1.4569,3.3878,10.0137,1527,2850.76
20505,2.399,2.4636,11.2755,1495,2850.76
20510,-1.6927,-1.0942,12.3948,1490,2850.76
20515,-4.7465,0.9194,10.0197,1499,2850.76
20520,0.6512,3.0646,9.584,1523,2850.76
20525,2.745,3.2274,10.9235,1499,2850.76
20530,-1.4605,-0.2322,12.3948,1493,2850.76
20535,-4.7872,0.1592,10.8254,1493,2850.76
20540,-0.3855,2.879,9.2727,1531,2850.76
20545,2.4684,3.7625,10.5776,1497,2850.76
20550,-1.5323,0.5758,12.1829,1491,2850.76
20555,-4.1958,-0.6321,11.4838,1491,2850.76
20560,-1.7011,2.5582,9.0166,1555,2850.63
20565,2.1835,3.8271,10.4088,1499,2850.63
20570,-0.6177,1.1911,11.9004,1491,2850.63
20575,-3.231,-1.2953,12.0297,1495,2850.63
20580,-3.1591,2.059,9.1339,1555,2850.63
20585,1.7131,3.5398,10.1909,1492,2850.63
20590,1.1193,1.8423,11.5736,1501,2850.63
20595,-2.3032,-1.5131,12.2858,1495,2850.63
20600,-4.3347,1.5048,9.5517,1493,2850.63
20605,1.2594,3.2669,9.9264,1517,2850.49
20610,2.4612,2.6755,11.242,1496,2850.49
20615,-1.6747,-0.8942,12.4738,1493,2850.49
20620,-4.7716,0.8009,10.2496,1491,2850.49
20625,0.4788,3.0837,9.5337,1525,2850.9
20630,2.8156,3.3974,10.8134,1496,2850.9
20635,-1.4509,-0.0838,12.3553,1503,2850.9
20640,-4.6208,-0.006,11.0085,1497,2850.9
20645,-0.5938,2.8287,9.1423,1549,2850.76
20650,2.4672,3.729,10.5453,1487,2850.76
20655,-1.3491,0.6704,12.1338,1497,2850.76
20660,-4.0426,-0.8631,11.6634,1497,2850.76
20665,-2.0303,2.4181,8.9795,1553,2851.03
20670,2.0039,3.7385,10.4136,1495,2851.03
20675,-0.3124,1.2881,11.886,1493,2851.03
20680,-3.122,-1.3755,12.1206,1501,2851.03
20685,-3.4692,2.0111,9.2009,1559,2851.03
20690,1.6532,3.5733,10.1766,1489,2851.03
20695,1.5562,2.0327,11.5257,1501,2851.03
20700,-2.077,-1.2857,12.3206,1485,2851.03
20705,-4.4424,1.3803,9.6379,1506,2851.03
20710,1.1337,3.2429,9.8282,1517,2850.9
20715,2.6863,2.7988,11.0959,1493,2850.9
20720,-1.5562,-0.7889,12.3768,1493,2850.9
20725,-4.7788,0.5495,10.3537,1495,2850.9
20730,0.2634,2.9916,9.4655,1528,2850.22
20735,2.6612,3.4357,10.7153,1496,2850.22
20740,-1.6951,0.0778,12.3301,1485,2850.22
20745,-4.3443,-0.1137,11.212,1499,2850.22
20750,-0.9134,2.7031,9.2261,1556,2849.81
20755,2.1955,3.8451,10.4567,1491,2849.81
20760,-1.2713,0.8475,12.1254,1495,2849.81
20765,-3.7769,-0.9613,11.7962,1495,2849.81
20770,-2.3499,2.3343,8.9926,1558,2849.81
20775,2.0482,3.7852,10.3202,1492,2849.81
20780,0.0563,1.403,11.7136,1493,2849.81
20785,-2.7581,-1.4102,12.1374,1498,2849.81
20790,-3.6619,1.816,9.3015,1547,2849.54
20795,1.4964,3.4357,10.0916,1493,2849.54
20800,1.8088,2.1488,11.4168,1489,2849.54
20805,-1.8926,-1.33,12.3924,1487,2849.54
20810,-4.6112,1.2127,9.8294,1502,2849.54
20815,0.9433,3.207,9.7995,1531,2849.27
20820,2.7294,3.0406,11.0277,1497,2849.27
20825,-1.5467,-0.5124,12.4127,1479,2849.27
20830,-4.8111,0.4693,10.5776,1491,2849.27
20835,0.085,2.9987,9.3889,1534,2849.41
20840,2.6923,3.5757,10.6674,1495,2849.41
20845,-1.4976,0.2358,12.2631,1487,2849.41
20850,-4.3838,-0.3915,11.2336,1495,2849.41
20855,-1.233,2.6468,9.0537,1555,2849.54
20860,2.2182,3.8199,10.4519,1493,2849.54
20865,-1.0654,0.9158,11.9782,1491,2849.54
20870,-3.5925,-1.1181,11.9112,1492,2849.54
20875,-2.7342,2.247,9.08,1523,2849.81
20880,1.7765,3.6727,10.2999,1497,2849.81
20885,0.5028,1.5814,11.6885,1497,2849.81
20890,-2.654,-1.415,12.2404,1486,2849.81
20895,-4.045,1.7693,9.3781,1497,2849.81
20900,1.5071,3.3746,10.0652,1525,2850.49
20905,2.2613,2.3667,11.3749,1499,2850.49
20910,-1.8148,-1.1025,12.4235,1487,2850.49
20915,-4.6795,1.0511,9.973,1499,2850.49
20920,0.7398,3.0586,9.6462,1529,2850.36
20925,2.8407,3.134,10.9451,1496,2850.36
20930,-1.4509,-0.3639,12.4068,1491,2850.36
20935,-4.7501,0.2107,10.738,1501,2850.36
20940,-0.2957,2.8862,9.2715,1531,2849.54
20945,2.4912,3.6847,10.574,1496,2849.54
20950,-1.6508,0.4645,12.2428,1486,2849.54
20955,-4.1108,-0.5327,11.4515,1489,2849.54
20960,-1.5766,2.5582,9.068,1558,2849.14
20965,2.0183,3.8415,10.3968,1497,2849.14
20970,-0.7661,1.142,11.9985,1487,2849.14
20975,-3.322,-1.2186,11.9279,1492,2849.14
20980,-3.0502,2.1452,9.092,1555,2848.87
20985,1.8411,3.6931,10.2759,1493,2848.87
20990,0.9732,1.7957,11.6215,1509,2848.87
20995,-2.3296,-1.4521,12.2811,1493,2848.87
21000,-4.0318,1.4724,9.4978,1491,2848.87
21005,1.1396,3.2836,9.9455,1515,2848.87
21010,2.326,2.5438,11.2288,1497,2848.87
21015,-1.573,-0.9876,12.4235,1502,2848.87
21020,-4.8088,0.8894,10.1622,1493,2848.87
21025,0.5148,3.0873,9.5948,1527,2848.87
21030,2.8096,3.3291,10.8194,1496,2848.87
21035,-1.5107,-0.0718,12.3385,1485,2848.87
21040,-4.6723,0.0994,10.9008,1495,2848.87
21045,-0.5315,2.8467,9.2261,1549,2848.06
21050,2.46,3.7254,10.5369,1491,2848.06
21055,-1.3886,0.6428,12.0404,1495,2848.06
21060,-4.0354,-0.7733,11.5604,1495,2848.06
21065,-1.9513,2.46,8.9926,1530,2848.46
21070,2.0746,3.7769,10.3537,1499,2848.46
21075,-0.3867,1.2294,11.7879,1494,2848.46
21080,-3.1137,-1.3324,12.0799,1503,2848.46
21085,-3.4093,1.9585,9.2404,1541,2848.06
21090,1.6077,3.5159,10.2065,1487,2848.06
21095,1.4425,2.0207,11.5029,1497,2848.06
21100,-2.2266,-1.3683,12.3708,1493,2848.06
21105,-4.4448,1.3862,9.657,1496,2848.06
21110,1.0965,3.2417,9.8892,1525,2847.79
21115,2.6707,2.8623,11.0959,1492,2847.79
21120,-1.5095,-0.7147,12.4235,1491,2847.79
21125,-4.7692,0.6165,10.3202,1499,2847.79
21130,0.2634,2.9975,9.4272,1528,2847.38
21135,2.7426,3.5027,10.7619,1493,2847.38
21140,-1.4485,0.1185,12.317,1485,2847.38
21145,-4.5574,-0.2777,11.0959,1501,2847.38
21150,-0.9553,2.6947,9.1339,1555,2847.25
21155,2.2649,3.8439,10.5022,1493,2847.25
21160,-1.2989,0.832,12.0261,1491,2847.25
21165,-3.8068,-1.0127,11.74,1492,2847.25
21170,-2.4409,2.3403,9.0752,1555,2846.84
21175,1.9501,3.7577,10.3501,1497,2846.84
21180,0.1568,1.4844,11.7424,1493,2846.84
21185,-2.7354,-1.4054,12.1458,1495,2846.84
21190,-3.7397,1.8136,9.3254,1533,2846.03
21195,1.5706,3.4716,10.0999,1500,2846.03
21200,1.9585,2.1859,11.3545,1495,2846.03
21205,-1.822,-1.2653,12.3565,1485,2846.03
21210,-4.5705,1.1444,9.9168,1499,2846.03
21215,0.82,3.122,9.7288,1528,2846.7
21220,2.7246,3.0323,11.0109,1491,2846.7
21225,-1.6735,-0.504,12.3277,1494,2846.7
21230,-4.4915,0.3926,10.7009,1491,2846.7
21235,-0.2071,2.9042,9.3374,1533,2846.16
21240,2.3822,3.6547,10.6243,1497,2846.16
21245,-1.3707,0.3998,12.2044,1485,2846.16
21250,-4.3084,-0.4286,11.3856,1487,2846.16
21255,-1.4629,2.6444,9.0908,1553,2846.3
21260,2.1715,3.8188,10.4279,1498,2846.3
21265,-0.9792,1.0762,11.8944,1491,2846.3
21270,-3.3639,-1.1887,11.9171,1511,2846.3
21275,-2.8982,2.1344,9.0716,1557,2846.43
21280,1.6939,3.559,10.2292,1490,2846.43
21285,0.8392,1.6999,11.6406,1501,2846.43
21290,-2.4469,-1.4234,12.2835,1493,2846.43
21295,-4.1946,1.6125,9.5026,1495,2846.43
21300,1.33,3.3255,10.0281,1517,2846.43
21305,2.4217,2.5307,11.2432,1495,2846.43
21310,-1.7023,-0.9613,12.4199,1496,2846.43
21315,-4.7477,0.8978,10.1215,1487,2846.43
21320,0.571,3.0993,9.6355,1524,2846.57
21325,2.7222,3.298,10.8397,1495,2846.57
21330,-1.4401,-0.0898,12.3948,1484,2846.57
21335,-4.6388,0.0012,10.8769,1494,2846.57
21340,-0.5291,2.8347,9.2165,1533,2846.43
21345,2.4301,3.7733,10.5393,1492,2846.43
21350,-1.415,0.6129,12.1949,1495,2846.43
21355,-4.0833,-0.7721,11.5676,1493,2846.43
21360,-1.9609,2.466,9.1339,1558,2846.84
21365,2.0135,3.796,10.392,1493,2846.84
21370,-0.4429,1.2701,11.8884,1491,2846.84
21375,-3.1041,-1.3144,12.0847,1501,2846.84
21380,-3.3782,2.0303,9.1997,1543,2846.43
21385,1.6903,3.5817,10.1598,1490,2846.43
21390,1.4796,1.9453,11.4838,1495,2846.43
21395,-2.053,-1.3036,12.3182,1487,2846.43
21400,-4.385,1.3982,9.6343,1503,2846.43
21405,1.0882,3.2429,9.8497,1527,2847.38
21410,2.6145,2.7964,11.1259,1491,2847.38
21415,-1.5383,-0.7793,12.3637,1491,2847.38
21420,-4.7716,0.6369,10.3848,1492,2847.38
21425,0.2095,2.97,9.4403,1541,2846.98
21430,2.6456,3.4752,10.7236,1495,2846.98
21435,-1.6017,0.1437,12.2691,1485,2846.98
21440,-4.4472,-0.1353,11.1917,1495,2846.98
21445,-0.9972,2.7402,9.1339,1554,2847.25
21450,2.2661,3.8128,10.4387,1495,2847.25
21455,-1.2055,0.8655,12.0333,1491,2847.25
21460,-3.7757,-0.9433,11.8142,1492,2847.25
21465,-2.4062,2.3511,9.0202,1527,2847.11
21470,1.9501,3.7182,10.3621,1497,2847.11
21475,0.164,1.4545,11.728,1495,2847.11
21480,-2.6971,-1.4257,12.1673,1491,2847.11
21485,-3.7888,1.7609,9.335,1511,2847.11
21490,1.4593,3.3794,10.0963,1525,2847.11
21495,1.9513,2.2721,11.3533,1497,2847.11
21500,-2.0123,-1.2582,12.3553,1489,2847.11
21505,-4.3886,1.1636,9.9659,1498,2847.11
21510,0.7027,3.1603,9.7612,1523,2847.65
21515,2.5941,3.0945,10.9906,1500,2847.65
21520,-1.5239,-0.4357,12.3816,1491,2847.65
21525,-4.4688,0.4513,10.6817,1491,2847.65
21530,-0.1544,2.9425,9.3122,1545,2847.65
21535,2.4253,3.6224,10.5548,1497,2847.65
21540,-1.5323,0.3424,12.1853,1491,2847.65
21545,-4.0067,-0.4417,11.4191,1491,2847.65
21550,-1.336,2.5869,9.0992,1549,2847.79
21555,1.9082,3.7685,10.3274,1498,2847.79
21560,-0.9325,1.0475,11.9542,1493,2847.79
21565,-3.3363,-1.166,11.9207,1497,2847.79
21570,-2.6552,2.1452,9.1447,1527,2847.25
21575,1.549,3.6356,10.1766,1486,2847.25
21580,0.6261,1.6592,11.6837,1500,2847.25
21585,-2.5019,-1.421,12.2631,1493,2847.25
21590,-3.7146,1.6364,9.5481,1492,2847.25
21595,1.1253,3.3471,9.9012,1519,2848.06
21600,2.1308,2.484,11.2767,1496,2848.06
21605,-1.7154,-0.9996,12.3313,1496,2848.06
21610,-4.2844,0.9122,10.1155,1491,2848.06
21615,0.4776,3.0718,9.5708,1525,2848.06
21620,2.5546,3.237,10.8493,1496,2848.06
21625,-1.4653,-0.2227,12.2942,1487,2848.06
21630,-4.2725,0.1496,10.8637,1496,2848.06
21635,-0.5004,2.8108,9.2608,1527,2848.06
21640,2.1703,3.6966,10.4495,1487,2848.06
21645,-1.4952,0.6369,12.0728,1495,2848.06
21650,-3.8283,-0.5974,11.5796,1493,2848.06
21655,-1.6951,2.5055,9.0968,1557,2848.33
21660,1.816,3.8235,10.331,1491,2848.33
21665,-0.5938,1.2127,11.8549,1490,2848.33
21670,-3.0347,-1.2857,12.0009,1500,2848.33
21675,-2.9963,1.9896,9.1746,1563,2848.06
21680,1.4844,3.5338,10.1119,1487,2848.06
21685,1.1696,1.8435,11.5173,1497,2848.06
21690,-2.2613,-1.4006,12.3002,1487,2848.06
21695,-4.0259,1.3803,9.6714,1502,2848.06
21700,0.9517,3.2322,9.8761,1528,2849.27
21705,2.3631,2.6983,11.0864,1493,2849.27
21710,-1.6855,-0.8236,12.4367,1491,2849.27
21715,-4.4724,0.7614,10.3633,1495,2849.27
21720,0.2418,3.0634,9.5529,1545,2849.0
21725,2.5283,3.4488,10.7392,1491,2849.0
21730,-1.5574,0.0802,12.3218,1483,2849.0
21735,-4.1863,-0.0718,11.1318,1499,2849.0
21740,-0.7781,2.7318,9.177,1557,2849.41
21745,2.1943,3.802,10.4064,1487,2849.41
21750,-1.3132,0.741,12.1302,1491,2849.41
21755,-3.6524,-0.8607,11.7232,1490,2849.41
21760,-2.1117,2.3607,9.0956,1557,2849.81
21765,1.7442,3.6607,10.2735,1497,2849.81
21770,-0.1233,1.3515,11.8633,1495,2849.81
21775,-2.8683,-1.3922,12.1254,1495,2849.81
21780,-3.3938,1.8926,9.2919,1527,2850.09
21785,1.342,3.4764,10.0425,1495,2850.09
21790,1.6113,2.1225,11.5005,1497,2850.09
21795,-2.2075,-1.2546,12.3337,1491,2850.09
21800,-4.0294,1.3312,9.8964,1501,2850.09
21805,0.7949,3.1927,9.7899,1527,2850.09
21810,2.4576,2.9149,11.0744,1491,2850.09
21815,-1.506,-0.6261,12.3493,1487,2850.09
21820,-4.4137,0.516,10.5237,1491,2850.09
21825,0.0048,2.9377,9.3446,1545,2849.81
21830,2.4924,3.5267,10.6602,1494,2849.81
21835,-1.5778,0.2203,12.2404,1486,2849.81
21840,-4.1779,-0.2885,11.242,1486,2849.81
21845,-1.0523,2.6061,9.1207,1556,2849.81
21850,2.0111,3.814,10.4555,1500,2849.81
21855,-1.2067,0.9397,12.0428,1491,2849.81
21860,-3.5745,-0.9864,11.8645,1492,2849.81
21865,-2.3727,2.2936,9.1375,1561,2849.95
21870,1.7514,3.7278,10.2891,1495,2849.95
21875,0.2622,1.5431,11.7268,1499,2849.95
21880,-2.6228,-1.3862,12.2009,1487,2849.95
21885,-3.6021,1.7609,9.3565,1493,2849.95
21890,1.3024,3.377,9.9599,1523,2850.36
21895,2.0267,2.2446,11.3365,1492,2850.36
21900,-1.5862,0.3567,12.2619,1491,2850.36
21905,-4.4053,1.0858,9.9695,1487,2850.36
21910,0.6668,3.1771,9.7133,1525,2850.63
21915,2.6133,3.1089,10.9798,1501,2850.63
21920,-1.6233,-0.4262,12.4044,1491,2850.63
21925,-4.4604,0.413,10.7679,1493,2850.63
21930,-0.1688,2.9401,9.3182,1527,2850.9
21935,2.4457,3.6452,10.5536,1497,2850.9
21940,-1.6041,0.4381,12.2404,1497,2850.9
21945,-4.0031,-0.4082,11.3892,1486,2850.9
21950,-1.3587,2.6097,9.0776,1553,2851.03
21955,2.0351,3.7661,10.3813,1498,2851.03
21960,-0.923,0.99,11.9638,1491,2851.03
21965,-3.3567,-1.1911,11.8298,1497,2851.03
21970,-2.5881,2.0937,9.1291,1556,2851.3
21975,1.5155,3.5889,10.2041,1490,2851.3
21980,0.5112,1.6376,11.6873,1500,2851.3
21985,-2.4241,-1.409,12.2655,1495,2851.3
21990,-3.8523,1.652,9.4607,1493,2851.3
21995,1.1756,3.3483,9.9563,1515,2851.17
22000,2.1608,2.5007,11.3294,1491,2851.17
22005,-1.9106,-1.0379,12.3912,1491,2851.17
22010,-4.2641,1.0163,10.0377,1491,2851.17
22015,0.5495,3.1173,9.6343,1526,2851.17
22020,2.6073,3.1867,10.8589,1495,2851.17
22025,-1.4389,-0.2777,12.3277,1484,2851.17
22030,-4.4113,0.1544,10.8254,1493,2851.17
22035,-0.419,2.7964,9.2608,1554,2851.44
22040,2.3176,3.6727,10.5812,1492,2851.44
22045,-1.5215,0.48,12.1518,1499,2851.44
22050,-3.9385,-0.5674,11.5221,1491,2851.44
22055,-1.567,2.5235,9.0752,1555,2851.85
22060,1.8579,3.8283,10.3046,1491,2851.85
22065,-0.7949,1.16,11.9147,1491,2851.85
22070,-3.2118,-1.1564,12.0321,1499,2851.85
22075,-2.9544,2.1404,9.1686,1529,2852.66
22080,1.6197,3.6595,10.1574,1491,2852.66
22085,1.0056,1.7741,11.5305,1498,2852.66
22090,-2.4804,-1.4114,12.3397,1491,2852.66
22095,-3.7804,1.549,9.5888,1503,2852.66
22100,1.0618,3.2717,9.8641,1527,2853.2
22105,2.2817,2.5187,11.2144,1493,2853.2
22110,-1.6328,-0.9996,12.4056,1496,2853.2
22115,-4.543,0.8152,10.2149,1491,2853.2
22120,0.4274,3.0837,9.5469,1533,2854.02
22125,2.6504,3.3243,10.8936,1493,2854.02
22130,-1.6424,-0.1999,12.3684,1484,2854.02
22135,-4.4412,0.1592,10.9176,1499,2854.02
22140,-0.4669,2.873,9.2009,1557,2854.83
22145,2.3308,3.7637,10.4974,1493,2854.83
22150,-1.4964,0.6428,12.2128,1496,2854.83
22155,-3.9085,-0.6117,11.5855,1491,2854.83
22160,-1.6436,2.5235,8.9878,1557,2854.97
22165,1.9441,3.7697,10.2651,1496,2854.97
22170,-0.5674,1.1552,11.8968,1490,2854.97
22175,-3.1208,-1.3132,11.9902,1501,2854.97
22180,-3.0742,1.9848,9.0633,1529,2854.83
22185,1.5993,3.5267,10.1897,1491,2854.83
22190,1.1229,1.8399,11.6143,1494,2854.83
22195,-2.3595,-1.4174,12.3397,1492,2854.83
22200,-4.2066,1.5658,9.5648,1509,2854.83
22205,1.1073,3.3291,9.8533,1529,2855.1
22210,2.4624,2.6504,11.2623,1489,2855.1
22215,-1.822,-0.911,12.372,1492,2855.1
22220,-4.4137,0.8607,10.2161,1496,2855.1
22225,0.4238,3.0574,9.5361,1533,2854.7
22230,2.6157,3.2777,10.8386,1494,2854.7
22235,-1.3575,-0.1209,12.3433,1485,2854.7
22240,-4.5179,-0.0156,10.9547,1500,2854.7
22245,-0.5734,2.8132,9.1482,1560,2854.83
22250,2.3846,3.717,10.5082,1493,2854.83
22255,-1.5263,0.6117,12.129,1493,2854.83
22260,-3.9732,-0.759,11.6382,1491,2854.83
22265,-1.8663,2.4565,9.0333,1549,2854.7
22270,1.9022,3.7781,10.3705,1496,2854.7
22275,-0.5339,1.2019,11.9183,1493,2854.7
22280,-3.1603,-1.2749,12.0799,1497,2854.7
22285,-3.1101,2.0303,9.1063,1548,2854.42
22290,1.6149,3.6021,10.1586,1491,2854.42
22295,1.2462,1.8914,11.5772,1492,2854.42
22300,-2.1715,-1.3396,12.3852,1490,2854.42
22305,-4.1707,1.4162,9.6091,1503,2854.42
22310,1.1253,3.2681,9.8414,1529,2854.29
22315,2.5379,2.6121,11.2252,1495,2854.29
22320,-1.5538,-0.9146,12.3888,1486,2854.29
22325,-4.8626,0.7494,10.1885,1491,2854.29
22330,0.4429,3.0586,9.4918,1531,2854.42
22335,2.7737,3.4022,10.8517,1495,2854.42
22340,-1.7334,-0.0742,12.3936,1487,2854.42
22345,-4.3958,0.0874,10.9762,1499,2854.42
22350,-0.6165,2.7653,9.1913,1557,2854.29
22355,1.9357,3.7326,10.3286,1495,2854.29
22360,-1.3898,0.7039,12.1901,1493,2854.29
22365,-2.9808,-1.3431,12.1183,1493,2854.29
22370,-1.9764,2.4301,8.9675,1530,2854.15
22375,1.6628,3.5303,10.1897,1496,2854.15
22380,-0.2861,1.2282,11.8525,1493,2854.15
22385,-2.2805,-1.4545,12.3397,1499,2854.15
22390,-4.4652,1.4365,9.5936,1555,2855.65
22395,1.1947,3.2765,9.9192,1491,2855.65
22400,2.5845,2.7246,11.1749,1497,2855.65
22405,-1.6508,-0.8248,12.4379,1487,2855.65
22410,-4.8435,0.7626,10.2951,1501,2855.65
22415,0.4118,3.0442,9.5253,1529,2854.97
22420,2.8096,3.3818,10.823,1484,2854.97
22425,-1.4605,-0.0156,12.3265,1485,2854.97
22430,-4.6543,-0.0634,10.9511,1487,2854.97
22435,-0.6632,2.7282,9.1016,1544,2854.29
22440,2.4744,3.7218,10.5201,1495,2854.29
22445,-1.3408,0.6524,12.1374,1485,2854.29
22450,-4.0594,-0.929,11.6897,1497,2854.29
22455,-2.0758,2.4134,8.9639,1556,2853.75
22460,2.0195,3.7852,10.3789,1493,2853.75
22465,-0.3735,1.2713,11.8597,1491,2853.75
22470,-3.0706,-1.318,12.1458,1489,2853.75
22475,-3.3758,2.0518,9.2273,1525,2853.47
22480,1.5862,3.559,10.1933,1497,2853.47
22485,1.4509,1.9644,11.5963,1493,2853.47
22490,-2.1105,-1.3084,12.3924,1493,2853.47
22495,-4.5167,1.3922,9.6043,2028,2852.8
22500,1.2163,3.2406,9.8402,1501,2852.8
22505,2.7438,2.7749,11.1103,1501,2852.8
22510,-1.5694,-0.7673,12.4343,1485,2852.8
22515,-4.81,0.6225,10.3358,1501,2852.8
22520,0.3136,2.9652,9.481,1525,2853.75
22525,2.6899,3.4093,10.7895,1495,2853.75
22530,-1.4844,0.0718,12.3816,1485,2853.75
22535,-4.6471,-0.1784,11.0588,1491,2853.75
22540,-0.8368,2.7593,9.098,1531,2854.02
22545,2.4265,3.8307,10.5417,1498,2854.02
22550,-1.4533,0.7661,12.1625,1491,2854.02
22555,-3.7314,-0.8116,11.6909,1495,2854.02
22560,-2.0782,2.3703,9.0058,1555,2853.61
22565,1.8531,3.7852,10.2412,1499,2853.61
22570,-0.0874,1.3144,11.8309,1489,2853.61
22575,-2.7869,-1.3815,12.1757,1491,2853.61
22580,-3.4931,1.8651,9.2129,1559,2854.02
22585,1.5,3.4967,10.0832,1493,2854.02
22590,1.6496,2.0339,11.5341,1495,2854.02
22595,-2.0482,-1.3336,12.4343,1489,2854.02
22600,-4.6017,1.3563,9.7157,1496,2854.02
22605,1.075,3.2501,9.8653,1525,2853.75
22610,2.709,2.8814,11.1414,1492,2853.75
22615,-1.5945,-0.6788,12.4642,1489,2853.75
22620,-4.853,0.6273,10.4471,1496,2853.75
22625,0.2741,3.0047,9.4547,1528,2854.15
22630,2.806,3.553,10.7296,1497,2854.15
22635,-1.6233,0.182,12.305,1487,2854.15
22640,-4.3239,-0.1676,11.169,1493,2854.15
22645,-0.9385,2.6959,9.0285,1533,2854.02
22650,2.3008,3.7697,10.4423,1496,2854.02
22655,-1.1636,0.8164,12.0692,1492,2854.02
22660,-3.8786,-1.0104,11.7627,1491,2854.02
22665,-2.3607,2.3176,8.9723,1553,2854.02
22670,1.9489,3.7625,10.3441,1495,2854.02
22675,0.0215,1.4186,11.7627,1491,2854.02
22680,-2.8886,-1.3803,12.1087,1491,2854.02
22685,-3.6452,1.8986,9.2129,1527,2853.75
22690,1.5095,3.5219,10.094,1491,2853.75
22695,1.8364,2.1632,11.4586,1500,2853.75
22700,-1.9932,-1.2402,12.4666,1485,2853.75
22705,-4.5993,1.3108,9.7683,1493,2853.75
22710,1.0606,3.2046,9.8078,1520,2853.88
22715,2.7988,2.903,11.0971,1496,2853.88
22720,-1.6831,-0.6261,12.4008,1491,2853.88
22725,-4.4819,0.4884,10.477,1488,2853.88
22730,0.0036,2.8946,9.3075,1525,2853.75
22735,2.4804,3.4907,10.6829,1501,2853.75
22740,-1.5682,0.2298,12.3038,1492,2853.75
22745,-4.3072,-0.267,11.2551,1490,2853.75
22750,-1.1121,2.7318,9.0513,1531,2853.47
22755,2.1548,3.8379,10.4303,1493,2853.47
22760,-1.0882,0.9445,12.0261,1493,2853.47
22765,-3.8092,-1.0319,11.801,1491,2853.47
22770,-2.478,2.3571,9.0261,1554,2853.34
22775,2.0267,3.7505,10.3394,1497,2853.34
22780,0.261,1.4605,11.7651,1494,2853.34
22785,-2.8,-1.4856,12.2344,1499,2853.34
22790,-3.8092,1.7933,9.25,1555,2853.07
22795,1.5598,3.4046,10.0413,1489,2853.07
22800,1.9525,2.1967,11.3737,1500,2853.07
22805,-2.059,-1.2629,12.4115,1495,2853.07
22810,-4.373,1.2115,9.9192,1495,2853.07
22815,0.7183,3.1568,9.6774,1519,2853.34
22820,2.5738,2.976,11.048,1495,2853.34
22825,-1.5598,-0.5255,12.4091,1495,2853.34
22830,-4.5119,0.5471,10.5656,1492,2853.34
22835,-0.0563,2.976,9.3314,1527,2853.61
22840,2.5355,3.644,10.6674,1497,2853.61
22845,-1.3108,0.3268,12.3038,1491,2853.61
22850,-4.4676,-0.3819,11.2791,1493,2853.61
22855,-1.1827,2.6205,8.9938,1553,2853.47
22860,2.3703,3.8128,10.3729,1493,2853.47
22865,-1.1444,0.8416,11.9542,1494,2853.47
22870,-3.6188,-1.1133,11.8321,1493,2853.47
22875,-2.6312,2.2338,9.0022,1551,2853.34
22880,1.8771,3.6919,10.331,1491,2853.34
22885,0.3879,1.5251,11.7507,1491,2853.34
22890,-2.6743,-1.4102,12.226,1503,2853.34
22895,-3.9253,1.7753,9.3087,1543,2852.8
22900,1.4269,3.45,10.058,1485,2852.8
22905,2.1081,2.3008,11.4024,1500,2852.8
22910,-1.8232,-1.1229,12.4127,1492,2852.8
22915,-4.7154,1.1372,9.8521,1507,2852.8
22920,0.8942,3.152,9.7432,1510,2852.25
22925,2.8587,3.0945,10.9535,1493,2852.25
22930,-1.4257,-0.4094,12.451,1493,2852.25
22935,-4.8471,0.2957,10.5836,1493,2852.25
22940,-0.1245,2.8814,9.3111,1528,2851.58
22945,2.5798,3.6057,10.6231,1495,2851.58
22950,-1.4844,0.3699,12.2523,1487,2851.58
22955,-4.3958,-0.4657,11.3856,1496,2851.58
22960,-1.3958,2.709,9.098,1557,2850.9
22965,2.1691,3.875,10.4555,1493,2850.9
22970,-0.9852,0.9948,11.9507,1495,2850.9
22975,-3.4393,-1.1325,11.9219,1493,2850.9
22980,-2.8491,2.1739,9.0513,1557,2850.36
22985,1.7968,3.6512,10.2197,1495,2850.36
22990,0.7422,1.6221,11.6298,1493,2850.36
22995,-2.4576,-1.4605,12.2894,1498,2850.36
23000,-4.1599,1.6281,9.4176,1557,2849.81
23005,1.3994,3.3435,9.9527,1491,2849.81
23010,2.3272,2.4289,11.2923,1495,2849.81
23015,-1.7454,-1.1097,12.3972,1491,2849.81
23020,-4.7369,1.0008,9.9934,1507,2849.81
23025,0.6596,3.1041,9.6331,1542,2849.68
23030,2.7521,3.2657,10.8972,1499,2849.68
23035,-1.4234,-0.2526,12.3816,1490,2849.68
23040,-4.7525,0.231,10.8062,1495,2849.68
23045,-0.2993,2.8718,9.2093,1529,2849.54
23050,2.6157,3.7314,10.5824,1496,2849.54
23055,-1.5598,0.5459,12.1793,1491,2849.54
23060,-4.0857,-0.6141,11.5424,1499,2849.54
23065,-1.7011,2.5199,8.9615,1555,2849.68
23070,2.077,3.7996,10.3657,1491,2849.68
23075,-0.6285,1.1145,11.8896,1492,2849.68
23080,-3.1675,-1.2234,11.983,1491,2849.68
23085,-2.9544,1.998,9.1722,1557,2849.54
23090,1.5095,3.559,10.2125,1497,2849.54
23095,1.0738,1.8136,11.5688,1495,2849.54
23100,-2.2122,-1.4629,12.317,1486,2849.54
23105,-4.4197,1.5407,9.5672,2616,2849.0
23110,1.2869,3.3531,9.9563,1500,2849.0
23115,2.5462,2.6911,11.1678,1499,2849.0
23120,-1.6137,-0.8607,12.3804,1485,2849.0
23125,-4.8399,0.7685,10.258,1499,2849.0
23130,0.4537,3.073,9.5373,1527,2850.36
23135,2.7629,3.3639,10.7368,1493,2850.36
23140,-1.5622,-0.0551,12.317,1493,2850.36
23145,-4.4496,-0.0275,11.0026,1493,2850.36
23150,-0.7003,2.7665,9.1482,1542,2849.68
23155,2.229,3.7649,10.4675,1497,2849.68
23160,-1.2845,0.7015,12.1542,1491,2849.68
23165,-4.0701,-0.8691,11.6897,1491,2849.68
23170,-2.1045,2.466,8.9926,1560,2849.68
23175,2.0518,3.8116,10.3274,1501,2849.68
23180,-0.255,1.2881,11.8309,1492,2849.68
23185,-2.9796,-1.3384,12.1266,1493,2849.68
23190,-3.4656,1.9704,9.1901,1544,2849.41
23195,1.6879,3.5422,10.1526,1491,2849.41
23200,1.5598,1.9381,11.4563,1503,2849.41
23205,-2.0399,-1.3036,12.4032,1491,2849.41
23210,-4.2581,1.3096,9.7109,1493,2849.41
23215,0.9146,3.2106,9.7456,1517,2849.81
23220,2.5881,2.7773,11.0971,1495,2849.81
23225,-1.5431,-0.7673,12.4044,1490,2849.81
23230,-4.6076,0.5974,10.4028,1490,2849.81
23235,0.097,3.0406,9.4104,1523,2849.81
23240,2.5833,3.5111,10.7272,1505,2849.81
23245,-1.6293,0.1736,12.3265,1495,2849.81
23250,-4.2461,-0.1413,11.1857,1493,2849.81
23255,-0.9565,2.6719,9.0704,1515,2849.54
23260,2.1608,3.7697,10.4351,1495,2849.54
23265,-1.2594,0.814,12.0309,1495,2849.54
23270,-3.5303,-0.9062,11.825,1493,2849.54
23275,-2.3056,2.2685,9.0812,1553,2849.0
23280,1.7011,3.699,10.2508,1496,2849.0
23285,0.0958,1.4533,11.7519,1491,2849.0
23290,-2.6899,-1.4174,12.1949,1497,2849.0
23295,-3.8559,1.8663,9.2991,1560,2849.14
23300,1.5083,3.45,10.1538,1491,2849.14
23305,1.9549,2.1871,11.4371,1501,2849.14
23310,-1.9357,-1.2605,12.39,1493,2849.14
23315,-4.6424,1.1696,9.9108,1502,2849.14
23320,0.9002,3.1867,9.7612,1527,2849.95
23325,2.7857,3.0263,10.9427,1491,2849.95
23330,-1.4724,-0.486,12.4175,1495,2849.95
23335,-4.792,0.4202,10.5872,1492,2849.95
23340,-0.0132,2.9329,9.323,1533,2850.22
23345,2.6145,3.6117,10.7033,1495,2850.22
23350,-1.6209,0.2837,12.299,1483,2850.22
23355,-4.2306,-0.3986,11.3557,1501,2850.22
23360,-1.318,2.636,9.0788,1555,2850.09
23365,2.0925,3.8044,10.3777,1494,2850.09
23370,-1.0558,0.9816,11.9686,1493,2850.09
23375,-3.401,-1.1121,11.9219,1494,2850.09
23380,-2.7414,2.2194,9.0716,1555,2849.95
23385,1.6903,3.6811,10.2699,1497,2849.95
23390,0.6129,1.5862,11.7388,1492,2849.95
23395,-2.6109,-1.3934,12.2439,1501,2849.95
23400,-3.6955,1.6771,9.4631,1559,2849.81
23405,1.2342,3.3351,9.9156,1491,2849.81
23410,2.0853,2.4014,11.333,1487,2849.81
23415,-1.6771,-1.1241,12.4044,1491,2849.81
23420,-4.4341,0.9972,10.0221,1503,2849.81
23425,0.595,3.158,9.5768,1526,2849.68
23430,2.6384,3.1472,10.8912,1483,2849.68
23435,-1.385,-0.3005,12.3696,1491,2849.68
23440,-4.7561,0.1963,10.7392,1492,2849.68
23445,-0.3112,2.9006,9.2859,1532,2849.27
23450,2.496,3.7314,10.641,1493,2849.27
23455,-1.664,0.504,12.1829,1487,2849.27
23460,-3.9337,-0.5016,11.5077,1499,2849.27
23465,-1.5897,2.5055,9.0788,1555,2849.0
23470,1.9561,3.7577,10.307,1493,2849.0
23475,-0.6632,1.1289,11.8944,1491,2849.0
23480,-3.1903,-1.1911,12.0536,1490,2849.0
23485,-3.1125,2.0949,9.1327,1523,2849.14
23490,1.7023,3.6296,10.2376,1495,2849.14
23495,1.0726,1.7992,11.564,1495,2849.14
23500,-2.3727,-1.421,12.2978,1487,2849.14
23505,-3.9911,1.4724,9.5565,1497,2849.14
23510,1.0415,3.2801,9.9563,1523,2849.14
23515,2.3367,2.5917,11.1749,1507,2849.14
23520,-1.6783,-0.9194,12.4367,1491,2849.14
23525,-4.476,0.8823,10.3058,1501,2849.14
23530,0.3555,3.1149,9.5397,1529,2849.14
23535,2.6037,3.3794,10.7871,1497,2849.14
23540,-1.5622,-0.0838,12.3445,1497,2849.14
23545,-4.2988,0.0527,11.0145,1494,2849.14
23550,-0.644,2.7904,9.2021,1531,2849.14
23555,2.2158,3.7373,10.4591,1496,2849.14
23560,-1.4138,0.644,12.1685,1492,2849.14
23565,-3.7637,-0.7649,11.6777,1491,2849.14
23570,-1.9597,2.4433,8.9938,1556,2849.41
23575,1.8555,3.8128,10.2999,1502,2849.41
23580,-0.3448,1.2414,11.8321,1491,2849.41
23585,-2.9736,-1.3563,12.1123,1493,2849.41
23590,-3.3124,1.9549,9.2105,1553,2849.54
23595,1.5119,3.5003,10.167,1489,2849.54
23600,1.4676,1.9836,11.582,1505,2849.54
23605,-2.0578,-1.3168,12.3924,1496,2849.54
23610,-4.4987,1.4018,9.6905,1493,2849.54
23615,1.1624,3.3112,9.8258,1518,2849.68
23620,2.7102,2.8252,11.0911,1493,2849.68
23625,-1.6879,-0.7326,12.3481,1493,2849.68
23630,-4.4388,0.6393,10.4267,1487,2849.68
23635,0.1245,2.9389,9.4763,1525,2849.95
23640,2.5019,3.4429,10.7404,1496,2849.95
23645,-1.336,0.0874,12.3349,1489,2849.95
23650,-4.5765,-0.2454,11.1546,1491,2849.95
23655,-0.9517,2.7473,9.1087,1555,2850.22
23660,2.3164,3.8367,10.4866,1491,2850.22
23665,-1.3803,0.814,12.0345,1496,2850.22
23670,-3.7924,-0.9589,11.807,1497,2850.22
23675,-2.3595,2.3834,9.0237,1557,2850.09
23680,1.9154,3.7517,10.2975,1495,2850.09
23685,0.0982,1.4066,11.7531,1487,2850.09
23690,-2.7976,-1.3623,12.1733,1501,2850.09
23695,-3.5985,1.834,9.2668,1555,2850.22
23700,1.4377,3.4189,10.058,1485,2850.22
23705,1.8615,2.144,11.4144,1499,2850.22
23710,-1.8531,-1.3132,12.4163,1488,2850.22
23715,-4.6316,1.2079,9.8282,1500,2850.22
23720,0.9313,3.1939,9.7384,1525,2849.95
23725,2.733,2.9916,11.0624,1493,2849.95
23730,-1.7047,-0.5734,12.3852,1494,2849.95
23735,-4.4915,0.486,10.5872,1497,2849.95
23740,-0.0419,2.9676,9.4056,1532,2849.81
23745,2.4193,3.5877,10.6171,1495,2849.81
23750,-1.4964,0.3256,12.293,1489,2849.81
23755,-4.1863,-0.3388,11.3198,1501,2849.81
23760,-1.2163,2.6827,9.0633,1545,2849.81
23765,2.162,3.8056,10.4435,1493,2849.81
23770,-1.0511,0.9361,11.9914,1481,2849.81
23775,-3.4812,-1.0894,11.9064,1493,2849.81
23780,-2.6061,2.1979,9.0585,1555,2850.09
23785,1.6939,3.6547,10.2735,1499,2850.09
23790,0.4657,1.5203,11.6921,1494,2850.09
23795,-2.5199,-1.4353,12.2224,1496,2850.09
23800,-3.8259,1.725,9.4044,1557,2850.22
23805,1.2953,3.4177,10.0245,1491,2850.22
23810,2.1476,2.3703,11.3808,1493,2850.22
23815,-1.7538,-1.0511,12.4211,1491,2850.22
23820,-4.6064,1.0894,9.9826,1502,2850.22
23825,0.7518,3.1244,9.6558,1527,2850.22
23830,2.7904,3.0885,10.9235,1493,2850.22
23835,-1.5598,-0.3603,12.3924,1484,2850.22
23840,-4.4652,0.2382,10.7416,1493,2850.22
23845,-0.3448,2.8419,9.2823,1541,2850.09
23850,2.3559,3.6152,10.5512,1496,2850.09
23855,-1.3539,0.4585,12.214,1493,2850.09
23860,-4.221,-0.5986,11.4694,1495,2850.09
23865,-1.6209,2.5738,9.0225,1553,2850.09
23870,2.1691,3.8403,10.4136,1495,2850.09
23875,-0.8116,1.0834,11.9291,1491,2850.09
23880,-3.3902,-1.2438,11.9902,1487,2850.09
23885,-3.0323,2.1799,9.1016,1525,2849.95
23890,1.828,3.6703,10.252,1497,2849.95
23895,0.9481,1.7454,11.6155,1489,2849.95
23900,-2.2877,-1.4437,12.2679,1487,2849.95
23905,-4.112,1.5514,9.4715,1486,2849.95
23910,1.2234,3.2753,9.9168,1526,2849.41
23915,2.3822,2.5079,11.2408,1499,2849.41
23920,-1.6747,-1.0151,12.4822,1491,2849.41
23925,-4.6424,0.8882,10.1634,1498,2849.41
23930,0.4752,3.0909,9.6211,1527,2849.68
23935,2.6827,3.3483,10.8326,1497,2849.68
23940,-1.585,-0.1616,12.3661,1491,2849.68
23945,-4.555,0.103,10.908,1494,2849.68
23950,-0.5016,2.8635,9.2308,1533,2849.27
23955,2.3655,3.8128,10.5381,1497,2849.27
23960,-1.5191,0.6381,12.2044,1491,2849.27
23965,-3.7924,-0.6345,11.5879,1491,2849.27
23970,-1.8016,2.4732,9.0453,1555,2849.27
23975,1.8794,3.7661,10.2699,1500,2849.27
23980,-0.4082,1.1947,11.8561,1500,2849.27
23985,-3.0442,-1.3803,12.0452,1495,2849.27
23990,-3.3651,2.0123,9.1818,1556,2849.41
23995,1.6735,3.5686,10.2113,1495,2849.41
24000,1.3922,1.9309,11.5377,1505,2849.41
24005,-2.1739,-1.3599,12.2978,1495,2849.41
24010,-4.2784,1.4246,9.6881,1495,2849.41
24015,1.0834,3.2549,9.8426,1525,2849.68
24020,2.575,2.7545,11.0959,1493,2849.68
24025,-1.6496,-0.7554,12.4439,1499,2849.68
24030,-4.4843,0.6907,10.4016,1492,2849.68
24035,0.2562,3.0167,9.4152,1524,2850.09
24040,2.6157,3.4201,10.7272,1501,2850.09
24045,-1.3803,0.0766,12.3589,1491,2850.09
24050,-4.5777,-0.1736,11.1175,1495,2850.09
24055,-0.8715,2.788,9.1626,1548,2850.63
24060,2.2649,3.8164,10.5405,1495,2850.63
24065,-1.4269,0.7398,12.1506,1499,2850.63
24070,-3.8642,-0.9361,11.7543,1496,2850.63
24075,-2.2757,2.3511,8.9974,1555,2850.49
24080,1.9118,3.8044,10.3561,1495,2850.49
24085,-0.1089,1.3838,11.8477,1493,2850.49
24090,-2.8922,-1.3827,12.1566,1502,2850.49
24095,-3.3962,1.907,9.335,1560,2850.63
24100,1.4293,3.5422,10.0568,1491,2850.63
24105,1.6879,2.0806,11.5688,1507,2850.63
24110,-1.8914,-1.2785,12.3948,1495,2850.63
24115,-4.525,1.2378,9.7049,1508,2850.63
24120,0.9756,3.2094,9.742,1519,2850.49
24125,2.7162,2.9221,11.0121,1493,2850.49
24130,-1.6568,-0.68,12.3613,1495,2850.49
24135,-4.5789,0.5207,10.5058,1497,2850.49
24140,0.1041,2.9844,9.3925,1541,2850.63
24145,2.4816,3.5829,10.6853,1493,2850.63
24150,-1.482,0.2059,12.3122,1485,2850.63
24155,-4.4652,-0.2634,11.224,1503,2850.63
24160,-1.0918,2.6911,9.0884,1517,2850.63
24165,2.3343,3.8499,10.477,1493,2850.63
24170,-1.1708,0.8835,12.0153,1495,2850.63
24175,-3.6871,-1.0415,11.8405,1495,2850.63
24180,-2.5091,2.2817,9.1016,1550,2850.63
24185,1.9094,3.6847,10.2807,1499,2850.63
24190,0.3172,1.4246,11.6753,1493,2850.63
24195,-2.6647,-1.476,12.1733,1501,2850.63
24200,-3.8966,1.7454,9.2967,1527,2850.76
24205,1.4724,3.4321,10.1155,1491,2850.76
24210,2.0255,2.2805,11.3952,1493,2850.76
24215,-1.8699,-1.1744,12.4271,1484,2850.76
24220,-4.6208,1.1552,9.9371,1505,2850.76
24225,0.8392,3.2022,9.7229,1529,2850.9
24230,2.7797,3.0777,10.9343,1491,2850.9
24235,-1.4676,-0.4441,12.4463,1486,2850.9
24240,-4.8351,0.3747,10.6554,1491,2850.9
24245,-0.0455,2.9281,9.3685,1543,2851.03
24250,2.6384,3.6547,10.6398,1491,2851.03
24255,-1.6017,0.3603,12.2344,1487,2851.03
24260,-4.2509,-0.5016,11.3222,1496,2851.03
24265,-1.3874,2.5654,8.9603,1551,2851.03
24270,2.132,3.7745,10.3501,1492,2851.03
24275,-0.9254,0.9661,12.0033,1493,2851.03
24280,-3.5578,-1.1911,11.9351,1492,2851.03
24285,-2.8335,2.2565,9.0297,1530,2850.9
24290,1.8507,3.7206,10.2723,1495,2850.9
24295,0.6776,1.6364,11.6909,1497,2850.9
24300,-2.5414,-1.4341,12.2487,1491,2850.9
24305,-4.0414,1.67,9.4774,1494,2850.9
24310,1.4748,3.3698,9.9264,1533,2851.03
24315,2.2948,2.3834,11.3581,1497,2851.03
24320,-1.7166,-1.1384,12.451,1486,2851.03
24325,-4.7489,0.9589,9.9886,1499,2851.03
24330,0.741,3.1089,9.6259,1528,2851.17
24335,2.7916,3.1639,10.9152,1495,2851.17
24340,-1.6005,-0.3436,12.3864,1497,2851.17
24345,-4.5969,0.1796,10.8314,1495,2851.17
24350,-0.3448,2.8659,9.2536,1528,2851.03
24355,2.3643,3.7206,10.58,1498,2851.03
24360,-1.4234,0.5136,12.2535,1490,2851.03
24365,-4.2677,-0.6273,11.4239,1491,2851.03
24370,-1.6161,2.5798,9.0022,1549,2850.63
24375,2.2003,3.8607,10.3837,1505,2850.63
24380,-0.7254,1.0786,11.8944,1491,2850.63
24385,-3.2142,-1.1875,12.0392,1494,2850.63
24390,-2.8862,2.0794,9.098,1561,2850.22
24395,1.6364,3.5374,10.1658,1491,2850.22
24400,0.9876,1.7274,11.5233,1499,2850.22
24405,-2.241,-1.4353,12.2775,1490,2850.22
24410,-4.3443,1.5359,9.4439,1491,2850.22
24415,1.3072,3.3507,9.979,1519,2851.17
24420,2.4157,2.6121,11.1989,1495,2851.17
24425,-1.7262,-0.9086,12.4738,1493,2851.17
24430,-4.8231,0.8667,10.222,1486,2851.17
24435,0.6033,3.1053,9.5732,1520,2850.76
24440,2.7976,3.3818,10.7859,1501,2850.76
24445,-1.5203,-0.0994,12.4068,1493,2850.76
24450,-4.6172,0.0467,10.8984,1495,2850.76
24455,-0.4896,2.8419,9.2237,1525,2850.76
24460,2.4277,3.7469,10.5512,1501,2850.76
24465,-1.5335,0.6464,12.1745,1496,2850.76
24470,-3.8954,-0.7494,11.5975,1493,2850.76
24475,-1.895,2.4002,8.9723,1551,2851.03
24480,1.8914,3.8008,10.3082,1494,2851.03
24485,-0.4094,1.2115,11.9016,1491,2851.03
24490,-3.1388,-1.3527,12.1578,1497,2851.03
24495,-3.3854,2.065,9.2045,1524,2850.76
24500,1.6843,3.6164,10.2113,1491,2850.76
24505,1.385,1.9178,11.5424,1501,2850.76
24510,-2.1691,-1.3216,12.2823,1495,2850.76
24515,-4.2665,1.4234,9.5924,1503,2850.76
24520,1.1097,3.2884,9.8701,1517,2851.58
24525,2.6396,2.7366,11.1151,1492,2851.58
24530,-1.5083,-0.7829,12.4451,1497,2851.58
24535,-4.8375,0.668,10.3274,1494,2851.58
24540,0.4274,3.0179,9.4774,1522,2851.71
24545,2.7138,3.4129,10.744,1491,2851.71
24550,-1.5838,-0.0455,12.3014,1491,2851.71
24555,-4.6555,-0.1616,11.0277,1496,2851.71
24560,-0.8009,2.7557,9.1315,1557,2851.71
24565,2.3463,3.8367,10.5285,1491,2851.71
24570,-1.3503,0.747,12.1111,1497,2851.71
24575,-3.9696,-0.8859,11.7304,1491,2851.71
24580,-2.1536,2.3798,8.9854,1551,2851.71
24585,2.0638,3.7816,10.3082,1487,2851.71
24590,-0.1568,1.3288,11.7723,1487,2851.71
24595,-2.8611,-1.3982,12.1877,1499,2851.71
24600,-3.5171,1.8806,9.1818,1561,2851.85
24605,1.5814,3.4895,10.1059,1486,2851.85
24610,1.67,2.0806,11.4431,1496,2851.85
24615,-2.0351,-1.3587,12.3828,1493,2851.85
24620,-4.5897,1.3001,9.7264,1506,2851.85
24625,1.087,3.2465,9.8102,1519,2852.12
24630,2.6552,2.8754,11.0325,1485,2852.12
24635,-1.7119,-0.6393,12.4307,1492,2852.12
24640,-4.6962,0.6033,10.4543,1495,2852.12
24645,0.1688,3.0215,9.3996,1528,2852.93
24650,2.6528,3.5757,10.6961,1494,2852.93
24655,-1.4341,0.2071,12.305,1487,2852.93
24660,-4.5789,-0.2801,11.0887,1501,2852.93
24665,-0.9385,2.6947,9.0273,1557,2854.02
24670,2.3523,3.814,10.4339,1493,2854.02
24675,-1.3647,0.8236,12.0835,1493,2854.02
24680,-3.6308,-0.978,11.8082,1493,2854.02
24685,-2.2565,2.2637,9.0453,1553,2855.51
24690,1.6963,3.7469,10.2604,1495,2855.51
24695,0.1197,1.4138,11.8369,1491,2855.51
24700,-2.7857,-1.3838,12.2044,1499,2855.51
24705,-3.5674,1.8507,9.3111,1555,2856.19
24710,1.4293,3.5171,10.094,1485,2856.19
24715,1.8244,2.1572,11.4383,1491,2856.19
24720,-2.0973,-1.2617,12.3804,1486,2856.19
24725,-4.3371,1.2546,9.7516,1507,2856.19
24730,0.9433,3.2262,9.7456,1525,2856.33
24735,2.6839,2.9377,11.0265,1491,2856.33
24740,-1.549,-0.6189,12.396,1490,2856.33
24745,-4.6471,0.5171,10.4986,1493,2856.33
24750,0.0694,2.964,9.3733,1541,2855.92
24755,2.5594,3.5362,10.6877,1493,2855.92
24760,-1.5395,0.1425,12.3146,1487,2855.92
24765,-4.4017,-0.2921,11.2108,1498,2855.92
24770,-1.0199,2.6971,9.0836,1555,2854.7
24775,2.2362,3.8307,10.483,1485,2854.7
24780,-1.221,0.8775,12.0907,1485,2854.7
24785,-3.8032,-1.0343,11.8321,1491,2854.7
24790,-2.3559,2.3068,9.0106,1549,2853.47
24795,2.0602,3.8367,10.3489,1493,2853.47
24800,0.1305,1.4329,11.7364,1483,2853.47
24805,-2.7438,-1.4162,12.2212,1487,2853.47
24810,-3.6691,1.7813,9.2548,1546,2852.66
24815,1.4653,3.4297,10.0545,1481,2852.66
24820,1.8687,2.1955,11.3964,1491,2852.66
24825,-1.9405,-1.2905,12.3912,1483,2852.66
24830,-4.6687,1.1911,9.8162,1499,2852.66
24835,0.9912,3.1915,9.7659,1510,2852.25
24840,2.7485,3.0119,11.048,1481,2852.25
24845,-1.64,-0.571,12.3984,1481,2852.25
24850,-4.725,0.4405,10.5716,1487,2852.25
24855,-0.0156,2.9616,9.3745,1516,2852.12
24860,2.6169,3.6152,10.6985,1483,2852.12
24865,-1.5598,0.3172,12.3026,1481,2852.12
24870,-4.3826,-0.3531,11.2982,1487,2852.12
24875,-1.1887,2.63,9.0345,1532,2852.12
24880,2.2853,3.7936,10.4746,1484,2852.12
24885,-1.1265,0.8942,12.0129,1483,2852.12
24890,-3.5243,-1.1073,11.8333,1483,2852.12
24895,-2.5905,2.2721,9.0872,1512,2851.98
24900,1.7334,3.6643,10.2735,1491,2851.98
24905,0.4477,1.5526,11.734,1485,2851.98
24910,-2.6971,-1.4389,12.2092,1483,2851.98
24915,-3.8235,1.737,9.4379,1491,2851.98
24920,1.3731,3.4022,10.0688,1516,2851.98
24925,2.077,2.3367,11.4036,1493,2851.98
24930,-1.7885,-1.1061,12.3529,1483,2851.98
24935,-4.6675,1.1157,9.9575,1493,2851.98
24940,0.8224,3.2046,9.6247,1514,2851.98
24945,2.8671,3.0873,10.9607,1485,2851.98
24950,-1.5083,-0.3819,12.3637,1485,2851.98
24955,-4.7501,0.2406,10.6267,1485,2851.98
24960,-0.1377,2.8766,9.2285,1525,2851.71
24965,2.5355,3.6679,10.6386,1493,2851.71
24970,-1.6843,0.4154,12.2691,1483,2851.71
24975,-4.1587,-0.4812,11.4156,1481,2851.71
24980,-1.4461,2.5965,8.9926,1545,2851.58
24985,2.0446,3.8607,10.4172,1493,2851.58
24990,-0.9278,1.0199,11.9854,1485,2851.58
24995,-3.371,-1.1241,11.9614,1484,2851.58
25000,-2.7282,2.1859,9.1375,1548,2851.3
25005,1.7454,3.7134,10.2604,1482,2851.3
25010,0.723,1.6053,11.6789,1491,2851.3
25015,-2.405,-1.4617,12.2344,1479,2851.3
25020,-3.96,1.6328,9.3865,1483,2851.3
25025,1.3048,3.4058,9.9934,1510,2851.03
25030,2.2422,2.4361,11.2803,1483,2851.03
25035,-1.749,-1.0726,12.4151,1483,2851.03
25040,-4.5909,0.9361,10.0724,1486,2851.03
25045,0.5914,3.1149,9.6163,1508,2850.63
25050,2.7007,3.2298,10.8852,1495,2850.63
25055,-1.5886,-0.2693,12.3696,1485,2850.63
25060,-4.5442,0.2131,10.8302,1483,2850.63
25065,-0.407,2.8982,9.256,1509,2850.9
25070,2.4169,3.7314,10.5668,1483,2850.9
25075,-1.5778,0.5411,12.1697,1487,2850.9
25080,-3.9289,-0.5926,11.5496,1483,2850.9
25085,-1.6544,2.4876,9.0273,1533,2850.76
25090,1.9932,3.7733,10.3046,1487,2850.76
25095,-0.6333,1.1301,11.9135,1483,2850.76
25100,-3.1783,-1.2881,12.0452,1487,2850.76
25105,-3.1328,2.1105,9.147,1512,2850.76
25110,1.7023,3.6033,10.2065,1479,2850.76
25115,1.1313,1.8088,11.6071,1495,2850.76
25120,-2.4517,-1.3982,12.2332,1485,2850.76
25125,-4.0282,1.4844,9.6187,1491,2850.76
25130,1.1061,3.2693,9.93,1499,2851.44
25135,2.3822,2.6755,11.2252,1483,2851.44
25140,-1.6652,-0.9062,12.4187,1485,2851.44
25145,-4.6029,0.8727,10.24,1481,2851.44
25150,0.4836,3.0825,9.4774,1507,2851.71
25155,2.7162,3.3591,10.8745,1483,2851.71
25160,-1.5862,-0.1149,12.2703,1481,2851.71
25165,-4.4628,-0.0443,10.9619,1484,2851.71
25170,-0.6081,2.7821,9.1758,1525,2851.58
25175,2.3415,3.7553,10.5788,1481,2851.58
25180,-1.4712,0.65,12.1278,1486,2851.58
25185,-3.9756,-0.7889,11.6143,1485,2851.58
25190,-1.9381,2.4457,8.9974,1541,2851.3
25195,1.9704,3.7984,10.3477,1481,2851.3
25200,-0.4274,1.2186,11.8669,1482,2851.3
25205,-3.0107,-1.3587,12.1051,1495,2851.3
25210,-3.3459,2.0016,9.1818,1549,2851.03
25215,1.6496,3.5913,10.1514,1481,2851.03
25220,1.4473,1.9417,11.5556,1487,2851.03
25225,-2.2422,-1.3587,12.3074,1481,2851.03
25230,-4.1599,1.4162,9.6486,1495,2851.03
25235,1.0618,3.2346,9.8258,1511,2851.03
25240,2.5103,2.7007,11.0852,1486,2851.03
25245,-1.4222,-0.8212,12.3804,1485,2851.03
25250,-4.8255,0.644,10.2472,1482,2851.03
25255,0.3208,3.0586,9.5086,1515,2851.03
25260,2.7234,3.4584,10.7619,1485,2851.03
25265,-1.6604,0.0455,12.3074,1481,2851.03
25270,-4.5071,-0.1484,11.0959,1492,2851.03
25275,-0.8045,2.7545,9.1566,1547,2851.17
25280,2.3355,3.8199,10.4184,1485,2851.17
25285,-1.3024,0.759,12.0907,1485,2851.17
25290,-3.875,-0.9373,11.7304,1484,2851.17
25295,-2.235,2.4277,9.0633,1547,2851.03
25300,2.047,3.7673,10.319,1493,2851.03
25305,-0.0898,1.3408,11.7938,1483,2851.03
25310,-2.8814,-1.3862,12.1625,1493,2851.03
25315,-3.5386,1.8699,9.2225,1547,2850.9
25320,1.5119,3.4704,10.0916,1497,2850.9
25325,1.6735,2.1129,11.4778,1496,2850.9
25330,-2.0279,-1.2737,12.4247,1481,2850.9
25335,-4.5586,1.2737,9.76,1496,2850.9
25340,1.0283,3.2513,9.7743,1511,2850.76
25345,2.7258,2.9401,11.0205,1485,2850.76
25350,-1.5371,-0.5914,12.469,1477,2850.76
25355,-4.7585,0.5076,10.4938,1485,2850.76
25360,0.1652,2.9712,9.408,1520,2851.03
25365,2.6767,3.5518,10.6674,1485,2851.03
25370,-1.5514,0.1784,12.317,1481,2851.03
25375,-4.4772,-0.3292,11.2025,1485,2851.03
25380,-1.0594,2.6887,9.0249,1531,2851.03
25385,2.296,3.8259,10.4734,1485,2851.03
25390,-1.2246,0.8116,12.0297,1481,2851.03
25395,-3.6823,-1.0618,11.8525,1485,2851.03
25400,-2.5055,2.3236,9.0022,1515,2851.03
25405,1.8938,3.7302,10.3034,1486,2851.03
25410,0.2765,1.4593,11.6921,1485,2851.03
25415,-2.7641,-1.4449,12.22,1481,2851.03
25420,-3.8463,1.8375,9.2823,1487,2851.03
25425,1.5921,3.4692,10.1179,1511,2851.03
25430,2.0686,2.2829,11.4108,1493,2851.03
25435,-1.8459,-1.1959,12.3876,1485,2851.03
25440,-4.5861,1.1289,9.8438,1491,2851.03
25445,0.8775,3.1556,9.7025,1516,2851.03
25450,2.7629,3.0071,10.9535,1489,2851.03
25455,-1.4928,-0.5076,12.3649,1485,2851.03
25460,-4.8111,0.3412,10.6171,1483,2851.03
25465,-0.0718,2.9401,9.396,1519,2851.03
25470,2.5929,3.6583,10.6769,1493,2851.03
25475,-1.6604,0.31,12.2595,1481,2851.03
25480,-4.3419,-0.4202,11.3725,1485,2851.03
25485,-1.3252,2.642,9.0477,1547,2850.9
25490,2.2589,3.8547,10.4052,1497,2850.9
25495,-1.0008,0.9948,11.9722,1485,2850.9
25500,-3.5279,-1.1576,11.9566,1487,2850.9
25505,-2.7461,2.2446,9.0609,1545,2850.9
25510,1.8459,3.6859,10.2185,1483,2850.9
25515,0.6309,1.5981,11.6669,1496,2850.9
25520,-2.6157,-1.4796,12.1793,1484,2850.9
25525,-3.8367,1.6293,9.4727,1485,2850.9
25530,1.2582,3.3531,9.9838,1513,2851.17
25535,2.0949,2.3667,11.3653,1491,2851.17
25540,-1.901,-1.1241,12.3337,1483,2851.17
25545,-4.3706,1.0343,10.1215,1484,2851.17
25550,0.5974,3.1472,9.5912,1507,2851.58
25555,2.5989,3.2226,10.9343,1496,2851.58
25560,-1.5969,-0.3316,12.3409,1485,2851.58
25565,-4.3395,0.2969,10.7978,1485,2851.58
25570,-0.2598,2.9113,9.2081,1503,2851.85
25575,2.3379,3.6631,10.5979,1491,2851.85
25580,-1.5395,0.486,12.2655,1495,2851.85
25585,-3.9145,-0.5614,11.4263,1487,2851.85
25590,-1.5179,2.5211,9.0537,1544,2852.39
25595,1.9166,3.7433,10.3382,1489,2852.39
25600,-0.7961,1.069,11.9088,1485,2852.39
25605,-3.2154,-1.2234,11.9626,1493,2852.39
25610,-2.9233,2.15,9.1435,1515,2852.66
25615,1.6676,3.644,10.2029,1481,2852.66
25620,0.9493,1.7597,11.6191,1494,2852.66
25625,-2.3403,-1.3767,12.2954,1485,2852.66
25630,-4.1408,1.6221,9.505,1495,2852.66
25635,1.3408,3.3866,9.9204,1503,2852.93
25640,2.4493,2.5343,11.2851,1484,2852.93
25645,-1.7358,-0.9876,12.3852,1491,2852.93
25650,-4.5729,0.8787,10.1239,1485,2852.93
25655,0.5148,3.0502,9.5936,1508,2852.93
25660,2.7174,3.2741,10.823,1490,2852.93
25665,-1.4425,-0.1915,12.4295,1480,2852.93
25670,-4.7106,0.0634,10.8816,1489,2852.93
25675,-0.4238,2.8276,9.2129,1549,2852.93
25680,2.4397,3.7637,10.5189,1484,2852.93
25685,-1.64,0.5602,12.2176,1491,2852.93
25690,-4.057,-0.6776,11.5736,1490,2852.93
25695,-1.7669,2.484,8.9914,1545,2852.66
25700,2.0614,3.8008,10.3872,1491,2852.66
25705,-0.5997,1.1696,11.9531,1485,2852.66
25710,-3.2382,-1.2941,12.056,1497,2852.66
25715,-3.1639,2.0518,9.1111,1555,2852.8
25720,1.8364,3.6464,10.2436,1481,2852.8
25725,1.142,1.822,11.6071,1485,2852.8
25730,-2.2793,-1.4521,12.3074,1485,2852.8
25735,-4.1755,1.4449,9.5924,1481,2852.8
25740,1.1696,3.2789,9.8928,1513,2852.93
25745,2.4385,2.6504,11.2611,1485,2852.93
25750,-1.7633,-0.9313,12.4175,1487,2852.93
25755,-4.6196,0.8068,10.2125,1490,2852.93
25760,0.4262,3.0718,9.5505,1517,2852.93
25765,2.7054,3.3591,10.7967,1487,2852.93
25770,-1.4964,-0.0898,12.3158,1483,2852.93
25775,-4.6555,0.0096,10.9702,1495,2852.93
25780,-0.4944,2.8443,9.1638,1525,2852.93
25785,2.4924,3.7948,10.5321,1485,2852.93
25790,-1.4988,0.6416,12.1063,1481,2852.93
25795,-4.0438,-0.7614,11.643,1491,2852.93
25800,-1.8675,2.4888,8.9699,1549,2853.2
25805,2.0171,3.7242,10.3322,1494,2853.2
25810,-0.3831,1.2091,11.8262,1485,2853.2
25815,-3.1639,-1.3635,12.0668,1493,2853.2
25820,-3.395,2.0063,9.1913,1554,2853.07
25825,1.6915,3.5638,10.2113,1485,2853.07
25830,1.3683,1.9525,11.5843,1490,2853.07
25835,-2.2302,-1.3815,12.3601,1483,2853.07
25840,-4.385,1.4569,9.5972,1499,2853.07
25845,1.2139,3.2908,9.8569,1519,2853.47
25850,2.6384,2.7414,11.1426,1481,2853.47
25855,-1.5718,-0.7805,12.4103,1483,2853.47
25860,-4.7345,0.6967,10.2903,1484,2853.47
25865,0.4154,3.0275,9.4774,1528,2853.75
25870,2.7869,3.3938,10.7895,1490,2853.75
25875,-1.6077,-0.0132,12.2846,1481,2853.75
25880,-4.5406,-0.1173,10.975,1491,2853.75
25885,-0.759,2.7019,9.0776,1547,2853.75
25890,2.3092,3.7553,10.4675,1486,2853.75
25895,-1.421,0.7147,12.1278,1485,2853.75
25900,-3.984,-0.8835,11.7041,1485,2853.75
25905,-2.0913,2.4373,9.0214,1513,2853.47
25910,2.0818,3.8487,10.3394,1493,2853.47
25915,-0.2622,1.324,11.8417,1487,2853.47
25920,-2.9856,-1.2857,12.123,1487,2853.47
25925,-3.2705,1.962,9.262,1515,2853.34
25930,1.5706,3.5159,10.1275,1491,2853.34
25935,1.482,1.9704,11.5137,1496,2853.34
25940,-2.0207,-1.3886,12.4139,1480,2853.34
25945,-4.4831,1.3348,9.681,1493,2853.34
25950,1.1612,3.286,9.7959,1517,2853.75
25955,2.6408,2.8144,11.072,1487,2853.75
25960,-1.658,-0.7997,12.4103,1479,2853.75
25965,-4.8638,0.6428,10.3633,1490,2853.75
25970,0.3591,2.9951,9.4763,1525,2853.75
25975,2.6959,3.4991,10.732,1490,2853.75
25980,-1.7681,0.0886,12.3361,1481,2853.75
25985,-4.3275,-0.0754,11.1103,1491,2853.75
25990,-0.7745,2.7737,9.0836,1545,2854.15
25995,2.2996,3.802,10.4136,1487,2854.15
26000,-1.2402,0.7649,12.0979,1484,2854.15
26005,-3.8283,-0.9469,11.7388,1487,2854.15
26010,-2.241,2.375,8.934,1508,2854.42
26015,2.047,3.735,10.3453,1493,2854.42
26020,-0.0335,1.3072,11.7543,1489,2854.42
26025,-2.9365,-1.4305,12.1422,1489,2854.42
26030,-3.4608,1.8567,9.2476,1492,2854.56
26035,1.4928,3.4788,10.1442,1495,2854.56
26040,1.6388,2.071,11.5233,1493,2854.56
26045,-2.2063,-1.306,12.3744,1486,2854.56
26050,-4.2605,1.3635,9.7791,1495,2854.56
26055,0.911,3.2633,9.7863,1516,2854.7
26060,2.5989,2.8599,11.1474,1490,2854.7
26065,-1.4796,-0.6572,12.384,1485,2854.7
26070,-4.7274,0.5674,10.3477,1491,2854.7
26075,0.2023,2.9856,9.4008,1525,2854.83
26080,2.7306,3.5243,10.7404,1486,2854.83
26085,-1.6747,0.1437,12.2463,1483,2854.83
26090,-4.3503,-0.2514,11.1438,1487,2854.83
26095,-0.9242,2.6815,9.0944,1547,2854.7
26100,2.217,3.8128,10.422,1494,2854.7
26105,-1.2833,0.8272,12.1087,1490,2854.7
26110,-3.8535,-0.9708,11.8369,1482,2854.7
26115,-2.3703,2.399,9.0465,1553,2854.7
26120,1.9668,3.8199,10.3286,1491,2854.7
26125,0.0251,1.4018,11.7783,1493,2854.7
26130,-2.8922,-1.3563,12.1446,1483,2854.7
26135,-3.4465,1.9022,9.2356,1487,2854.7
26140,1.4676,3.462,10.064,1519,2854.02
26145,1.7514,2.1261,11.4646,1492,2854.02
26150,-1.962,-1.2917,12.4343,1482,2854.02
26155,-4.3551,1.2426,9.839,1495,2854.02
26160,0.9218,3.1843,9.7755,1517,2854.02
26165,2.5833,2.903,11.048,1494,2854.02
26170,-1.5048,-0.6776,12.4103,1491,2854.02
26175,-4.8758,0.4848,10.4423,1485,2854.02
26180,0.1903,2.9916,9.4008,1523,2854.02
26185,2.6983,3.6057,10.6769,1491,2854.02
26190,-1.7585,0.2466,12.323,1483,2854.02
26195,-4.3754,-0.1951,11.2132,1486,2854.02
26200,-0.9625,2.7569,9.08,1547,2853.88
26205,2.2781,3.8511,10.4016,1499,2853.88
26210,-1.1432,0.8847,12.0859,1485,2853.88
26215,-3.729,-1.0762,11.8034,1493,2853.88
26220,-2.4361,2.2889,8.9591,1553,2854.42
26225,2.0147,3.7924,10.3226,1487,2854.42
26230,0.1652,1.4114,11.795,1493,2854.42
26235,-2.806,-1.4449,12.2523,1483,2854.42
26240,-3.7577,1.8028,9.2261,1484,2854.42
26245,1.5036,3.4429,10.1035,1519,2854.83
26250,1.9154,2.1823,11.4515,1493,2854.83
26255,-1.6867,-0.5351,12.4044,1501,2854.83
26260,-4.5693,0.4896,10.5345,1487,2854.83
26265,0.0778,2.964,9.3494,1518,2855.51
26270,2.6121,3.5314,10.671,1495,2855.51
26275,-1.4928,0.255,12.2272,1491,2855.51
26280,-4.3886,-0.3627,11.2336,1487,2855.51
26285,-1.1097,2.6288,9.0022,1525,2855.78
26290,2.2793,3.8068,10.4782,1493,2855.78
26295,-1.1504,0.8104,12.1135,1486,2855.78
26300,-3.7972,-1.1037,11.8226,1491,2855.78
26305,-2.545,2.3116,8.9986,1553,2855.38
26310,1.9668,3.7589,10.313,1493,2855.38
26315,0.2418,1.494,11.7388,1486,2855.38
26320,-2.8419,-1.3982,12.2009,1487,2855.38
26325,-3.8032,1.8938,9.3278,1545,2855.24
26330,1.585,3.5015,10.1203,1487,2855.24
26335,2.0027,2.1955,11.4431,1499,2855.24
26340,-2.1105,-1.2546,12.3385,1484,2855.24
26345,-4.3096,1.2043,9.8126,1485,2855.24
26350,0.7937,3.1484,9.6774,1513,2854.56
26355,2.6396,2.9353,10.9858,1491,2854.56
26360,-1.4401,-0.5531,12.378,1487,2854.56
26365,-4.7764,0.4226,10.5381,1487,2854.56
26370,0.0204,2.9652,9.3182,1513,2854.42
26375,2.5606,3.6308,10.6769,1497,2854.42
26380,-1.7166,0.2765,12.2583,1487,2854.42
26385,-4.4113,-0.3208,11.309,1491,2854.42
26390,-1.1265,2.7114,9.0369,1523,2854.56
26395,2.2841,3.8978,10.4818,1493,2854.56
26400,-1.1696,0.9026,12.0512,1497,2854.56
26405,-3.5985,-1.0259,11.8537,1490,2854.56
26410,-2.5199,2.2948,9.0429,1547,2854.83
26415,1.9405,3.7062,10.3142,1495,2854.83
26420,0.4034,1.4892,11.71,1489,2854.83
26425,-2.7414,-1.5012,12.1781,1493,2854.83
26430,-3.875,1.731,9.317,1531,2855.51
26435,1.5083,3.4237,10.1023,1483,2855.51
26440,2.0051,2.2601,11.4263,1499,2855.51
26445,-2.0027,-1.2677,12.4199,1493,2855.51
26450,-4.6843,1.1696,9.9012,1487,2855.51
26455,0.9457,3.2501,9.7264,1504,2855.92
26460,2.8,3.0742,10.9619,1491,2855.92
26465,-1.6316,-0.4274,12.4738,1487,2855.92
26470,-4.6866,0.4525,10.6195,1485,2855.92
26475,0.0204,2.9963,9.2859,1523,2856.33
26480,2.6695,3.5757,10.6494,1494,2856.33
26485,-1.6089,0.3053,12.3158,1485,2856.33
26490,-4.306,-0.4154,11.2887,1491,2856.33
26495,-1.2474,2.5977,9.0166,1513,2856.33
26500,2.1416,3.729,10.4232,1493,2856.33
26505,-1.1049,0.8751,12.0776,1495,2856.33
26510,-3.6284,-1.1444,11.8944,1485,2856.33
26515,-2.624,2.3092,9.0357,1547,2856.46
26520,1.8699,3.7589,10.2568,1495,2856.46
26525,0.3759,1.4808,11.7543,1485,2856.46
26530,-2.7414,-1.3898,12.2775,1492,2856.46
26535,-3.7733,1.8148,9.3194,1546,2856.19
26540,1.4808,3.4704,10.0173,1481,2856.19
26545,2.0662,2.2158,11.3868,1497,2856.19
26550,-1.8232,-1.2079,12.4091,1493,2856.19
26555,-4.6436,1.1253,9.8222,1491,2856.19
26560,0.9194,3.1939,9.6426,1509,2854.97
26565,2.8108,3.0347,11.0085,1490,2854.97
26570,-1.7131,-0.5279,12.3445,1493,2854.97
26575,-4.476,0.4106,10.6267,1487,2854.97
26580,-0.0634,2.891,9.3374,1518,2853.88
26585,2.4146,3.5997,10.6171,1495,2853.88
26590,-1.5993,0.3496,12.2858,1485,2853.88
26595,-4.2868,-0.3292,11.3353,1490,2853.88
26600,-1.2737,2.6707,9.0704,1545,2853.34
26605,2.1656,3.881,10.4327,1491,2853.34
26610,-1.0463,0.9948,12.0009,1495,2853.34
26615,-3.5494,-1.1001,11.8908,1496,2853.34
26620,-2.6707,2.2158,9.0549,1549,2853.2
26625,1.9561,3.7062,10.2783,1493,2853.2
26630,0.5351,1.5299,11.7448,1487,2853.2
26635,-2.6624,-1.5107,12.2559,1496,2853.2
26640,-3.9564,1.7142,9.3589,1553,2852.93
26645,1.4844,3.3974,9.997,1489,2852.93
26650,2.1237,2.3164,11.3737,1497,2852.93
26655,-1.9022,-1.1827,12.3816,1491,2852.93
26660,-4.6747,1.1109,9.9946,1499,2852.93
26665,0.8464,3.1639,9.7504,1508,2853.07
26670,2.8072,3.1903,10.9164,1491,2853.07
26675,-1.5467,-0.3268,12.3649,1491,2853.07
26680,-4.7417,0.3364,10.6853,1486,2853.07
26685,-0.0587,2.9425,9.2596,1522,2853.2
26690,2.6635,3.6571,10.6662,1493,2853.2
26695,-1.5538,0.3867,12.2655,1484,2853.2
26700,-4.2605,-0.5375,11.4323,1495,2853.2
26705,-1.391,2.5833,9.0118,1543,2853.07
26710,2.1452,3.7685,10.3322,1487,2853.07
26715,-0.9325,1.0319,11.995,1495,2853.07
26720,-3.5434,-1.2186,11.9351,1491,2853.07
26725,-2.8922,2.2027,9.1016,1551,2852.8
26730,1.8328,3.6464,10.2532,1484,2852.8
26735,0.6907,1.6903,11.7376,1493,2852.8
26740,-2.5893,-1.391,12.2416,1491,2852.8
26745,-4.0713,1.7466,9.3996,1553,2852.39
26750,1.4473,3.3818,9.9347,1487,2852.39
26755,2.375,2.4493,11.2994,1494,2852.39
26760,-1.7561,-1.0331,12.4139,1487,2852.39
26765,-4.689,0.9493,10.0952,1501,2852.39
26770,0.7422,3.0861,9.6522,1523,2853.2
26775,2.8,3.1675,10.8924,1492,2853.2
26780,-1.5526,-0.3364,12.3672,1487,2853.2
26785,-4.6938,0.1137,10.7081,1495,2853.2
26790,-0.3268,2.8563,9.2273,1527,2852.66
26795,2.4265,3.6955,10.5955,1493,2852.66
26800,-1.725,0.5064,12.2332,1485,2852.66
26805,-4.1216,-0.5854,11.5305,1496,2852.66
26810,-1.5981,2.569,9.0896,1557,2852.52
26815,2.0937,3.8607,10.3681,1492,2852.52
