timestamp_ms,ax,ay,az,acs_adc,rpm
10609,-0.7111,2.745,8.2624,1463,2953.92
10614,2.6707,3.8559,10.4267,1445,2953.92
10619,-0.8942,0.4489,12.8329,1433,2953.92
10624,-4.853,-0.9206,11.661,1444,2953.92
10629,-1.2079,2.5594,8.2863,1468,2954.36
10634,2.478,3.8511,10.3346,1445,2954.36
10639,-0.6943,0.6776,12.7886,1437,2954.36
10644,-4.6148,-1.1492,11.8657,1451,2954.36
10649,-1.6963,2.5031,8.3246,1471,2954.5
10654,2.387,3.9025,10.2987,1443,2954.5
10659,-0.4202,0.8906,12.6725,1444,2954.5
10664,-4.4053,-1.3575,12.0752,1437,2954.5
10669,-2.2517,2.4553,8.3354,1466,2954.36
10674,2.241,3.8894,10.1742,1443,2954.36
10679,-0.0443,1.1025,12.4666,1445,2954.36
10684,-4.1946,-1.4796,12.2667,1444,2954.36
10689,-2.7677,2.3691,8.4791,1471,2954.36
10694,2.1967,3.899,10.0485,1449,2954.36
10699,0.3735,1.4102,12.3744,1439,2954.36
10704,-3.8223,-1.5981,12.4451,1439,2954.36
10709,-3.2549,2.2541,8.5904,1477,2954.36
10714,2.1368,3.8223,9.8916,1449,2954.36
10719,0.9278,1.5502,12.2116,1439,2954.36
10724,-3.4656,-1.7178,12.5696,1443,2954.36
10729,-3.7182,2.1368,8.77,1454,2954.21
10734,2.0949,3.7314,9.7947,1449,2954.21
10739,1.4174,1.834,12.0823,1443,2954.21
10744,-3.1627,-1.7298,12.6701,1447,2954.21
10749,-4.1671,1.9656,8.9854,1469,2954.5
10754,1.962,3.5829,9.5505,1448,2954.5
10759,1.8759,2.0614,11.9327,1445,2954.5
10764,-2.897,-1.6867,12.7814,1448,2954.5
10769,-4.537,1.834,9.1985,1460,2954.5
10774,1.8375,3.5027,9.4212,1445,2954.5
10779,2.2661,2.3068,11.7555,1451,2954.5
10784,-2.6635,-1.5335,12.9478,1437,2954.5
10789,-4.8746,1.6412,9.4391,1453,2954.65
10794,1.664,3.3794,9.2895,1444,2954.65
10799,2.5355,2.6396,11.6179,1449,2954.65
10804,-2.4397,-1.3623,13.0316,1438,2954.65
10809,-5.1056,1.4796,9.8007,1443,2954.65
10814,1.4796,3.3579,9.2081,1461,2954.36
10819,2.7378,2.8826,11.4563,1447,2954.36
10824,-2.1679,-1.1133,13.0508,1439,2954.36
10829,-5.2732,1.2175,10.0425,1453,2954.36
10834,1.2989,3.2801,8.9854,1454,2955.08
10839,2.9437,3.1041,11.3066,1445,2955.08
10844,-1.8675,-0.8739,13.1154,1438,2955.08
10849,-5.3762,0.9062,10.2484,1455,2955.08
10854,1.0786,3.1352,8.7508,1455,2955.81
10859,3.061,3.2681,11.0636,1437,2955.81
10864,-1.6089,-0.6177,13.0484,1443,2955.81
10869,-5.3762,0.5614,10.5477,1447,2955.81
10874,0.7326,2.9772,8.6395,1461,2956.1
10879,3.0311,3.3998,10.8864,1445,2956.1
10884,-1.4545,-0.3903,13.0987,1439,2956.1
10889,-5.3546,0.2358,10.6901,1439,2956.1
10894,0.3699,2.8934,8.491,1451,2956.1
10899,2.9353,3.5913,10.8278,1447,2956.1
10904,-1.3755,-0.1508,13.0137,1435,2956.1
10909,-5.2816,-0.0898,11.0121,1445,2956.1
10914,-0.0168,2.8036,8.4312,1456,2956.1
10919,2.8216,3.6966,10.7452,1447,2956.1
10924,-1.2426,0.0718,12.9957,1446,2956.1
10929,-5.217,-0.3328,11.2851,1443,2956.1
10934,-0.4609,2.7533,8.3342,1461,2956.39
10939,2.6851,3.8283,10.5955,1447,2956.39
10944,-1.1193,0.3388,12.961,1439,2956.39
10949,-5.0422,-0.6261,11.5245,1445,2956.39
10954,-0.8703,2.6671,8.3426,1461,2956.39
10959,2.6348,3.8966,10.4615,1447,2956.39
10964,-0.9026,0.565,12.8365,1439,2956.39
10969,-4.7776,-0.8847,11.7064,1445,2956.39
10974,-1.3408,2.6635,8.2624,1451,2955.52
10979,2.5115,3.9289,10.3142,1449,2955.52
10984,-0.5986,0.7506,12.7575,1445,2955.52
10989,-4.5466,-1.148,11.8956,1448,2955.52
10994,-1.7765,2.5091,8.3558,1470,2956.54
10999,2.4217,3.8487,10.2244,1444,2956.54
11004,-0.267,0.9002,12.5767,1445,2956.54
11009,-4.2665,-1.4246,12.0704,1444,2956.54
11014,-2.3224,2.3607,8.3366,1469,2955.81
11019,2.2733,3.8271,10.1945,1449,2955.81
11024,0.0826,1.1564,12.487,1451,2955.81
11029,-4.0306,-1.6005,12.2679,1445,2955.81
11034,-2.8323,2.2613,8.5042,1469,2955.96
11039,2.1512,3.7888,10.0137,1449,2955.96
11044,0.4908,1.324,12.3014,1437,2955.96
11049,-3.8211,-1.6747,12.3948,1439,2955.96
11054,-3.3028,2.235,8.6718,1472,2955.96
11059,2.0782,3.7733,9.9455,1443,2955.96
11064,0.9756,1.6508,12.2104,1443,2955.96
11069,-3.5171,-1.7059,12.5947,1447,2955.96
11074,-3.8116,2.1524,8.8346,1470,2955.81
11079,1.9932,3.7182,9.7815,1451,2955.81
11084,1.4401,1.889,12.0919,1439,2955.81
11089,-3.2489,-1.6652,12.7072,1449,2955.81
11094,-4.1887,2.0351,9.0333,1468,2955.96
11099,1.9609,3.6763,9.5852,1445,2955.96
11104,1.9225,2.15,11.9985,1445,2955.96
11109,-2.9185,-1.5634,12.8329,1447,2955.96
11114,-4.537,1.8256,9.1542,1463,2955.37
11119,1.8747,3.5291,9.4332,1439,2955.37
11124,2.3798,2.3463,11.7711,1449,2955.37
11129,-2.6205,-1.5371,12.9095,1435,2955.37
11134,-4.8495,1.6161,9.4655,1459,2956.1
11139,1.7502,3.401,9.2464,1437,2956.1
11144,2.6456,2.5977,11.6526,1447,2956.1
11149,-2.4217,-1.4162,12.9885,1439,2956.1
11154,-5.0937,1.3659,9.6666,1443,2956.1
11159,1.5323,3.3196,9.1004,1459,2956.98
11164,2.8144,2.8563,11.4706,1447,2956.98
11169,-2.1991,-1.2067,13.028,1438,2956.98
11174,-5.2804,1.1684,9.9575,1449,2956.98
11179,1.306,3.1975,8.9459,1450,2955.96
11184,2.9209,3.1101,11.3018,1444,2955.96
11189,-1.9728,-0.9349,13.0209,1437,2955.96
11194,-5.4121,0.9505,10.1897,1451,2955.96
11199,1.0439,3.1388,8.8633,1453,2955.96
11204,2.9928,3.2717,11.1809,1439,2955.96
11209,-1.7502,-0.65,13.0592,1443,2955.96
11214,-5.3989,0.68,10.5381,1439,2955.96
11219,0.7757,3.1232,8.6874,1452,2956.1
11224,3.0023,3.5279,10.9882,1439,2956.1
11229,-1.5909,-0.3723,13.0711,1443,2956.1
11234,-5.3474,0.3124,10.7404,1439,2956.1
11239,0.4286,2.9784,8.5569,1447,2956.39
11244,3.0035,3.5961,10.8601,1443,2956.39
11249,-1.3563,-0.1137,13.0364,1437,2956.39
11254,-5.2804,0.0144,11.0014,1445,2956.39
11259,0.0359,2.8718,8.3749,1459,2956.54
11264,2.9245,3.7074,10.7296,1445,2956.54
11269,-1.2198,0.0575,12.9287,1437,2956.54
11274,-5.1248,-0.3651,11.2683,1439,2956.54
11279,-0.3687,2.6935,8.2504,1461,2956.83
11284,2.7713,3.7481,10.5836,1443,2956.83
11289,-1.063,0.2993,12.8664,1436,2956.83
11294,-5.0075,-0.6991,11.4862,1445,2956.83
11299,-0.8116,2.6312,8.3067,1452,2956.83
11304,2.5809,3.7888,10.4351,1443,2956.83
11309,-0.9182,0.4717,12.7934,1433,2956.83
11314,-4.8686,-0.9541,11.746,1446,2956.83
11319,-1.2881,2.5438,8.2768,1463,2956.83
11324,2.4768,3.8822,10.3418,1443,2956.83
11329,-0.7075,0.7027,12.7228,1435,2956.83
11334,-4.6938,-1.1097,11.8621,1446,2956.83
11339,-1.7801,2.5438,8.3246,1469,2956.98
11344,2.4026,3.9289,10.2376,1445,2956.98
11349,-0.4238,0.9194,12.6605,1443,2956.98
11354,-4.4005,-1.3024,12.0776,1439,2956.98
11359,-2.2278,2.4265,8.351,1465,2956.98
11364,2.387,3.8942,10.1418,1446,2956.98
11369,0.0347,1.1085,12.4223,1443,2956.98
11374,-4.0881,-1.4964,12.2152,1439,2956.98
11379,-2.7102,2.3607,8.4396,1469,2957.41
11384,2.3188,3.8403,10.0892,1451,2957.41
11389,0.4633,1.3276,12.3684,1437,2957.41
11394,-3.8415,-1.6568,12.4199,1439,2957.41
11399,-3.1639,2.2015,8.5521,1471,2957.7
11404,2.2015,3.7589,9.8749,1443,2957.7
11409,0.9038,1.5694,12.2763,1439,2957.7
11414,-3.6212,-1.7538,12.5492,1439,2957.7
11419,-3.6093,2.1272,8.7173,1464,2958.0
11424,2.0782,3.6476,9.7683,1446,2958.0
11429,1.2953,1.7813,12.147,1437,2958.0
11434,-3.3279,-1.7705,12.6593,1447,2958.0
11439,-4.0701,1.998,8.904,1451,2958.14
11444,1.9441,3.5769,9.6798,1443,2958.14
11449,1.749,1.9932,12.068,1440,2958.14
11454,-3.0969,-1.6963,12.821,1449,2958.14
11459,-4.458,1.8759,9.1674,1467,2958.29
11464,1.8806,3.5458,9.511,1439,2958.29
11469,2.1009,2.3212,11.8393,1453,2958.29
11474,-2.8419,-1.5311,12.8664,1433,2958.29
11479,-4.7704,1.7873,9.3087,1453,2958.29
11484,1.7849,3.4608,9.3721,1443,2958.29
11489,2.4972,2.5498,11.6921,1448,2958.29
11494,-2.5355,-1.397,12.9933,1436,2958.29
11499,-5.0099,1.5682,9.6343,1438,2958.29
11504,1.6424,3.4034,9.1459,1453,2958.29
11509,2.8108,2.745,11.4874,1437,2958.29
11514,-2.2577,-1.2797,13.0292,1435,2958.29
11519,-5.1739,1.3216,9.7552,1447,2958.29
11524,1.5024,3.2705,9.0321,1449,2958.58
11529,3.0155,2.8946,11.3988,1445,2958.58
11534,-2.0638,-1.0762,13.028,1437,2958.58
11539,-5.3056,1.0487,10.0892,1450,2958.58
11544,1.2306,3.1783,8.8538,1453,2959.02
11549,3.0538,3.0957,11.2623,1439,2959.02
11554,-1.8375,-0.8296,13.1023,1443,2959.02
11559,-5.442,0.753,10.3453,1447,2959.02
11564,0.9553,3.0897,8.7628,1448,2959.16
11569,3.0502,3.2741,11.0504,1444,2959.16
11574,-1.7274,-0.6273,13.0987,1439,2959.16
11579,-5.4528,0.5279,10.5129,1443,2959.16
11584,0.6716,2.988,8.6084,1453,2959.6
11589,3.0095,3.5183,10.9762,1445,2959.6
11594,-1.5838,-0.3759,13.0987,1437,2959.6
11599,-5.4336,0.2083,10.8218,1440,2959.6
11604,0.3639,2.9377,8.4886,1451,2959.75
11609,2.9509,3.638,10.8218,1455,2959.75
11614,-1.4688,-0.1018,13.0508,1439,2959.75
11619,-5.3403,-0.0036,11.0732,1439,2959.75
11624,0.0168,2.8252,8.4108,1459,2959.89
11629,2.897,3.7481,10.7212,1447,2959.89
11634,-1.3132,0.1077,13.0532,1438,2959.89
11639,-5.1511,-0.2682,11.2324,1443,2959.89
11644,-0.3352,2.7426,8.2301,1460,2959.89
11649,2.8706,3.8152,10.5824,1443,2959.89
11654,-1.087,0.2586,12.9,1433,2959.89
11659,-4.9859,-0.5698,11.5017,1443,2959.89
11664,-0.7626,2.6755,8.2875,1455,2960.04
11669,2.7473,3.8247,10.4567,1445,2960.04
11674,-0.899,0.4717,12.8605,1437,2960.04
11679,-4.8219,-0.8787,11.6418,1447,2960.04
11684,-1.1815,2.5534,8.2289,1464,2960.92
11689,2.5558,3.8188,10.319,1445,2960.92
11694,-0.6776,0.644,12.8186,1440,2960.92
11699,-4.6627,-1.1289,11.8645,1445,2960.92
11704,-1.6855,2.5199,8.2492,1465,2960.48
11709,2.4744,3.8571,10.2496,1443,2960.48
11714,-0.4585,0.8715,12.7527,1453,2960.48
11719,-4.4927,-1.2881,12.0081,1439,2960.48
11724,-2.0901,2.4517,8.321,1479,2960.77
11729,2.3667,3.8846,10.2065,1447,2960.77
11734,-0.1472,1.0391,12.5923,1443,2960.77
11739,-4.2964,-1.4341,12.2404,1439,2960.77
11744,-2.5558,2.3918,8.3869,1465,2960.92
11749,2.2613,3.8762,10.1634,1449,2960.92
11754,0.2574,1.2534,12.4906,1435,2960.92
11759,-4.0139,-1.5479,12.3361,1439,2960.92
11764,-2.9497,2.3284,8.4479,1467,2960.77
11769,2.2362,3.8271,9.9958,1447,2960.77
11774,0.6704,1.4784,12.3792,1443,2960.77
11779,-3.7792,-1.6688,12.4786,1439,2960.77
11784,-3.3603,2.2446,8.6131,1452,2960.62
11789,2.1943,3.7769,9.8126,1447,2960.62
11794,1.136,1.6328,12.226,1439,2960.62
11799,-3.468,-1.7023,12.6306,1453,2960.62
11804,-3.7649,2.0674,8.7927,1460,2961.06
11809,2.0865,3.6643,9.6606,1423,2961.06
11814,1.5897,1.8304,12.1386,1437,2961.06
11819,-3.2274,-1.7514,12.7288,1449,2961.06
11824,-4.2042,2.0039,8.9687,1461,2961.21
11829,2.0075,3.5506,9.4978,1440,2961.21
11834,1.9513,2.0387,11.9614,1448,2961.21
11839,-3.0215,-1.6747,12.8724,1439,2961.21
11844,-4.5622,1.8471,9.1578,1468,2961.21
11849,1.9046,3.4884,9.4056,1439,2961.21
11854,2.2446,2.3152,11.8621,1449,2961.21
11859,-2.8228,-1.5598,12.9431,1435,2961.21
11864,-4.8411,1.7334,9.4032,1445,2961.21
11869,1.7202,3.4453,9.268,1447,2961.21
11874,2.5618,2.545,11.7555,1447,2961.21
11879,-2.6372,-1.4293,12.9742,1437,2961.21
11884,-5.1164,1.5646,9.5864,1443,2961.21
11889,1.64,3.383,9.1339,1452,2961.65
11894,2.818,2.7869,11.5712,1447,2961.65
11899,-2.375,-1.2079,13.0448,1435,2961.65
11904,-5.2565,1.3934,9.9156,1451,2961.65
11909,1.4736,3.2789,8.9854,1451,2962.09
11914,3.0394,2.9521,11.3784,1445,2962.09
11919,-2.1021,-1.0271,13.046,1435,2962.09
11924,-5.3738,1.1396,10.0485,1451,2962.09
11929,1.2737,3.2106,8.8131,1455,2962.52
11934,3.1328,3.1125,11.2875,1439,2962.52
11939,-1.8615,-0.8511,13.0759,1444,2962.52
11944,-5.4061,0.8535,10.2699,1447,2962.52
11949,1.0594,3.0682,8.6479,1449,2963.11
11954,3.1412,3.2525,11.1223,1439,2963.11
11959,-1.7609,-0.6213,13.1166,1443,2963.11
11964,-5.4121,0.6225,10.4818,1439,2963.11
11969,0.7961,3.0167,8.5688,1460,2963.4
11974,3.1232,3.4381,11.0085,1444,2963.4
11979,-1.6149,-0.4824,13.1095,1439,2963.4
11984,-5.4684,0.3196,10.7512,1438,2963.4
11989,0.4573,2.9293,8.4156,1448,2963.69
11994,3.0598,3.5446,10.9188,1446,2963.69
11999,-1.5359,-0.2598,13.0879,1438,2963.69
12004,-5.3917,0.0634,10.9379,1439,2963.69
12009,0.2286,2.8443,8.351,1459,2963.84
12014,2.9532,3.6392,10.7919,1440,2963.84
12019,-1.3934,0.0072,13.0676,1439,2963.84
12024,-5.3008,-0.1389,11.2085,1438,2963.84
12029,-0.1688,2.8012,8.3713,1449,2963.4
12034,2.885,3.7733,10.6805,1445,2963.4
12039,-1.3024,0.1856,13.0149,1439,2963.4
12044,-5.2206,-0.3627,11.3222,1439,2963.4
12049,-0.5255,2.745,8.2612,1453,2963.26
12054,2.8299,3.8128,10.5189,1447,2963.26
12059,-1.0546,0.3567,12.9239,1436,2963.26
12064,-5.0278,-0.6452,11.5245,1443,2963.26
12069,-0.9038,2.6707,8.2277,1455,2963.11
12074,2.7438,3.8367,10.3932,1447,2963.11
12079,-0.8882,0.4752,12.8473,1443,2963.11
12084,-4.8447,-0.8906,11.7388,1449,2963.11
12089,-1.2498,2.6073,8.2085,1471,2963.26
12094,2.6276,3.8678,10.3633,1439,2963.26
12099,-0.6309,0.6752,12.7767,1443,2963.26
12104,-4.6627,-1.0906,11.9363,1443,2963.26
12109,-1.6807,2.5223,8.1989,1455,2963.55
12114,2.4684,3.8547,10.2496,1445,2963.55
12119,-0.4082,0.8511,12.6474,1443,2963.55
12124,-4.5011,-1.2965,12.068,1445,2963.55
12129,-2.0901,2.4229,8.2923,1465,2963.84
12134,2.381,3.8918,10.1418,1443,2963.84
12139,-0.1101,1.0475,12.7204,1439,2963.84
12144,-4.3574,-1.4569,12.2224,1443,2963.84
12149,-2.5103,2.3882,8.3163,1462,2963.84
12154,2.32,3.8702,10.0126,1451,2963.84
12159,0.1999,1.1732,12.5289,1433,2963.84
12164,-4.0977,-1.579,12.3481,1439,2963.84
12169,-2.9509,2.3559,8.4599,1467,2963.84
12174,2.229,3.8511,10.0221,1445,2963.84
12179,0.5986,1.4162,12.4199,1443,2963.84
12184,-3.9002,-1.64,12.4953,1439,2963.84
12189,-3.3327,2.2769,8.5533,1451,2963.69
12194,2.2338,3.7852,9.7719,1447,2963.69
12199,1.008,1.5694,12.2978,1435,2963.69
12204,-3.6009,-1.6496,12.6833,1443,2963.69
12209,-3.7242,2.2158,8.7137,1459,2963.84
12214,2.1416,3.717,9.7157,1449,2963.84
12219,1.4569,1.8028,12.1602,1439,2963.84
12224,-3.4034,-1.6508,12.7228,1448,2963.84
12229,-4.063,2.0698,8.8095,1449,2963.55
12234,2.0985,3.6129,9.5708,1437,2963.55
12239,1.8328,2.0075,12.0572,1447,2963.55
12244,-3.1352,-1.6568,12.8126,1445,2963.55
12249,-4.3826,1.9345,9.0297,1467,2963.69
12254,1.9632,3.5231,9.4439,1439,2963.69
12259,2.1883,2.1715,11.9315,1448,2963.69
12264,-2.9521,-1.6532,12.9036,1433,2963.69
12269,-4.6938,1.8076,9.2775,1453,2963.69
12274,1.8531,3.4393,9.408,1437,2963.69
12279,2.4385,2.399,11.8298,1447,2963.69
12284,-2.6995,-1.4952,12.9586,1437,2963.69
12289,-4.9871,1.6436,9.4727,1439,2963.69
12294,1.719,3.4165,9.2416,1453,2963.55
12299,2.7414,2.6169,11.6167,1443,2963.55
12304,-2.5199,-1.3611,13.0508,1436,2963.55
12309,-5.2002,1.5155,9.6678,1449,2963.55
12314,1.6041,3.3327,9.092,1451,2963.69
12319,2.8802,2.8527,11.4994,1445,2963.69
12324,-2.3164,-1.1732,13.1346,1435,2963.69
12329,-5.3103,1.2498,9.9036,1450,2963.69
12334,1.4473,3.2765,8.9184,1451,2963.69
12339,3.0382,3.067,11.3808,1439,2963.69
12344,-2.1548,-0.9685,13.1178,1436,2963.69
12349,-5.3989,1.0499,10.0963,1450,2963.69
12354,1.2402,3.2286,8.7688,1451,2963.69
12359,3.1376,3.2094,11.309,1438,2963.69
12364,-1.9154,-0.7877,13.1286,1439,2963.69
12369,-5.4085,0.7446,10.3166,1436,2963.69
12374,0.972,3.0801,8.6371,1453,2963.84
12379,3.1843,3.3399,11.1151,1443,2963.84
12384,-1.7334,-0.583,13.113,1439,2963.84
12389,-5.4564,0.51,10.5309,1439,2963.84
12394,0.7314,2.9784,8.5509,1449,2963.69
12399,3.0969,3.4369,10.9702,1439,2963.69
12404,-1.5323,-0.3795,13.1083,1433,2963.69
12409,-5.4696,0.2454,10.7571,1443,2963.69
12414,0.4166,2.9173,8.5042,1451,2963.84
12419,3.0586,3.5303,10.8505,1447,2963.84
12424,-1.4533,-0.1796,13.1741,1439,2963.84
12429,-5.3989,0.0144,10.9942,1439,2963.84
12434,0.0838,2.8802,8.424,1455,2963.4
12439,2.9784,3.6966,10.7332,1444,2963.4
12444,-1.3611,0.018,13.0388,1437,2963.4
12449,-5.284,-0.2753,11.2108,1437,2963.4
12454,-0.237,2.7258,8.2564,1456,2962.96
12459,2.8742,3.8128,10.6889,1443,2962.96
12464,-1.2665,0.2047,13.0209,1433,2962.96
12469,-5.1655,-0.4788,11.4203,1439,2962.96
12474,-0.577,2.7282,8.2492,1463,2962.96
12479,2.7976,3.893,10.6075,1443,2962.96
12484,-1.0846,0.3938,12.9179,1432,2962.96
12489,-4.962,-0.68,11.5927,1445,2962.96
12494,-0.9613,2.6588,8.2349,1460,2962.52
12499,2.7043,3.8595,10.4591,1437,2962.52
12504,-0.8212,0.5914,12.8928,1437,2962.52
12509,-4.792,-0.9625,11.7196,1439,2962.52
12514,-1.403,2.5714,8.2325,1465,2962.09
12519,2.5881,3.881,10.2711,1437,2962.09
12524,-0.5878,0.729,12.7659,1439,2962.09
12529,-4.6088,-1.2414,11.8968,1440,2962.09
12534,-1.8627,2.4792,8.26,1459,2961.94
12539,2.4373,3.8176,10.2604,1443,2961.94
12544,-0.2705,0.8906,12.6677,1437,2961.94
12549,-4.4377,-1.4293,12.0764,1437,2961.94
12554,-2.3128,2.3739,8.3067,1463,2962.09
12559,2.3727,3.7984,10.1071,1445,2962.09
12564,0.0706,1.0798,12.566,1434,2962.09
12569,-4.2329,-1.5227,12.3074,1437,2962.09
12574,-2.7569,2.3176,8.4683,1467,2961.94
12579,2.2302,3.7912,10.0114,1443,2961.94
12584,0.3675,1.3024,12.4642,1435,2961.94
12589,-3.9887,-1.6209,12.3756,1437,2961.94
12594,-3.1472,2.3104,8.5042,1447,2961.79
12599,2.1727,3.7757,9.8928,1444,2961.79
12604,0.7961,1.5335,12.4319,1435,2961.79
12609,-3.7912,-1.664,12.6031,1443,2961.79
12614,-3.5997,2.2302,8.6898,1450,2962.23
12619,2.1476,3.7457,9.7217,1443,2962.23
12624,1.2163,1.7214,12.2308,1435,2962.23
12629,-3.4955,-1.6975,12.6821,1447,2962.23
12634,-3.9612,2.1272,8.7951,1449,2962.38
12639,2.0746,3.6978,9.6845,1437,2962.38
12644,1.6807,1.9273,12.0752,1438,2962.38
12649,-3.1783,-1.6855,12.7826,1444,2962.38
12654,-4.3263,1.9944,8.9388,1468,2962.38
12659,2.0004,3.5626,9.4798,1435,2962.38
12664,2.0806,2.1404,11.8896,1447,2962.38
12669,-2.9796,-1.6556,12.9095,1435,2962.38
12674,-4.5789,1.8112,9.2021,1439,2962.82
12679,1.9034,3.4477,9.3925,1439,2962.82
12684,2.4074,2.3343,11.8298,1443,2962.82
12689,-2.7797,-1.585,12.9778,1433,2962.82
12694,-4.9165,1.646,9.3769,1437,2962.82
12699,1.8004,3.371,9.1339,1451,2962.52
12704,2.6887,2.5738,11.7412,1447,2962.52
12709,-2.5881,-1.4186,12.9909,1434,2962.52
12714,-5.108,1.4557,9.6822,1447,2962.52
12719,1.6305,3.3112,9.0249,1446,2962.52
12724,2.8168,2.8216,11.6586,1439,2962.52
12729,-2.4074,-1.2234,13.0412,1433,2962.52
12734,-5.272,1.306,9.8497,1448,2962.52
12739,1.4724,3.2657,8.9352,1447,2963.26
12744,2.9772,3.0215,11.4658,1438,2963.26
12749,-2.1991,-1.0271,13.1035,1434,2963.26
12754,-5.3965,1.1384,10.0987,1443,2963.26
12759,1.2438,3.2346,8.8166,1447,2963.26
12764,3.0849,3.1963,11.2623,1436,2963.26
12769,-1.9609,-0.8128,13.0771,1437,2963.26
12774,-5.4193,0.8906,10.2759,1434,2963.26
12779,1.0139,3.1591,8.7281,1451,2963.26
12784,3.1891,3.2693,11.1306,1429,2963.26
12789,-1.7131,-0.6225,13.1681,1436,2963.26
12794,-5.448,0.6285,10.4746,1437,2963.26
12799,0.7781,3.0191,8.5413,1447,2963.11
12804,3.1843,3.4608,11.0133,1439,2963.11
12809,-1.5897,-0.4178,13.1083,1432,2963.11
12814,-5.4025,0.2322,10.7069,1437,2963.11
12819,0.4717,2.8778,8.436,1450,2963.55
12824,3.0981,3.5482,10.9559,1445,2963.55
12829,-1.4748,-0.2478,13.0927,1437,2963.55
12834,-5.3846,0.018,10.9523,1437,2963.55
12839,0.1939,2.8276,8.3091,1454,2965.6
12844,2.958,3.6416,10.8086,1439,2965.6
12849,-1.3874,-0.079,13.0939,1435,2965.6
12854,-5.3822,-0.2322,11.1833,1440,2965.6
12859,-0.1389,2.7725,8.3246,1452,2967.65
12864,2.8718,3.7769,10.6195,1443,2967.65
12869,-1.2773,0.1604,13.034,1433,2967.65
12874,-5.3127,-0.3807,11.2934,1437,2967.65
12879,-0.4429,2.7797,8.2193,1447,2968.39
12884,2.8371,3.8559,10.5584,1439,2968.39
12889,-1.1624,0.3041,13.0101,1433,2968.39
12894,-5.1595,-0.571,11.5329,1439,2968.39
12899,-0.7398,2.7246,8.1642,1455,2967.51
12904,2.7461,3.881,10.4232,1439,2967.51
12909,-0.9613,0.4465,12.9323,1435,2967.51
12914,-4.9644,-0.7518,11.6849,1443,2967.51
12919,-1.0678,2.5857,8.1954,1464,2966.77
12924,2.7426,3.9109,10.3537,1435,2966.77
12929,-0.7853,0.6141,12.882,1446,2966.77
12934,-4.774,-1.0008,11.8345,1435,2966.77
12939,-1.4676,2.5343,8.2025,1459,2966.04
12944,2.6001,3.8882,10.2843,1440,2966.04
12949,-0.5315,0.7302,12.7743,1439,2966.04
12954,-4.5526,-1.2127,11.983,1439,2966.04
12959,-1.8771,2.4744,8.2181,1461,2965.01
12964,2.4624,3.8199,10.2149,1440,2965.01
12969,-0.2682,0.9349,12.6474,1435,2965.01
12974,-4.4221,-1.403,12.1398,1437,2965.01
12979,-2.2362,2.3846,8.2349,1463,2964.28
12984,2.375,3.8511,10.0676,1444,2964.28
12989,0.0108,1.0714,12.6067,1436,2964.28
12994,-4.2138,-1.5107,12.2356,1433,2964.28
12999,-2.6875,2.3715,8.3749,1463,2963.69
13004,2.2529,3.7733,10.0952,1439,2963.69
13009,0.3292,1.3036,12.463,1435,2963.69
13014,-4.039,-1.6305,12.3948,1435,2963.69
13019,-3.1328,2.2697,8.4599,1447,2963.26
13024,2.217,3.8283,9.9371,1443,2963.26
13029,0.7171,1.482,12.3792,1439,2963.26
13034,-3.7924,-1.6125,12.5348,1445,2963.26
13039,-3.5231,2.2422,8.6634,1461,2962.67
13044,2.1608,3.7745,9.8462,1439,2962.67
13049,1.1636,1.7131,12.293,1438,2962.67
13054,-3.5291,-1.6939,12.6581,1445,2962.67
13059,-3.8954,2.1141,8.7676,1461,2962.38
13064,2.0782,3.6739,9.6702,1435,2962.38
13069,1.646,1.8902,12.062,1446,2962.38
13074,-3.2573,-1.6628,12.7611,1435,2962.38
13079,-4.1887,2.0004,8.9818,1453,2961.65
13084,2.0219,3.5829,9.517,1435,2961.65
13089,2.0602,2.1165,11.959,1447,2961.65
13094,-2.9916,-1.6364,12.8401,1443,2961.65
13099,-4.5334,1.8088,9.1231,1439,2961.65
13104,1.8974,3.4668,9.3877,1445,2962.38
13109,2.3786,2.3044,11.8345,1439,2962.38
13114,-2.7737,-1.5778,12.9658,1435,2962.38
13119,-4.883,1.6831,9.3781,1435,2962.38
13124,1.7933,3.4201,9.2512,1451,2961.94
13129,2.6324,2.5426,11.6514,1443,2961.94
13134,-2.6013,-1.4509,13.046,1433,2961.94
13139,-5.0949,1.4988,9.6019,1451,2961.94
13144,1.6005,3.3064,9.1231,1445,2961.79
13149,2.8012,2.7689,11.5556,1433,2961.79
13154,-2.3583,-1.2641,13.0616,1435,2961.79
13159,-5.2696,1.3659,9.7947,1449,2961.79
13164,1.4485,3.2561,8.9866,1450,2962.09
13169,2.9592,3.0203,11.3844,1437,2962.09
13174,-2.156,-1.0163,13.1226,1430,2962.09
13179,-5.3989,1.1277,10.1131,1449,2962.09
13184,1.2522,3.2166,8.8071,1452,2962.23
13189,3.1352,3.1376,11.2647,1439,2962.23
13194,-1.9609,-0.808,13.1011,1439,2962.23
13199,-5.4468,0.8978,10.3489,1437,2962.23
13204,1.0259,3.1137,8.6646,1451,2962.38
13209,3.1627,3.3291,11.0995,1445,2962.38
13214,-1.7238,-0.5854,13.1454,1435,2962.38
13219,-5.4157,0.5638,10.562,1435,2962.38
13224,0.753,3.0131,8.5258,1448,2962.38
13229,3.1891,3.3674,10.9247,1447,2962.38
13234,-1.5323,-0.4238,13.113,1439,2962.38
13239,-5.375,0.2538,10.7464,1443,2962.38
13244,0.4573,2.9042,8.4001,1455,2962.67
13249,3.0837,3.5578,10.8804,1445,2962.67
13254,-1.4736,-0.2394,13.1394,1437,2962.67
13259,-5.3367,-0.0491,10.9834,1445,2962.67
13264,0.1221,2.7928,8.357,1459,2962.96
13269,2.9449,3.638,10.7823,1439,2962.96
13274,-1.3731,-0.0239,13.064,1431,2962.96
13279,-5.2696,-0.2526,11.1701,1434,2962.96
13284,-0.2167,2.7725,8.3043,1450,2963.69
13289,2.8395,3.7601,10.6745,1447,2963.69
13294,-1.2486,0.1891,13.0304,1433,2963.69
13299,-5.187,-0.4729,11.3916,1447,2963.69
13304,-0.5938,2.7438,8.2145,1455,2964.87
13309,2.806,3.8439,10.5165,1447,2964.87
13314,-1.1301,0.3962,12.9622,1435,2964.87
13319,-5.0877,-0.6871,11.5568,1449,2964.87
13324,-0.9517,2.6707,8.2947,1467,2965.75
13329,2.6971,3.8786,10.4746,1440,2965.75
13334,-0.8835,0.5674,12.9131,1439,2965.75
13339,-4.8758,-0.9122,11.7208,1439,2965.75
13344,-1.3036,2.6133,8.1678,1452,2966.48
13349,2.648,3.9169,10.3406,1439,2966.48
13354,-0.6345,0.6728,12.8557,1443,2966.48
13359,-4.6938,-1.0906,11.874,1443,2966.48
13364,-1.6556,2.557,8.2049,1463,2966.48
13369,2.5642,3.8762,10.2544,1447,2966.48
13374,-0.3962,0.8116,12.7276,1438,2966.48
13379,-4.5035,-1.318,12.0129,1439,2966.48
13384,-2.053,2.4229,8.2049,1467,2965.75
13389,2.4696,3.863,10.1287,1445,2965.75
13394,-0.0946,0.9972,12.6426,1436,2965.75
13399,-4.3395,-1.4126,12.1781,1439,2965.75
13404,-2.4864,2.3691,8.3617,1469,2964.87
13409,2.3272,3.8188,10.1023,1443,2964.87
13414,0.152,1.1744,12.5265,1443,2964.87
13419,-4.1539,-1.5574,12.2679,1439,2964.87
13424,-2.8886,2.332,8.442,1452,2963.55
13429,2.2338,3.7745,9.9994,1443,2963.55
13434,0.5124,1.3587,12.5073,1437,2963.55
13439,-3.9851,-1.6233,12.4582,1445,2963.55
13444,-3.2884,2.2924,8.5796,1459,2963.69
13449,2.1536,3.7601,9.8569,1446,2963.69
13454,0.8954,1.573,12.3146,1436,2963.69
13459,-3.7134,-1.6592,12.5863,1447,2963.69
13464,-3.6799,2.1883,8.7795,1449,2962.52
13469,2.132,3.7182,9.7899,1443,2962.52
13474,1.3767,1.7765,12.2332,1445,2962.52
13479,-3.4477,-1.6448,12.7264,1445,2962.52
13484,-4.0235,2.1057,8.8849,1468,2962.23
13489,2.0949,3.6296,9.5912,1438,2962.23
13494,1.8244,1.9968,12.0045,1451,2962.23
13499,-3.2118,-1.67,12.8317,1437,2962.23
13504,-4.373,1.9273,9.0357,1448,2961.79
13509,1.9884,3.5063,9.4116,1438,2961.79
13514,2.223,2.1955,11.9483,1445,2961.79
13519,-2.9604,-1.6448,12.8174,1439,2961.79
13524,-4.6651,1.7849,9.2296,1436,2961.79
13529,1.8866,3.4632,9.3326,1453,2961.5
13534,2.5055,2.4146,11.8369,1445,2961.5
13539,-2.7066,-1.5347,12.9383,1437,2961.5
13544,-4.9428,1.6089,9.481,1449,2961.5
13549,1.7214,3.3842,9.1554,1451,2961.5
13554,2.7258,2.6635,11.6502,1443,2961.5
13559,-2.4864,-1.3803,12.9514,1433,2961.5
13564,-5.2074,1.4401,9.6881,1449,2961.5
13569,1.5838,3.3196,9.1327,1450,2961.5
13574,2.8671,2.8407,11.491,1438,2961.5
13579,-2.2829,-1.1983,13.046,1437,2961.5
13584,-5.3163,1.2689,9.9144,1447,2961.5
13589,1.3671,3.2489,8.8789,1448,2961.79
13594,3.0119,3.073,11.3006,1437,2961.79
13599,-2.0602,-0.9337,13.1358,1443,2961.79
13604,-5.3989,1.0211,10.1718,1435,2961.79
13609,1.1744,3.1771,8.74,1451,2961.79
13614,3.1352,3.2872,11.2324,1439,2961.79
13619,-1.8962,-0.7183,13.1382,1436,2961.79
13624,-5.3929,0.7494,10.4351,1433,2961.79
13629,0.9337,3.0754,8.6012,1452,2961.65
13634,3.1687,3.389,11.0971,1445,2961.65
13639,-1.6747,-0.5219,13.1214,1437,2961.65
13644,-5.3917,0.4405,10.6267,1437,2961.65
13649,0.6512,2.9509,8.5281,1463,2961.65
13654,3.0933,3.4991,10.9906,1443,2961.65
13659,-1.4892,-0.3316,13.1011,1439,2961.65
13664,-5.387,0.1425,10.8457,1433,2961.65
13669,0.3172,2.8599,8.4001,1459,2961.65
13674,2.9904,3.6356,10.7548,1443,2961.65
13679,-1.3874,-0.1137,12.9969,1438,2961.65
13684,-5.3163,-0.146,11.0852,1445,2961.65
13689,-0.0156,2.8132,8.3989,1454,2961.94
13694,2.8431,3.7577,10.6602,1447,2961.94
13699,-1.2713,0.1053,12.9945,1434,2961.94
13704,-5.2397,-0.4178,11.2683,1445,2961.94
13709,-0.4393,2.7282,8.3043,1467,2962.38
13714,2.7749,3.8331,10.5201,1447,2962.38
13719,-1.1672,0.3304,12.9742,1436,2962.38
13724,-5.0925,-0.6285,11.5496,1447,2962.38
13729,-0.7506,2.6947,8.2241,1471,2962.82
13734,2.709,3.9109,10.4136,1445,2962.82
13739,-0.9996,0.4812,12.9466,1444,2962.82
13744,-4.9081,-0.8571,11.7819,1438,2962.82
13749,-1.1935,2.5798,8.2085,1464,2963.4
13754,2.5881,3.9241,10.4411,1443,2963.4
13759,-0.729,0.6644,12.7934,1444,2963.4
13764,-4.713,-1.0463,11.9363,1443,2963.4
13769,-1.573,2.5007,8.2121,1466,2964.28
13774,2.5857,3.9421,10.258,1445,2964.28
13779,-0.4669,0.826,12.712,1437,2964.28
13784,-4.5226,-1.2749,12.0237,1439,2964.28
13789,-1.9764,2.4205,8.2181,1463,2965.31
13794,2.5199,3.8618,10.1933,1444,2965.31
13799,-0.2131,0.9732,12.6653,1436,2965.31
13804,-4.3419,-1.4078,12.1745,1439,2965.31
13809,-2.3894,2.3619,8.2636,1471,2964.87
13814,2.375,3.8211,10.0952,1444,2964.87
13819,0.091,1.1696,12.5456,1439,2964.87
13824,-4.1599,-1.5371,12.299,1439,2964.87
13829,-2.7701,2.2924,8.3845,1450,2964.43
13834,2.3152,3.8056,10.0533,1450,2964.43
13839,0.498,1.3372,12.457,1439,2964.43
13844,-3.9504,-1.652,12.4666,1447,2964.43
13849,-3.2034,2.2302,8.5509,1469,2964.13
13854,2.1656,3.7685,9.8545,1447,2964.13
13859,0.8703,1.5526,12.3361,1439,2964.13
13864,-3.7769,-1.6424,12.6091,1448,2964.13
13869,-3.5745,2.1416,8.667,1455,2964.13
13874,2.1177,3.6835,9.7803,1439,2964.13
13879,1.2725,1.7238,12.1901,1447,2964.13
13884,-3.5386,-1.6281,12.6761,1444,2964.13
13889,-3.9049,2.0985,8.8358,1468,2963.55
13894,2.0842,3.6476,9.7013,1439,2963.55
13899,1.6735,1.9549,12.0859,1449,2963.55
13904,-3.286,-1.6723,12.7922,1437,2963.55
13909,-4.2605,1.9776,9.0082,1445,2963.11
13914,2.0016,3.5817,9.5026,1437,2963.11
13919,2.0853,2.1093,11.9471,1445,2963.11
13924,-3.0191,-1.5921,12.8688,1436,2963.11
13929,-4.5753,1.883,9.1925,1439,2963.11
13934,1.8974,3.5398,9.3901,1453,2963.99
13939,2.4122,2.3188,11.819,1445,2963.99
13944,-2.7845,-1.5203,12.9227,1436,2963.99
13949,-4.8626,1.7071,9.3529,1445,2963.99
13954,1.7992,3.4357,9.244,1448,2963.84
13959,2.7414,2.5235,11.6155,1449,2963.84
13964,-2.569,-1.4557,13.0161,1443,2963.84
13969,-5.0661,1.5275,9.6295,1448,2963.84
13974,1.6233,3.3267,9.153,1451,2963.84
13979,2.8443,2.7509,11.5305,1443,2963.84
13984,-2.4169,-1.2929,13.1142,1433,2963.84
13989,-5.2433,1.3575,9.7959,1448,2963.84
13994,1.4808,3.2322,8.9938,1451,2963.55
13999,2.9604,2.9221,11.4287,1439,2963.55
14004,-2.2003,-1.0774,13.1394,1439,2963.55
14009,-5.369,1.1384,10.0784,1439,2963.55
14014,1.2653,3.2142,8.849,1453,2963.11
14019,3.0897,3.1149,11.3006,1443,2963.11
14024,-2.0267,-0.8811,13.0987,1436,2963.11
14029,-5.4731,0.8906,10.2604,1443,2963.11
14034,1.063,3.1388,8.6945,1448,2962.96
14039,3.134,3.2609,11.1091,1445,2962.96
14044,-1.8172,-0.6117,13.1286,1451,2962.96
14049,-5.4384,0.6189,10.5584,1439,2962.96
14054,0.8068,3.0574,8.6203,1456,2962.96
14059,3.1508,3.4692,10.9666,1445,2962.96
14064,-1.6197,-0.4118,13.1358,1439,2962.96
14069,-5.4384,0.3591,10.665,1443,2962.96
14074,0.4992,2.9844,8.4827,1456,2963.84
14079,3.1113,3.5937,10.8386,1440,2963.84
14084,-1.5347,-0.2274,13.1705,1437,2963.84
14089,-5.3594,0.0467,10.9271,1444,2963.84
14094,0.2346,2.903,8.3785,1461,2964.13
14099,2.9856,3.6847,10.744,1447,2964.13
14104,-1.3815,-0.0371,13.0903,1433,2964.13
14109,-5.3415,-0.1939,11.2001,1443,2964.13
14114,-0.1089,2.7761,8.2947,1461,2964.28
14119,2.8838,3.7409,10.6626,1443,2964.28
14124,-1.2354,0.1592,13.0592,1435,2964.28
14129,-5.2265,-0.4537,11.321,1447,2964.28
14134,-0.4752,2.7222,8.2564,1464,2964.13
14139,2.8156,3.808,10.5165,1443,2964.13
14144,-1.1097,0.3555,12.9897,1437,2964.13
14149,-5.114,-0.7314,11.5101,1448,2964.13
14154,-0.8703,2.6588,8.278,1467,2964.57
14159,2.7138,3.8906,10.4435,1435,2964.57
14164,-0.9433,0.5423,12.9658,1440,2964.57
14169,-4.9392,-0.8523,11.7364,1438,2964.57
14174,-1.2438,2.6217,8.2564,1466,2964.57
14179,2.6121,3.9109,10.3717,1446,2964.57
14184,-0.7338,0.6596,12.8186,1439,2964.57
14189,-4.7357,-1.0642,11.892,1445,2964.57
14194,-1.6089,2.5031,8.2971,1467,2964.28
14199,2.557,3.9049,10.2615,1449,2964.28
14204,-0.4812,0.8092,12.7383,1435,2964.28
14209,-4.5143,-1.2725,12.1051,1445,2964.28
14214,-2.0147,2.4373,8.2648,1469,2964.13
14219,2.5127,3.9109,10.1478,1445,2964.13
14224,-0.158,1.0092,12.6043,1437,2964.13
14229,-4.3203,-1.4162,12.1613,1437,2964.13
14234,-2.4565,2.3715,8.3474,1461,2964.13
14239,2.3583,3.8164,10.0341,1443,2964.13
14244,0.2095,1.1564,12.5911,1435,2964.13
14249,-4.1444,-1.5395,12.2583,1437,2964.13
14254,-2.8515,2.314,8.4372,1453,2963.84
14259,2.2769,3.7445,9.9515,1447,2963.84
14264,0.571,1.3408,12.4906,1436,2963.84
14269,-3.887,-1.6257,12.4762,1449,2963.84
14274,-3.2573,2.2374,8.5641,1463,2963.99
14279,2.1811,3.7326,9.8509,1446,2963.99
14284,1.0044,1.5371,12.3218,1440,2963.99
14289,-3.7637,-1.6987,12.5432,1447,2963.99
14294,-3.6464,2.1775,8.7257,1481,2963.99
14299,2.0925,3.6727,9.7229,1437,2963.99
14304,1.306,1.7298,12.2356,1443,2963.99
14309,-3.4907,-1.7418,12.6988,1437,2963.99
14314,-3.9959,2.0758,8.843,1465,2964.13
14319,2.0207,3.62,9.5828,1436,2964.13
14324,1.7633,2.0267,12.1039,1447,2964.13
14329,-3.2609,-1.6604,12.8162,1437,2964.13
14334,-4.3096,2.0111,9.068,1443,2964.13
14339,1.974,3.6164,9.4774,1451,2964.57
14344,2.0949,2.1703,11.9722,1443,2964.57
14349,-2.9939,-3.067,-0.3089,1437,2964.57
14354,-4.6088,1.8399,9.1842,1440,2964.57
14359,1.883,3.5063,9.3446,1453,2964.28
14364,2.4505,2.3128,11.8142,1445,2964.28
14369,-2.7473,-1.4976,12.9263,1436,2964.28
14374,-4.8507,1.7346,9.4104,1449,2964.28
14379,1.7885,3.4237,9.2356,1448,2963.99
14384,2.7114,2.5654,11.7041,1443,2963.99
14389,-2.49,-1.3958,12.9873,1435,2963.99
14394,-5.0386,1.4868,9.5828,1443,2963.99
14399,1.6604,3.3088,9.1087,1445,2963.99
14404,2.8922,2.7138,11.5353,1437,2963.99
14409,-2.3523,-1.2689,13.0735,1437,2963.99
14414,-5.2493,1.3024,9.8258,1446,2963.99
14419,1.494,3.2477,8.9411,1451,2964.13
14424,2.9963,2.9221,11.3952,1438,2964.13
14429,-2.1751,-1.093,13.0999,1439,2964.13
14434,-5.4181,1.0918,10.0868,1443,2964.13
14439,1.2282,3.2022,8.837,1448,2964.13
14444,3.0873,3.1161,11.2899,1433,2964.13
14449,-2.0063,-0.9026,13.137,1435,2964.13
14454,-5.4983,0.9074,10.3238,1443,2964.13
14459,1.087,3.1256,8.6921,1449,2963.99
14464,3.1029,3.3818,11.1271,1444,2963.99
14469,-1.8591,-0.6752,13.1071,1439,2963.99
14474,-5.4719,0.6416,10.5309,1439,2963.99
14479,0.826,3.0394,8.5688,1461,2963.84
14484,3.1113,3.4536,10.999,1444,2963.84
14489,-1.6867,-0.4345,13.1298,1439,2963.84
14494,-5.4265,0.3891,10.7416,1437,2963.84
14499,0.5626,2.982,8.4623,1455,2963.84
14504,3.0921,3.5721,10.8864,1443,2963.84
14509,-1.5634,-0.2035,13.125,1437,2963.84
14514,-5.3331,0.1006,10.9355,1444,2963.84
14519,0.2442,2.9042,8.3857,1455,2963.4
14524,3.0215,3.6643,10.7332,1435,2963.4
14529,-1.3886,-0.0192,13.052,1435,2963.4
14534,-5.2864,-0.2598,11.1318,1443,2963.4
14539,-0.0874,2.7845,8.2624,1453,2963.4
14544,2.8898,3.7278,10.6817,1445,2963.4
14549,-1.2222,0.1197,12.9969,1439,2963.4
14554,-5.1751,-0.5004,11.3784,1448,2963.4
14559,-0.5136,2.6731,8.2408,1465,2964.13
14564,2.7629,3.7852,10.5153,1439,2964.13
14569,-1.1432,0.3268,12.9395,1440,2964.13
14574,-5.0853,-0.6895,11.576,1437,2964.13
14579,-0.8416,2.6193,8.2337,1451,2964.28
14584,2.6947,3.887,10.3789,1443,2964.28
14589,-0.9565,0.5267,12.9562,1439,2964.28
14594,-4.9728,-0.8847,11.7208,1445,2964.28
14599,-1.2175,2.6001,8.1906,1465,2964.72
14604,2.5977,3.9217,10.3537,1445,2964.72
14609,-0.7757,0.6764,12.894,1439,2964.72
14614,-4.7824,-1.0618,11.9004,1439,2964.72
14619,-1.6604,2.5594,8.2396,1463,2965.01
14624,2.5187,3.8954,10.2472,1447,2965.01
14629,-0.5183,0.8068,12.7874,1433,2965.01
14634,-4.543,-1.2522,12.0081,1439,2965.01
14639,-2.0207,2.4397,8.2708,1467,2965.31
14644,2.4972,3.8786,10.1562,1443,2965.31
14649,-0.1688,1.0032,12.6342,1438,2965.31
14654,-4.3407,-1.4042,12.1913,1438,2965.31
14659,-2.4038,2.3786,8.3486,1455,2965.31
14664,2.4122,3.8678,10.1107,1445,2965.31
14669,0.1544,1.1552,12.5684,1439,2965.31
14674,-4.1336,-1.5814,12.2703,1447,2965.31
14679,-2.8108,2.2948,8.3749,1467,2967.07
14684,2.3056,3.7924,9.9503,1449,2967.07
14689,0.5626,1.3001,12.4307,1439,2967.07
14694,-4.0079,-1.6676,12.469,1449,2967.07
14699,-3.1951,2.2075,8.5198,1463,2966.33
14704,2.1931,3.7565,9.8545,1437,2966.33
14709,0.9026,1.4916,12.3505,1439,2966.33
14714,-3.7864,-1.725,12.5013,1444,2966.33
14719,-3.5817,2.1763,8.5772,1467,2967.95
14724,2.1392,3.6715,9.8031,1439,2967.95
14729,1.2438,1.658,12.3289,1444,2967.95
14734,-3.5925,-1.7262,12.6905,1434,2967.95
14739,-3.9002,2.1452,8.7472,1467,2967.51
14744,2.0746,3.6727,9.6426,1435,2967.51
14749,1.6113,1.8771,12.129,1447,2967.51
14754,-3.4046,-1.6855,12.7838,1435,2967.51
14759,-4.227,2.071,8.9352,1445,2967.51
14764,2.0219,3.6057,9.5828,1448,2967.65
14769,1.9788,2.0554,11.9973,1445,2967.65
14774,-3.1496,-1.6017,12.8593,1433,2967.65
14779,-4.5071,1.974,9.0561,1437,2967.65
14784,2.0051,3.6045,9.4547,1451,2967.07
14789,2.3427,2.1775,11.9016,1449,2967.07
14794,-2.9473,-1.5897,12.9251,1433,2967.07
14799,-4.7501,1.7837,9.2512,1445,2967.07
14804,1.8615,3.4979,9.2596,1450,2967.65
14809,2.6049,2.3954,11.7807,1444,2967.65
14814,-2.7066,-1.5479,12.9826,1435,2967.65
14819,-4.9584,1.6161,9.4595,1447,2967.65
14824,1.8387,3.3962,9.153,1448,2968.53
14829,2.8491,2.5869,11.6514,1443,2968.53
14834,-2.6025,-1.4688,13.052,1439,2968.53
14839,-5.1535,1.4593,9.669,1447,2968.53
14844,1.6747,3.3351,9.0429,1449,2968.68
14849,2.9449,2.7234,11.5484,1436,2968.68
14854,-2.4134,-1.3108,13.0795,1439,2968.68
14859,-5.3307,1.2917,9.7971,1443,2968.68
14864,1.4976,3.2441,8.9184,1451,2968.68
14869,3.0191,2.9197,11.382,1443,2968.68
14874,-2.2697,-1.1384,13.1944,1438,2968.68
14879,-5.3917,1.1516,10.0209,1439,2968.68
14884,1.3168,3.1975,8.8382,1451,2968.53
14889,3.0801,3.1268,11.2288,1443,2968.53
14894,-2.144,-0.9062,13.198,1437,2968.53
14899,-5.4887,0.9601,10.2651,1445,2968.53
14904,1.1277,3.1771,8.7879,1449,2968.68
14909,3.1316,3.2669,11.1259,1445,2968.68
14914,-1.9453,-0.6847,13.1897,1437,2968.68
14919,-5.4719,0.753,10.4016,1443,2968.68
14924,0.9481,3.122,8.5593,1451,2969.27
14929,3.1939,3.3734,11.06,1445,2969.27
14934,-1.7777,-0.5303,13.1633,1439,2969.27
14939,-5.5079,0.5207,10.6267,1439,2969.27
14944,0.7661,3.0382,8.5042,1465,2969.71
14949,3.1927,3.4931,10.8972,1443,2969.71
14954,-1.5969,-0.3412,13.1968,1438,2969.71
14959,-5.442,0.255,10.7452,1443,2969.71
14964,0.4956,2.9233,8.406,1455,2969.71
14969,3.1352,3.5231,10.805,1440,2969.71
14974,-1.4844,-0.2083,13.2148,1439,2969.71
14979,-5.466,0.0204,11.0516,1445,2969.71
14984,0.2143,2.8455,8.3438,1450,2970.15
14989,3.0574,3.6176,10.6506,1443,2970.15
14994,-1.3671,-0.0622,13.1657,1436,2970.15
14999,-5.3977,-0.1963,11.1306,1447,2970.15
15004,-0.0886,2.7138,8.2708,1455,2970.44
15009,2.9868,3.711,10.5465,1444,2970.44
15014,-1.2665,0.091,13.1059,1434,2970.44
15019,-5.3367,-0.4034,11.3401,1447,2970.44
15024,-0.3711,2.7473,8.2624,1469,2970.89
15029,2.8216,3.8487,10.489,1443,2970.89
15034,-1.2342,0.249,13.0903,1439,2970.89
15039,-5.2433,-0.5938,11.5149,1443,2970.89
15044,-0.6883,2.6803,8.2301,1465,2970.3
15049,2.818,3.869,10.4327,1437,2970.3
15054,-1.0774,0.4585,13.0005,1443,2970.3
15059,-5.102,-0.6991,11.6825,1443,2970.3
15064,-0.9122,2.6887,8.1678,1467,2969.42
15069,2.7438,3.9229,10.3477,1443,2969.42
15074,-0.9433,0.5662,12.9993,1444,2969.42
15079,-4.8878,-0.9122,11.7687,1444,2969.42
15084,-1.2426,2.5438,8.1786,1467,2968.83
15089,2.7043,3.9253,10.2723,1445,2968.83
15094,-0.6668,0.7099,12.9514,1438,2968.83
15099,-4.6902,-1.0942,11.9124,1446,2968.83
15104,-1.6316,2.5283,8.169,1469,2968.68
15109,2.5726,3.8918,10.1454,1443,2968.68
15114,-0.4202,0.8033,12.8269,1439,2968.68
15119,-4.5454,-1.306,12.044,1437,2968.68
15124,-2.0075,2.4157,8.2373,1462,2969.12
15129,2.4708,3.8487,10.2029,1446,2969.12
15134,-0.1185,0.978,12.7407,1443,2969.12
15139,-4.3993,-1.4305,12.1135,1439,2969.12
15144,-2.3643,2.3619,8.2636,1447,2969.56
15149,2.3727,3.7816,10.0712,1446,2969.56
15154,0.085,1.1097,12.6498,1437,2969.56
15159,-4.2569,-1.5574,12.3409,1445,2969.56
15164,-2.7617,2.3439,8.4144,1453,2969.27
15169,2.2398,3.7888,9.8869,1443,2969.27
15174,0.4034,1.2689,12.5492,1439,2969.27
15179,-4.1144,-1.5957,12.3661,1449,2969.27
15184,-3.067,2.3583,8.4791,1453,2969.12
15189,2.2601,3.8044,9.8857,1444,2969.12
15194,0.747,1.4401,12.4941,1442,2969.12
15199,-3.9337,-1.6783,12.5456,1444,2969.12
15204,-3.4477,2.2984,8.5856,1471,2968.83
15209,2.1668,3.796,9.8174,1438,2968.83
15214,1.1325,1.6556,12.3301,1449,2968.83
15219,-2.6755,-1.4653,12.9454,1437,2968.83
15224,-4.9835,1.6173,9.4559,1470,2969.27
15229,2.1703,3.7469,9.6893,1439,2969.27
15234,2.8718,2.6659,11.6286,1449,2969.27
15239,-2.5091,-1.3372,13.0436,1437,2969.27
15244,-5.1631,1.4365,9.6917,1445,2969.27
15249,1.646,3.3076,9.0225,1449,2969.56
15254,2.9916,2.7701,11.5604,1447,2969.56
15259,-2.3715,-1.2749,13.1166,1439,2969.56
15264,-5.29,1.2474,9.8162,1439,2969.56
15269,1.4724,3.2214,8.8992,1452,2969.27
15274,3.0347,2.9796,11.388,1447,2969.27
15279,-2.2314,-1.0511,13.1466,1437,2969.27
15284,-5.43,1.1085,10.076,1444,2969.27
15289,1.3036,3.1675,8.7999,1449,2969.12
15294,3.0873,3.1017,11.2695,1445,2969.12
15299,-2.0889,-0.8571,13.1944,1436,2969.12
15304,-5.4851,0.9529,10.3034,1449,2969.12
15309,1.0942,3.1639,8.7005,1455,2968.68
15314,3.1556,3.3028,11.1977,1439,2968.68
15319,-1.9297,-0.644,13.1813,1437,2968.68
15324,-5.4779,0.7602,10.4591,1448,2968.68
15329,0.9254,3.0586,8.5545,1447,2968.53
15334,3.2046,3.3651,11.0421,1439,2968.53
15339,-1.7597,-0.4669,13.2124,1438,2968.53
15344,-5.4696,0.5531,10.6542,1443,2968.53
15349,0.6979,3.0358,8.4467,1452,2968.53
15354,3.1831,3.5398,10.8781,1433,2968.53
15359,-1.6005,-0.3472,13.1968,1445,2968.53
15364,-5.4277,0.2466,10.8673,1443,2968.53
15369,0.3986,2.9042,8.3582,1461,2968.68
15374,3.1484,3.5853,10.8062,1443,2968.68
15379,-1.4341,-0.1808,13.1083,1437,2968.68
15384,-5.375,-0.0036,11.078,1445,2968.68
15389,0.1724,2.8455,8.2468,1447,2969.12
15394,3.0263,3.6895,10.6686,1449,2969.12
15399,-1.3874,-0.0168,13.0628,1437,2969.12
15404,-5.3295,-0.2705,11.1929,1445,2969.12
15409,-0.146,2.7521,8.26,1453,2969.12
15414,2.9556,3.7266,10.6243,1446,2969.12
15419,-1.245,0.1365,13.0951,1439,2969.12
15424,-5.2768,-0.4717,11.3593,1440,2969.12
15429,-0.4274,2.7198,8.1834,1459,2968.97
15434,2.8575,3.8247,10.4854,1447,2968.97
15439,-1.1241,0.322,13.0508,1443,2968.97
15444,-5.2277,-0.6608,11.5377,1443,2968.97
15449,-0.7733,2.6743,8.1798,1459,2968.97
15454,2.6935,3.8942,10.4639,1443,2968.97
15459,-1.0127,0.4848,12.9694,1437,2968.97
15464,-5.0027,-0.8344,11.7148,1447,2968.97
15469,-1.1229,2.6085,8.2097,1453,2968.97
15474,2.7031,3.948,10.3465,1448,2968.97
15479,-0.8511,0.6177,12.9383,1434,2968.97
15484,-4.871,-1.0032,11.886,1447,2968.97
15489,-1.4557,2.5319,8.1511,1465,2969.56
15494,2.6169,3.9708,10.2747,1446,2969.56
15499,-0.6069,0.7781,12.8174,1435,2969.56
15504,-4.6855,-1.1779,11.9734,1447,2969.56
15509,-1.7765,2.4648,8.1475,1464,2969.42
15514,2.5845,3.9061,10.1766,1446,2969.42
15519,-0.2909,0.905,12.7527,1443,2969.42
15524,-4.5298,-1.3408,12.1123,1439,2969.42
15529,-2.1404,2.4253,8.2564,1469,2969.42
15534,2.4936,3.875,10.0652,1444,2969.42
15539,-0.0359,1.0343,12.6186,1443,2969.42
15544,-4.3598,-1.4497,12.1721,1443,2969.42
15549,-2.5211,2.3451,8.2959,1465,2969.56
15554,2.3667,3.8223,10.0365,1444,2969.56
15559,0.2897,1.1612,12.651,1445,2969.56
15564,-4.2042,-1.6077,12.317,1445,2969.56
15569,-2.879,2.296,8.3462,1467,2969.56
15574,2.2601,3.8235,9.924,1455,2969.56
15579,0.5543,1.33,12.4678,1438,2969.56
15584,-4.0354,-1.6879,12.5205,1447,2969.56
15589,-3.2214,2.2553,8.503,1469,2969.86
15594,2.1931,3.7769,9.8952,1447,2969.86
15599,0.9026,1.5335,12.4032,1437,2969.86
15604,-3.8822,-1.6783,12.6198,1438,2969.86
15609,-3.5482,2.2278,8.6371,1471,2970.0
15614,2.1249,3.7074,9.7384,1447,2970.0
15619,1.1851,1.6723,12.2739,1439,2970.0
15624,-3.6907,-1.6676,12.6845,1439,2970.0
15629,-3.8535,2.1907,8.7652,1455,2969.56
15634,2.1632,3.6943,9.6043,1448,2969.56
15639,1.5933,1.822,12.2846,1439,2969.56
15644,-3.4225,-1.6616,12.7443,1445,2969.56
15649,-4.1276,2.1177,8.8597,1468,2969.27
15654,2.071,3.6188,9.5337,1448,2969.27
15659,1.9501,2.0387,12.0596,1439,2969.27
15664,-3.2094,-1.6544,12.8377,1451,2969.27
15669,-4.361,1.974,9.0106,1469,2969.27
15674,2.0482,3.5781,9.4499,1447,2969.27
15679,2.2206,2.1811,11.9938,1447,2969.27
15684,-2.9844,-1.6101,12.9383,1450,2969.27
15689,-4.628,1.8052,9.1375,1467,2969.42
15694,1.9429,3.486,9.2955,1444,2969.42
15699,2.4924,2.3691,11.8106,1450,2969.42
15704,-2.8623,-1.5718,13.0125,1439,2969.42
15709,-4.853,1.7131,9.3649,1465,2969.42
15714,1.8124,3.4321,9.2177,1439,2969.42
15719,2.6384,2.5187,11.7136,1450,2969.42
15724,-2.6683,-1.488,13.0089,1437,2969.42
15729,-5.047,1.5622,9.5732,1445,2969.42
15734,1.7142,3.3423,9.1219,1445,2969.71
15739,2.8036,2.7234,11.7088,1445,2969.71
15744,-2.4924,-1.3587,13.1095,1443,2969.71
15749,-5.2337,1.4281,9.742,1439,2969.71
15754,1.5778,3.3411,8.9795,1453,2970.0
15759,3.0119,2.8647,11.4515,1443,2970.0
15764,-2.3008,-1.1408,13.1011,1437,2970.0
15769,-5.351,1.2761,9.9563,1447,2970.0
15774,1.4222,3.3016,8.8849,1452,2970.0
15779,3.1161,3.0478,11.3557,1448,2970.0
15784,-2.1835,-0.9768,13.1633,1436,2970.0
15789,-5.4779,1.1109,10.137,1451,2970.0
15794,1.2737,3.2166,8.7388,1451,2970.15
15799,3.2058,3.1615,11.224,1447,2970.15
15804,-1.9956,-0.8224,13.2232,1435,2970.15
15809,-5.4827,0.8368,10.3274,1451,2970.15
15814,1.0738,3.1867,8.7245,1453,2969.42
15819,3.1879,3.298,11.1294,1440,2969.42
15824,-1.8423,-0.6297,13.1956,1439,2969.42
15829,-5.466,0.6093,10.5022,1451,2969.42
15834,0.8835,3.0275,8.5102,1455,2968.68
15839,3.1819,3.3926,10.9427,1439,2968.68
15844,-1.6771,-0.5088,13.1765,1445,2968.68
15849,-5.4803,0.3783,10.7164,1443,2968.68
15854,0.6177,2.9257,8.4587,1456,2967.8
15859,3.1113,3.4943,10.8876,1445,2967.8
15864,-1.579,-0.267,13.1813,1439,2967.8
15869,-5.5007,0.1652,10.896,1439,2967.8
15874,0.3424,2.8802,8.4072,1449,2966.92
15879,2.982,3.5949,10.8134,1445,2966.92
15884,-1.5095,-0.1496,13.1992,1435,2966.92
15889,-5.4109,-0.0694,11.0445,1444,2966.92
15894,0.0204,2.8467,8.3342,1449,2966.04
15899,2.9269,3.7338,10.6243,1449,2966.04
15904,-1.4102,0.0611,13.0747,1439,2966.04
15909,-5.3139,-0.2849,11.2863,1439,2966.04
15914,-0.31,2.7845,8.26,1456,2965.75
15919,2.8647,3.8247,10.5644,1445,2965.75
15924,-1.2582,0.2514,13.0185,1437,2965.75
15929,-5.1344,-0.51,11.467,1445,2965.75
15934,-0.6452,2.6791,8.2301,1465,2965.31
15939,2.812,3.8355,10.4435,1447,2965.31
15944,-1.0798,0.4417,12.9766,1438,2965.31
15949,-5.0218,-0.7554,11.6885,1445,2965.31
15954,-1.0127,2.6157,8.2097,1453,2965.45
15959,2.7114,3.9037,10.4004,1447,2965.45
15964,-0.838,0.6129,12.8437,1437,2965.45
15969,-4.8159,-0.9685,11.7352,1449,2965.45
15974,-1.3886,2.5223,8.1858,1466,2965.31
15979,2.6348,3.8583,10.2268,1448,2965.31
15984,-0.5938,0.7673,12.8389,1433,2965.31
15989,-4.6555,-1.1911,11.9519,1447,2965.31
15994,-1.8028,2.49,8.2301,1469,2965.45
15999,2.5127,3.8104,10.1945,1443,2965.45
16004,-0.2849,0.8966,12.8245,1439,2965.45
16009,-4.4903,-1.3695,12.0321,1439,2965.45
16014,-2.1572,2.405,8.2756,1463,2965.6
16019,2.3762,3.8307,10.1107,1446,2965.6
16024,0.0168,1.0534,12.7024,1443,2965.6
16029,-4.306,-1.5179,12.2152,1443,2965.6
16034,-2.6025,2.4038,8.3737,1467,2965.31
16039,2.2996,3.8283,10.0712,1449,2965.31
16044,0.3579,1.239,12.5085,1435,2965.31
16049,-4.1204,-1.6065,12.3493,1439,2965.31
16054,-2.9999,2.2613,8.4743,1467,2965.01
16059,2.2158,3.8176,9.9455,1449,2965.01
16064,0.6955,1.4473,12.4475,1435,2965.01
16069,-3.9205,-1.6855,12.5145,1439,2965.01
16074,-3.3794,2.2494,8.5485,1467,2965.31
16079,2.2194,3.7876,9.8043,1445,2965.31
16084,1.1013,1.6233,12.2679,1437,2965.31
16089,-3.6428,-1.6927,12.6043,1439,2965.31
16094,-3.7493,2.1524,8.7628,1465,2965.01
16099,2.1668,3.7074,9.6822,1447,2965.01
16104,1.5095,1.7753,12.2559,1437,2965.01
16109,-3.4058,-1.7418,12.6486,1445,2965.01
16114,-4.0797,2.0913,8.8633,1464,2965.01
16119,2.1237,3.6583,9.499,1445,2965.01
16124,1.8687,2.0051,12.0823,1439,2965.01
16129,-3.1544,-1.6975,12.785,1451,2965.01
16134,-4.3838,1.919,8.9914,1463,2965.31
16139,2.0255,3.5745,9.4978,1443,2965.31
16144,2.1847,2.2039,11.9243,1445,2965.31
16149,-2.9497,-1.6245,12.8712,1444,2965.31
16154,-4.6495,1.7813,9.232,1470,2966.04
16159,1.895,3.4872,9.3254,1435,2966.04
16164,2.472,2.3894,11.7974,1449,2966.04
16169,-2.8192,-1.579,12.9778,1437,2966.04
16174,-4.9081,1.6101,9.4511,1455,2966.04
16179,1.7825,3.4249,9.2344,1443,2966.04
16184,2.6588,2.6348,11.6873,1447,2966.04
16189,-2.6312,-1.4473,13.0065,1416,2966.04
16194,-5.1116,1.5323,9.6845,1439,2966.04
16199,1.6245,3.3375,9.068,1453,2967.65
16204,2.8838,2.8647,11.5939,1439,2967.65
16209,-2.4708,-1.2234,13.046,1437,2967.65
16214,-5.3008,1.3551,9.8569,1448,2967.65
16219,1.5179,3.3255,8.9232,1450,2967.21
16224,3.0167,2.9963,11.4191,1447,2967.21
16229,-2.2637,-1.0678,13.0987,1437,2967.21
16234,-5.351,1.16,10.0137,1449,2967.21
16239,1.3503,3.2573,8.8274,1449,2966.92
16244,3.1017,3.1208,11.2946,1439,2966.92
16249,-2.0255,-0.8571,13.1406,1435,2966.92
16254,-5.3774,0.9146,10.2412,1450,2966.92
16259,1.1396,3.1292,8.6407,1451,2964.87
16264,3.1735,3.2777,11.1259,1436,2964.87
16269,-1.895,-0.6381,13.204,1419,2964.87
16274,-5.4576,0.6416,10.4483,1440,2964.87
16279,0.8954,3.067,8.6299,1451,2963.84
16284,3.1328,3.4153,11.0169,1440,2963.84
16289,-1.6951,-0.5016,13.0939,1443,2963.84
16294,-5.448,0.3771,10.6578,1439,2963.84
16299,0.5854,2.958,8.442,1451,2962.38
16304,3.0885,3.5434,10.8876,1439,2962.38
16309,-1.5826,-0.2682,13.0448,1433,2962.38
16314,-5.4169,0.0898,10.9858,1439,2962.38
16319,0.2789,2.8515,8.4432,1450,2961.94
16324,2.9688,3.6344,10.8158,1445,2961.94
16329,-1.47,-0.0982,12.9933,1439,2961.94
16334,-5.3403,-0.1772,11.1211,1444,2961.94
16339,-0.1161,2.7485,8.3953,1462,2961.65
16344,2.8323,3.7445,10.641,1433,2961.65
16349,-1.3192,0.1245,13.0795,1439,2961.65
16354,-5.2397,-0.3938,11.3054,1443,2961.65
16359,-0.5052,2.7545,8.3594,1455,2961.94
16364,2.7533,3.8583,10.489,1443,2961.94
16369,-1.1217,0.334,12.9873,1436,2961.94
16374,-5.0781,-0.6189,11.5305,1443,2961.94
16379,-0.8416,2.6588,8.278,1451,2962.52
16384,2.7126,3.9025,10.4016,1443,2962.52
16389,-0.9218,0.5183,12.894,1435,2962.52
16394,-4.8973,-0.8595,11.7292,1451,2962.52
16399,-1.2653,2.5941,8.2001,1463,2963.26
16404,2.6516,3.8966,10.2843,1445,2963.26
16409,-0.7063,0.7063,12.7575,1439,2963.26
16414,-4.6459,-1.1061,11.9028,1447,2963.26
16419,-1.6664,2.4684,8.2085,1461,2964.13
16424,2.5211,3.8223,10.2604,1440,2964.13
16429,-0.3508,0.8272,12.7491,1445,2964.13
16434,-4.4879,-1.2582,12.0105,1443,2964.13
16439,-2.0387,2.4157,8.2396,1464,2964.43
16444,2.393,3.8379,10.1203,1446,2964.43
16449,-0.0802,0.9888,12.6665,1439,2964.43
16454,-4.3586,-1.4976,12.2176,1448,2964.43
16459,-2.49,2.3439,8.3498,1463,2964.72
16464,2.3068,3.8008,10.0341,1447,2964.72
16469,0.2346,1.2007,12.6067,1436,2964.72
16474,-4.1456,-1.6005,12.3469,1440,2964.72
16479,-2.9149,2.3547,8.4408,1469,2965.01
16484,2.2194,3.8367,9.9252,1447,2965.01
16489,0.5483,1.3719,12.4606,1439,2965.01
16494,-3.966,-1.6101,12.4846,1453,2965.01
16499,-3.2609,2.2577,8.5856,1469,2965.31
16504,2.1919,3.8104,9.912,1437,2965.31
16509,0.9421,1.6185,12.3098,1444,2965.31
16514,-3.723,-1.6604,12.6031,1443,2965.31
16519,-3.6105,2.1919,8.655,1461,2966.48
16524,2.1608,3.7984,9.73,1448,2966.48
16529,1.3647,1.7633,12.208,1437,2966.48
16534,-3.5279,-1.6987,12.7491,1445,2966.48
16539,-3.9684,2.1093,8.8071,1467,2967.21
16544,2.0997,3.6859,9.6127,1446,2967.21
16549,1.7442,1.9465,12.135,1439,2967.21
16554,-3.2717,-1.6903,12.7982,1445,2967.21
16559,-4.2401,1.9704,8.9328,1461,2966.92
16564,2.053,3.5757,9.5433,1439,2966.92
16569,2.1356,2.0973,11.9902,1446,2966.92
16574,-3.1029,-1.7083,12.888,1443,2966.92
16579,-4.5418,1.8411,9.1267,1464,2966.04
16584,1.9525,3.4991,9.3709,1443,2966.04
16589,2.3715,2.3032,11.8154,1451,2966.04
16594,-2.8754,-1.5933,12.9454,1437,2966.04
16599,-4.7812,1.7442,9.3218,1453,2965.01
16604,1.7885,3.4584,9.3278,1438,2965.01
16609,2.5953,2.5367,11.6861,1445,2965.01
16614,-2.6647,-1.4856,12.9921,1437,2965.01
16619,-5.0829,1.5395,9.5385,1437,2965.01
16624,1.7142,3.3495,9.1901,1453,2964.28
16629,2.7617,2.7354,11.5604,1438,2964.28
16634,-2.4995,-1.2821,13.0747,1439,2964.28
16639,-5.2253,1.4234,9.8126,1447,2964.28
16644,1.5323,3.3351,9.0752,1447,2964.28
16649,2.9389,2.9521,11.4754,1444,2964.28
16654,-2.2793,-1.1133,13.0975,1436,2964.28
16659,-5.351,1.1995,9.9886,1451,2964.28
16664,1.3479,3.2286,8.8274,1453,2963.55
16669,3.0765,3.0969,11.3018,1439,2963.55
16674,-2.071,-0.8835,13.1382,1437,2963.55
16679,-5.3774,0.9936,10.2376,1451,2963.55
16684,1.1396,3.1591,8.7532,1449,2963.69
16689,3.1137,3.2765,11.1247,1437,2963.69
16694,-1.8435,-0.6644,13.1118,1435,2963.69
16699,-5.4181,0.6596,10.4327,1439,2963.69
16704,0.9098,3.0394,8.6431,1453,2964.28
16709,3.152,3.3291,10.9846,1439,2964.28
16714,-1.6532,-0.5339,13.1298,1439,2964.28
16719,-5.466,0.3687,10.6829,1440,2964.28
16724,0.6381,2.976,8.5269,1451,2964.43
16729,3.1029,3.4872,10.8206,1445,2964.43
16734,-1.5766,-0.3208,13.1286,1435,2964.43
16739,-5.4013,0.1113,10.817,1439,2964.43
16744,0.3148,2.8467,8.4791,1452,2964.43
16749,3.0347,3.6009,10.7871,1445,2964.43
16754,-1.4521,-0.1197,13.1753,1437,2964.43
16759,-5.3822,-0.0706,11.0983,1443,2964.43
16764,-0.0204,2.8012,8.418,1461,2964.28
16769,2.8766,3.7517,10.6793,1443,2964.28
16774,-1.4042,0.0946,13.0616,1437,2964.28
16779,-5.2684,-0.3112,11.2923,1443,2964.28
16784,-0.3496,2.7665,8.3498,1455,2964.13
16789,2.8108,3.8092,10.5955,1443,2964.13
16794,-1.221,0.3005,13.0209,1435,2964.13
16799,-5.1595,-0.5722,11.5005,1445,2964.13
16804,-0.7075,2.7306,8.2408,1446,2963.99
16809,2.7485,3.869,10.4387,1443,2963.99
16814,-1.0163,0.4729,12.9658,1435,2963.99
16819,-4.8997,-0.8009,11.6813,1451,2963.99
16824,-1.0894,2.6133,8.2013,1463,2964.43
16829,2.6791,3.8894,10.3741,1447,2964.43
16834,-0.7518,0.6201,12.8557,1437,2964.43
16839,-4.7872,-1.0116,11.7304,1447,2964.43
16844,-1.4186,2.4983,8.2097,1469,2964.43
16849,2.6013,3.8391,10.2508,1439,2964.43
16854,-0.48,0.7386,12.8305,1443,2964.43
16859,-4.5753,-1.2163,11.9914,1439,2964.43
16864,-1.8292,2.4181,8.2193,1464,2964.72
16869,2.4696,3.8439,10.1311,1440,2964.72
16874,-0.2442,0.9182,12.6953,1440,2964.72
16879,-4.4293,-1.4054,12.0811,1447,2964.72
16884,-2.2565,2.3547,8.2827,1467,2964.72
16889,2.3248,3.8152,10.1023,1451,2964.72
16894,0.0575,1.1097,12.6414,1435,2964.72
16899,-4.2545,-1.5407,12.2619,1440,2964.72
16904,-2.6971,2.3212,8.4096,1469,2965.01
16909,2.2601,3.7649,10.0293,1447,2965.01
16914,0.3843,1.2965,12.5755,1439,2965.01
16919,-4.0642,-1.5886,12.3924,1435,2965.01
16924,-3.134,2.2972,8.5377,1465,2965.16
16929,2.2278,3.814,9.8809,1443,2965.16
16934,0.7446,1.4688,12.402,1438,2965.16
16939,-3.796,-1.5945,12.475,1443,2965.16
16944,-3.456,2.2218,8.5712,1469,2965.01
16949,2.2015,3.7804,9.7252,1448,2965.01
16954,1.251,1.6532,12.3002,1435,2965.01
16959,-3.5997,-1.6532,12.6306,1447,2965.01
16964,-3.7924,2.1691,8.74,1467,2965.16
16969,2.1572,3.7074,9.6546,1449,2965.16
16974,1.6209,1.8579,12.1206,1439,2965.16
16979,-3.3387,-1.658,12.6941,1447,2965.16
16984,-4.1049,2.0123,8.8825,1463,2964.87
16989,2.0842,3.6045,9.5565,1439,2964.87
16994,2.0315,2.0446,12.0524,1447,2964.87
16999,-3.146,-1.6843,12.8617,1445,2964.87
17004,-4.4305,1.883,9.1159,1479,2965.01
17009,1.9848,3.4907,9.42,1439,2965.01
17014,2.3068,2.2529,11.8657,1449,2965.01
17019,-2.9209,-1.64,12.8485,1438,2965.01
17024,-4.7309,1.7262,9.2823,2159,2964.87
17029,1.8244,3.4225,9.2919,1439,2964.87
17034,2.5343,2.4493,11.7998,1443,2964.87
17039,-2.7545,-1.4988,13.0233,1439,2964.87
17044,-4.9907,1.5598,9.517,1439,2964.87
17049,1.7394,3.3794,9.1315,1453,2966.63
17054,2.7198,2.6815,11.6538,1432,2966.63
17059,-2.5546,-1.3192,13.0221,1437,2966.63
17064,-5.211,1.4377,9.675,1448,2966.63
17069,1.5538,3.3148,9.0776,1452,2965.6
17074,2.8826,2.879,11.5592,1443,2965.6
17079,-2.4062,-1.1181,13.1478,1435,2965.6
17084,-5.3187,1.3072,9.9383,1447,2965.6
17089,1.4712,3.3088,8.9004,1445,2965.6
17094,3.0718,3.0718,11.394,1443,2965.6
17099,-2.1165,-0.9661,13.113,1439,2965.6
17104,-5.3786,1.0319,10.1598,1447,2965.6
17109,1.2438,3.1879,8.8095,1453,2965.89
17114,3.1376,3.1963,11.2156,1437,2965.89
17119,-1.9285,-0.7817,13.1035,1452,2965.89
17124,-5.4217,0.8116,10.2999,1444,2965.89
17129,1.0846,3.1125,8.6323,1451,2966.63
17134,3.201,3.2932,11.0959,1439,2966.63
17139,-1.731,-0.6704,13.1657,1439,2966.63
17144,-5.4851,0.5614,10.5716,1435,2966.63
17149,0.7889,2.9904,8.5138,1455,2966.33
17154,3.1783,3.4369,10.9164,1444,2966.33
17159,-1.5862,-0.4202,13.1214,1450,2966.33
17164,-5.4719,0.2885,10.7691,1439,2966.33
17169,0.5148,2.9437,8.4671,1450,2965.16
17174,3.0478,3.5757,10.8038,1447,2965.16
17179,-1.5574,-0.2346,13.1154,1440,2965.16
17184,-5.4456,0.0898,10.9379,1440,2965.16
17189,0.1784,2.8659,8.3953,1455,2964.28
17194,2.9341,3.6907,10.7236,1445,2964.28
17199,-1.4545,-0.0287,13.0556,1437,2964.28
17204,-5.3163,-0.1496,11.1558,1443,2964.28
17209,-0.1281,2.8395,8.3354,1455,2964.57
17214,2.8946,3.8319,10.647,1446,2964.57
17219,-1.3898,0.1832,13.1071,1437,2964.57
17224,-5.2409,-0.3723,11.4084,1445,2964.57
17229,-0.4537,2.715,8.26,1455,2964.13
17234,2.8276,3.9037,10.5213,1447,2964.13
17239,-1.1648,0.3663,12.9323,1437,2964.13
17244,-5.0518,-0.6129,11.5544,1439,2964.13
17249,-0.8104,2.6743,8.2408,1467,2965.01
17254,2.7294,3.8642,10.422,1445,2965.01
17259,-0.9337,0.5243,12.9466,1439,2965.01
17264,-4.889,-0.8535,11.722,1447,2965.01
17269,-1.2079,2.563,8.1942,1470,2965.89
17274,2.6683,3.8427,10.2951,1443,2965.89
17279,-0.6632,0.6381,12.8509,1438,2965.89
17284,-4.7477,-1.0918,11.8872,1437,2965.89
17289,-1.5634,2.5043,8.193,1459,2967.21
17294,2.5582,3.8523,10.2508,1443,2967.21
17299,-0.4705,0.7841,12.809,1445,2967.21
17304,-4.6148,-1.3036,12.0177,1445,2967.21
17309,-1.9656,2.4253,8.1989,1464,2967.95
17314,2.4541,3.8523,10.1263,1444,2967.95
17319,-0.2406,0.9649,12.7252,1439,2967.95
17324,-4.4688,-1.409,12.1985,1446,2967.95
17329,-2.3092,2.4146,8.2672,1470,2969.12
17334,2.3774,3.881,10.0688,1449,2969.12
17339,0.0287,1.1372,12.5899,1437,2969.12
17344,-4.3144,-1.5227,12.3074,1444,2969.12
17349,-2.6743,2.3511,8.3617,1478,2969.86
17354,2.314,3.8511,9.9826,1447,2969.86
17359,0.3819,1.2737,12.5324,1437,2969.86
17364,-4.1539,-1.5598,12.4451,1439,2969.86
17369,-3.0502,2.3128,8.4683,1469,2968.97
17374,2.2613,3.8583,9.9252,1443,2968.97
17379,0.7278,1.4377,12.475,1439,2968.97
17384,-3.9205,-1.646,12.5504,1445,2968.97
17389,-3.3603,2.2434,8.5497,1467,2969.71
17394,2.2685,3.784,9.8258,1447,2969.71
17399,1.0989,1.585,12.3385,1443,2969.71
17404,-3.7146,-1.6484,12.639,1445,2969.71
17409,-3.6751,2.1668,8.6742,1472,2969.42
17414,2.2003,3.7326,9.6438,1439,2969.42
17419,1.4521,1.7502,12.1218,1455,2969.42
17424,-3.5195,-1.725,12.7551,1447,2969.42
17429,-3.9756,2.0327,8.7975,1454,2969.86
17434,2.1296,3.626,9.6271,1443,2969.86
17439,1.7849,1.8723,12.1566,1445,2969.86
17444,-3.3196,-1.7801,12.8317,1449,2969.86
17449,-4.2988,1.9908,8.9388,1471,2969.71
17454,2.0351,3.6164,9.4774,1439,2969.71
17459,2.0602,2.0806,11.9926,1447,2969.71
17464,-3.0957,-1.7346,12.8904,1431,2969.71
17469,-4.604,1.8627,9.171,1478,2970.44
17474,1.919,3.5075,9.4176,1443,2970.44
17479,2.3308,2.2936,11.892,1449,2970.44
17484,-2.9652,-1.5634,12.9778,1435,2970.44
17489,-4.8375,1.7885,9.3278,1445,2970.44
17494,1.8639,3.4943,9.2979,1446,2971.03
17499,2.563,2.4648,11.7926,1451,2971.03
17504,-2.8108,-1.4988,13.0352,1437,2971.03
17509,-4.9883,1.6664,9.4559,1443,2971.03
17514,1.7801,3.48,9.1447,1453,2971.47
17519,2.745,2.5821,11.7053,1440,2971.47
17524,-2.6767,-1.3348,13.1358,1437,2971.47
17529,-5.1511,1.573,9.6259,1449,2971.47
17534,1.6652,3.3902,9.0621,1451,2971.33
17539,2.8934,2.7689,11.5879,1448,2971.33
17544,-2.46,-1.233,13.1561,1433,2971.33
17549,-5.2385,1.3563,9.8198,1451,2971.33
17554,1.5347,3.3399,8.8981,1449,2969.27
17559,3.0742,2.9616,11.4072,1443,2969.27
17564,-2.2302,-1.087,13.1717,1446,2969.27
17569,-5.3139,1.1636,9.9982,1453,2969.27
17574,1.3791,3.201,8.8286,1453,2967.21
17579,3.1316,3.0789,11.3318,1447,2967.21
17584,-2.0554,-0.929,13.1825,1445,2967.21
17589,-5.3905,0.8894,10.1131,1443,2967.21
17594,1.166,3.1208,8.6323,1455,2965.89
17599,3.1472,3.2154,11.2097,1439,2965.89
17604,-1.9094,-0.6991,13.1478,1436,2965.89
17609,-5.4887,0.6644,10.4327,1439,2965.89
17614,0.9242,3.0765,8.6251,1455,2964.57
17619,3.1113,3.3662,11.0911,1445,2964.57
17624,-1.7729,-0.5291,13.1238,1435,2964.57
17629,-5.4923,0.4609,10.6147,1445,2964.57
17634,0.6285,2.976,8.5341,1448,2964.28
17639,3.0239,3.541,10.9343,1449,2964.28
17644,-1.6568,-0.2921,13.204,1439,2964.28
17649,-5.4851,0.231,10.8433,1443,2964.28
17654,0.346,2.9317,8.4635,1465,2963.99
17659,2.9939,3.6428,10.8242,1444,2963.99
17664,-1.5167,-0.0958,13.0795,1439,2963.99
17669,-5.3439,-0.0048,11.0385,1439,2963.99
17674,0.0227,2.8359,8.3857,1451,2963.4
17679,2.9437,3.7661,10.6973,1443,2963.4
17684,-1.3635,0.091,13.0891,1437,2963.4
17689,-5.2505,-0.2658,11.2731,1443,2963.4
17694,-0.3005,2.7725,8.2085,1455,2963.11
17699,2.8838,3.7625,10.5704,1443,2963.11
17704,-1.1504,0.231,12.9658,1435,2963.11
17709,-5.1056,-0.5974,11.4826,1445,2963.11
17714,-0.7075,2.6815,8.2636,1437,2962.67
17719,2.7713,3.8259,10.404,1447,2962.67
17724,-0.9936,0.4322,12.9478,1435,2962.67
17729,-4.9428,-0.8535,11.6286,1450,2962.67
17734,-1.0295,2.5714,8.2001,1468,2963.4
17739,2.654,3.8199,10.3537,1440,2963.4
17744,-0.8056,0.5483,12.8497,1443,2963.4
17749,-4.7872,-1.1025,11.7603,1438,2963.4
17754,-1.488,2.49,8.2516,1463,2962.82
17759,2.5223,3.8283,10.3082,1445,2962.82
17764,-0.5531,0.7374,12.7791,1445,2962.82
17769,-4.5897,-1.2486,11.9854,1443,2962.82
17774,-1.8986,2.4912,8.248,1467,2962.52
17779,2.4469,3.8906,10.1873,1446,2962.52
17784,-0.2837,0.9421,12.7192,1433,2962.52
17789,-4.4221,-1.409,12.1302,1446,2962.52
17794,-2.3631,2.4038,8.3187,1467,2962.38
17799,2.3535,3.8882,10.0748,1447,2962.38
17804,0.0467,1.1612,12.5803,1443,2962.38
17809,-4.1683,-1.5083,12.3146,1439,2962.38
17814,-2.7737,2.3475,8.3905,1478,2962.23
17819,2.2853,3.8511,9.9551,1437,2962.23
17824,0.5124,1.3084,12.4906,1443,2962.23
17829,-3.8954,-1.64,12.4678,1439,2962.23
17834,-3.1807,2.2362,8.5305,1469,2962.09
17839,2.2458,3.8235,9.8414,1447,2962.09
17844,0.9301,1.5562,12.3493,1439,2962.09
17849,-3.6787,-1.7502,12.481,1451,2962.09
17854,-3.5362,2.1632,8.6766,1455,2962.23
17859,2.2039,3.7134,9.7564,1444,2962.23
17864,1.3611,1.7322,12.226,1444,2962.23
17869,-3.4117,-1.7286,12.6665,1445,2962.23
17874,-4.0187,2.0446,8.8454,1455,2962.38
17879,2.1081,3.6176,9.6403,1439,2962.38
17884,1.7729,1.9357,12.074,1448,2962.38
17889,-3.1987,-1.6999,12.7683,1437,2962.38
17894,-4.3766,1.919,9.0178,1469,2962.67
17899,1.9788,3.5817,9.5888,1443,2962.67
17904,2.0842,2.1883,11.9279,1444,2962.67
17909,-3.0119,-1.6412,12.8796,1433,2962.67
17914,-4.6567,1.7825,9.2332,1439,2962.67
17919,1.8375,3.4716,9.4236,1449,2962.52
17924,2.3966,2.4122,11.7639,1439,2962.52
17929,-2.7976,-1.506,12.9431,1439,2962.52
17934,-4.9225,1.6771,9.4763,1440,2962.52
17939,1.7526,3.4524,9.2775,1453,2963.11
17944,2.6504,2.6193,11.71,1449,2963.11
17949,-2.5845,-1.3767,13.0161,1437,2963.11
17954,-5.0973,1.4868,9.6893,1451,2963.11
17959,1.6233,3.3303,9.0956,1449,2963.26
17964,2.8826,2.812,11.5329,1439,2963.26
17969,-2.3499,-1.1588,13.1059,1436,2963.26
17974,-5.3127,1.3084,9.9288,1451,2963.26
17979,1.4736,3.2801,8.9627,1451,2963.11
17984,3.055,3.0179,11.315,1438,2963.11
17989,-2.1117,-0.9864,13.0999,1443,2963.11
17994,-5.357,1.0235,10.058,1447,2963.11
17999,1.2522,3.1747,8.8011,1453,2963.26
18004,3.1173,3.1436,11.2551,1439,2963.26
18009,-1.9333,-0.8164,13.1466,1443,2963.26
18014,-5.4648,0.7578,10.4232,1439,2963.26
18019,0.9888,3.0897,8.6766,1452,2963.84
18024,3.1029,3.3184,11.072,1447,2963.84
18029,-1.7861,-0.6153,13.1454,1417,2963.84
18034,-5.4552,0.5291,10.562,1439,2963.84
18039,0.7446,2.9652,8.5665,1450,2963.84
18044,3.1196,3.4477,11.0157,1447,2963.84
18049,-1.7035,-0.4106,13.1071,1439,2963.84
18054,-5.466,0.2981,10.738,1436,2963.84
18059,0.4717,2.903,8.3905,1461,2963.55
18064,3.0299,3.5602,10.8613,1449,2963.55
18069,-1.5706,-0.2107,13.0963,1437,2963.55
18074,-5.3882,0.0527,11.0648,1438,2963.55
18079,0.1257,2.8575,8.3869,1455,2963.11
18084,2.9341,3.6811,10.7978,1437,2963.11
18089,-1.4126,-0.0215,13.0939,1435,2963.11
18094,-5.3139,-0.2095,11.2108,1443,2963.11
18099,-0.2298,2.7761,8.2851,1459,2962.67
18104,2.885,3.802,10.665,1445,2962.67
18109,-1.2929,0.1844,13.0592,1435,2962.67
18114,-5.1751,-0.4369,11.4479,1448,2962.67
18119,-0.5782,2.6779,8.3522,1449,2962.09
18124,2.7833,3.8487,10.5393,1447,2962.09
18129,-1.0953,0.4202,12.9478,1438,2962.09
18134,-4.9392,-0.7278,11.6107,1445,2962.09
18139,-0.9649,2.6025,8.2025,1467,2961.65
18144,2.6887,3.8762,10.4028,1443,2961.65
18149,-0.8272,0.5423,12.8605,1444,2961.65
18154,-4.7944,-0.9888,11.807,1437,2961.65
18159,-1.3659,2.5079,8.2396,1465,2961.5
18164,2.5355,3.8642,10.313,1444,2961.5
18169,-0.5483,0.7314,12.7336,1443,2961.5
18174,-4.6064,-1.2115,11.9495,1439,2961.5
18179,-1.8364,2.4469,8.2696,1465,2961.06
18184,2.4134,3.881,10.2304,1449,2961.06
18189,-0.3089,0.9409,12.6893,1437,2961.06
18194,-4.4281,-1.391,12.1194,1439,2961.06
18199,-2.2721,2.3966,8.3354,1468,2961.35
18204,2.3331,3.8439,10.1478,1447,2961.35
18209,0.067,1.1061,12.5348,1439,2961.35
18214,-4.203,-1.5239,12.2439,1439,2961.35
18219,-2.7162,2.3511,8.4551,1465,2961.5
18224,2.2565,3.8654,10.0545,1447,2961.5
18229,0.4669,1.2989,12.4307,1445,2961.5
18234,-3.9648,-1.6065,12.4139,1439,2961.5
18239,-3.1735,2.2589,8.5497,1465,2961.65
18244,2.2122,3.796,9.9192,1447,2961.65
18249,0.9182,1.5311,12.2775,1437,2961.65
18254,-3.7158,-1.6963,12.5911,1445,2961.65
18259,-3.5913,2.1835,8.6754,1455,2961.06
18264,2.1955,3.7745,9.8234,1443,2961.06
18269,1.3767,1.7119,12.1889,1443,2961.06
18274,-3.4297,-1.7047,12.6653,1445,2961.06
18279,-3.9756,2.0494,8.7987,1460,2960.77
18284,2.1129,3.6643,9.6977,1439,2960.77
18289,1.7992,1.9225,12.0692,1448,2960.77
18294,-3.201,-1.7142,12.785,1433,2960.77
18299,-4.2904,1.9573,9.0357,1455,2961.94
18304,1.9465,3.5542,9.4954,1438,2961.94
18309,2.1261,2.1596,11.9195,1447,2961.94
18314,-2.9832,-1.67,12.8198,1437,2961.94
18319,-4.6603,1.8004,9.2428,1439,2961.94
18324,1.883,3.4764,9.3865,1452,2961.5
18329,2.4337,2.393,11.8214,1439,2961.5
18334,-2.7473,-1.488,12.9646,1437,2961.5
18339,-4.9117,1.6364,9.4583,1455,2961.5
18344,1.7609,3.395,9.1889,1450,2961.21
18349,2.6923,2.6384,11.6478,1443,2961.21
18354,-2.5654,-1.3719,12.9814,1435,2961.21
18359,-5.1619,1.4234,9.6666,1451,2961.21
18364,1.5718,3.3627,9.1243,1451,2961.35
18369,2.873,2.8395,11.4826,1443,2961.35
18374,-2.3379,-1.1277,13.0963,1437,2961.35
18379,-5.2888,1.221,9.8761,1447,2961.35
18384,1.3982,3.2525,8.8957,1453,2961.65
18389,3.0107,3.0502,11.3617,1439,2961.65
18394,-2.1177,-0.9421,13.0723,1440,2961.65
18399,-5.3606,1.057,10.1514,1437,2961.65
18404,1.2163,3.1867,8.8406,1453,2961.79
18409,3.0813,3.2082,11.2252,1439,2961.79
18414,-1.9237,-0.7673,13.0843,1438,2961.79
18419,-5.4013,0.7518,10.3597,1443,2961.79
18424,0.9589,3.0873,8.6383,1447,2961.94
18429,3.1328,3.3519,11.0313,1439,2961.94
18434,-1.6927,-0.5327,13.1525,1436,2961.94
18439,-5.4229,0.4525,10.6626,1443,2961.94
18444,0.6943,2.9796,8.6048,1461,2961.94
18449,3.1089,3.4955,10.914,1451,2961.94
18454,-1.5562,-0.2993,13.1166,1439,2961.94
18459,-5.4073,0.1245,10.8098,1439,2961.94
18464,0.3376,2.8587,8.3905,1460,2962.23
18469,3.0514,3.6105,10.8158,1444,2962.23
18474,-1.4269,-0.1484,13.0556,1437,2962.23
18479,-5.3666,-0.0778,11.0708,1445,2962.23
18484,0.0,2.8228,8.3606,1455,2962.67
18489,2.9317,3.7493,10.6901,1446,2962.67
18494,-1.3479,0.0634,12.9562,1434,2962.67
18499,-5.2481,-0.3292,11.2683,1444,2962.67
18504,-0.3903,2.7557,8.3055,1449,2963.26
18509,2.7988,3.8307,10.5716,1445,2963.26
18514,-1.2067,0.2478,12.9909,1434,2963.26
18519,-5.1308,-0.5567,11.4898,1447,2963.26
18524,-0.7087,2.6731,8.248,1467,2963.99
18529,2.7545,3.9181,10.4519,1446,2963.99
18534,-1.0271,0.4322,12.8569,1439,2963.99
18539,-4.9967,-0.7769,11.655,1443,2963.99
18544,-1.0762,2.6396,8.2648,1464,2963.55
18549,2.6588,3.9205,10.3202,1439,2963.55
18554,-0.7913,0.5722,12.8724,1443,2963.55
18559,-4.7477,-0.9924,11.8705,1445,2963.55
18564,-1.47,2.5187,8.2001,1463,2963.11
18569,2.5905,3.899,10.2556,1444,2963.11
18574,-0.4776,0.7733,12.7527,1439,2963.11
18579,-4.5298,-1.2378,11.9842,1447,2963.11
18584,-1.895,2.4792,8.2289,1469,2962.67
18589,2.478,3.8738,10.1526,1448,2962.67
18594,-0.2107,0.8918,12.615,1437,2962.67
18599,-4.3096,-1.4569,12.1027,1437,2962.67
18604,-2.3559,2.3403,8.2923,1469,2962.67
18609,2.3942,3.8714,10.137,1443,2962.67
18614,0.1317,1.1061,12.5085,1437,2962.67
18619,-4.1575,-1.5526,12.3122,1442,2962.67
18624,-2.739,2.3379,8.4072,1451,2962.67
18629,2.2769,3.814,9.9994,1445,2962.67
18634,0.4465,1.3072,12.4319,1439,2962.67
18639,-3.954,-1.6316,12.4008,1449,2962.67
18644,-3.1963,2.2673,8.5102,1477,2963.11
18649,2.162,3.7733,9.9108,1447,2963.11
18654,0.8691,1.5371,12.3876,1443,2963.11
18659,-3.7481,-1.6927,12.5755,1449,2963.11
18664,-3.6212,2.1847,8.6658,1456,2963.4
18669,2.1464,3.7517,9.7779,1439,2963.4
18674,1.3443,1.7322,12.208,1447,2963.4
18679,-3.4596,-1.6604,12.6127,1444,2963.4
18684,-3.9708,2.1045,8.7891,1460,2963.55
18689,2.1045,3.644,9.6007,1437,2963.55
18694,1.7837,1.9477,12.0548,1447,2963.55
18699,-3.2118,-1.6676,12.7779,1437,2963.55
18704,-4.3024,1.9812,8.995,2167,2961.94
18709,2.0746,3.6164,9.499,1439,2961.94
18714,2.1775,2.1296,11.9315,1447,2961.94
18719,-2.982,-1.6089,12.8976,1445,2961.94
18724,-4.6148,1.822,9.1997,1443,2961.94
18729,1.9046,3.5219,9.3506,1453,2965.01
18734,2.46,2.3355,11.7567,1445,2965.01
18739,-2.8012,-1.5239,12.9036,1437,2965.01
18744,-4.865,1.652,9.3625,1451,2965.01
18749,1.8064,3.3818,9.2799,1451,2963.55
18754,2.6695,2.5786,11.7053,1440,2963.55
18759,-2.6133,-1.4425,13.0113,1437,2963.55
18764,-5.0901,1.5012,9.6127,1451,2963.55
18769,1.6316,3.322,9.1243,1449,2963.55
18774,2.8311,2.7533,11.582,1439,2963.55
18779,-2.4373,-1.2378,13.0185,1438,2963.55
18784,-5.2936,1.3156,9.8306,1449,2963.55
18789,1.4317,3.3124,8.9866,1454,2963.55
18794,2.9628,3.0167,11.3629,1437,2963.55
18799,-2.1751,-1.0151,13.1502,1443,2963.55
18804,-5.3977,1.1109,10.0916,1443,2963.55
18809,1.2462,3.2142,8.8538,1454,2963.26
18814,3.1065,3.1831,11.2025,1439,2963.26
18819,-2.0339,-0.7973,13.1645,1439,2963.26
18824,-5.4061,0.8847,10.3118,1445,2963.26
18829,1.0774,3.1268,8.6957,1451,2963.55
18834,3.1603,3.3722,11.1223,1443,2963.55
18839,-1.8759,-0.6357,13.1418,1435,2963.55
18844,-5.3774,0.5674,10.5477,1447,2963.55
18849,0.832,2.9724,8.4958,1453,2963.69
18854,3.1783,3.4967,10.981,1446,2963.69
18859,-1.6245,-0.4274,13.1406,1439,2963.69
18864,-5.4061,0.2885,10.7164,1443,2963.69
18869,0.5279,2.9173,8.4156,1459,2963.84
18874,3.0813,3.5805,10.9235,1444,2963.84
18879,-1.5131,-0.2382,13.0819,1439,2963.84
18884,-5.381,0.018,10.9212,1437,2963.84
18889,0.2059,2.8036,8.3414,1465,2963.84
18894,2.9497,3.6727,10.7619,1439,2963.84
18899,-1.3898,-0.0467,13.0496,1436,2963.84
18904,-5.3343,-0.2322,11.1378,1445,2963.84
18909,-0.1329,2.8096,8.3115,1465,2963.99
18914,2.8467,3.7745,10.6506,1443,2963.99
18919,-1.2929,0.158,13.0209,1435,2963.99
18924,-5.211,-0.4764,11.3557,1451,2963.99
18929,-0.4992,2.7114,8.2361,1459,2963.99
18934,2.7497,3.8487,10.5393,1445,2963.99
18939,-1.1241,0.3543,12.9873,1438,2963.99
18944,-5.0853,-0.6776,11.5496,1439,2963.99
18949,-0.8787,2.6719,8.1989,1469,2964.43
18954,2.7318,3.9492,10.4734,1443,2964.43
18959,-0.9601,0.51,12.894,1443,2964.43
18964,-4.8542,-0.9086,11.7136,1439,2964.43
18969,-1.233,2.5845,8.2145,1456,2964.57
18974,2.6815,3.9229,10.3825,1445,2964.57
18979,-0.7338,0.6835,12.8186,1445,2964.57
18984,-4.6711,-1.0858,11.9052,1437,2964.57
18989,-1.5682,2.5223,8.1666,1468,2964.87
18994,2.5869,3.9349,10.2975,1451,2964.87
18999,-0.4537,0.8056,12.7012,1437,2964.87
19004,-4.5047,-1.3072,12.0249,1445,2964.87
19009,-2.0303,2.46,8.2588,1470,2965.01
19014,2.4349,3.8786,10.2232,1447,2965.01
19019,-0.1041,0.9912,12.6402,1443,2965.01
19024,-4.3191,-1.4593,12.1398,1439,2965.01
19029,-2.4373,2.3583,8.3067,1459,2965.01
19034,2.3595,3.8571,10.0497,1446,2965.01
19039,0.1867,1.1648,12.5408,1438,2965.01
19044,-4.1468,-1.5874,12.2679,1439,2965.01
19049,-2.8647,2.3379,8.4815,1481,2966.19
19054,2.2434,3.7852,10.0018,1448,2966.19
19059,0.5555,1.3288,12.4487,1439,2966.19
19064,-3.978,-1.5981,12.4654,1449,2966.19
19069,-3.2561,2.2601,8.521,1453,2965.89
19074,2.1296,3.7769,9.8976,1446,2965.89
19079,0.9313,1.5179,12.293,1443,2965.89
19084,-3.7769,-1.658,12.6569,1447,2965.89
19089,-3.6152,2.1967,8.6694,1477,2965.75
19094,2.1284,3.7577,9.7504,1440,2965.75
19099,1.3096,1.7095,12.2499,1447,2965.75
19104,-3.5578,-1.6328,12.7383,1439,2965.75
19109,-3.9456,2.1141,8.7771,1454,2965.16
19114,2.1069,3.6871,9.6139,1435,2965.16
19119,1.6975,1.9094,12.153,1451,2965.16
19124,-3.286,-1.6652,12.7491,1439,2965.16
19129,-4.2689,2.0123,8.9423,1445,2965.16
19134,2.0375,3.5781,9.4691,1445,2966.33
19139,2.0901,2.1069,12.0009,1447,2966.33
19144,-3.037,-1.6604,12.8198,1440,2966.33
19149,-4.561,1.8232,9.0944,1437,2966.33
19154,1.9525,3.5039,9.3817,1454,2965.89
19159,2.387,2.2853,11.9064,1445,2965.89
19164,-2.8419,-1.5862,12.8928,1439,2965.89
19169,-4.8135,1.6664,9.3063,1447,2965.89
19174,1.8387,3.4309,9.2979,1450,2966.04
19179,2.6217,2.4792,11.6574,1445,2966.04
19184,-2.6432,-1.4688,13.0448,1435,2966.04
19189,-5.0589,1.5742,9.505,1453,2966.04
19194,1.6544,3.3938,9.1243,1448,2965.6
19199,2.7809,2.6791,11.649,1445,2965.6
19204,-2.5714,-1.3324,13.1358,1437,2965.6
19209,-5.217,1.3731,9.7085,1449,2965.6
19214,1.5131,3.292,8.9663,1452,2965.75
19219,2.9173,2.9149,11.5436,1444,2965.75
19224,-2.3547,-1.1025,13.0699,1443,2965.75
19229,-5.3103,1.2414,9.9551,1443,2965.75
19234,1.3827,3.2238,8.8442,1453,2965.75
19239,3.0466,3.0454,11.4179,1443,2965.75
19244,-2.144,-0.9325,13.1286,1439,2965.75
19249,-5.4265,1.0175,10.1442,1443,2965.75
19254,1.2294,3.1675,8.7424,1451,2966.19
19259,3.1687,3.2226,11.2707,1445,2966.19
19264,-1.8974,-0.7111,13.1741,1436,2966.19
19269,-5.4432,0.7733,10.4016,1445,2966.19
19274,0.9613,3.0694,8.6802,1452,2966.48
19279,3.1663,3.286,10.9978,1445,2966.48
19284,-1.6891,-0.5471,13.1466,1443,2966.48
19289,-5.4217,0.4681,10.6051,1445,2966.48
19294,0.7075,2.9868,8.5353,1455,2966.77
19299,3.1532,3.4297,10.8757,1443,2966.77
19304,-1.5933,-0.3663,13.1873,1443,2966.77
19309,-5.4983,0.2442,10.823,1439,2966.77
19314,0.486,2.8934,8.4048,1454,2967.21
19319,3.0921,3.6069,10.8469,1439,2967.21
19324,-1.5502,-0.2167,13.1466,1438,2967.21
19329,-5.4217,-0.0395,11.0205,1445,2967.21
19334,0.2143,2.8599,8.3462,1454,2967.21
19339,2.982,3.7182,10.8014,1443,2967.21
19344,-1.4832,-0.0263,13.1083,1435,2967.21
19349,-5.3546,-0.1903,11.23,1447,2967.21
19354,-0.1101,2.8299,8.2696,1453,2967.07
19359,2.9006,3.7936,10.6841,1439,2967.07
19364,-1.3551,0.146,13.0855,1437,2967.07
19369,-5.2625,-0.4238,11.3916,1447,2967.07
19374,-0.4489,2.7689,8.248,1465,2966.92
19379,2.8587,3.8535,10.5465,1443,2966.92
19384,-1.1971,0.3412,12.9706,1438,2966.92
19389,-5.1511,-0.6249,11.5245,1445,2966.92
19394,-0.7697,2.6695,8.1858,1468,2966.77
19399,2.7869,3.9025,10.4315,1439,2966.77
19404,-0.9768,0.5124,12.9395,1440,2966.77
19409,-4.9237,-0.8308,11.7029,1443,2966.77
19414,-1.1289,2.5905,8.1762,1467,2966.92
19419,2.7438,3.8894,10.3441,1445,2966.92
19424,-0.7362,0.6644,12.8712,1445,2966.92
19429,-4.792,-1.0199,11.8381,1445,2966.92
19434,-1.4736,2.5438,8.1738,1465,2966.77
19439,2.6312,3.9277,10.2197,1449,2966.77
19444,-0.5279,0.8128,12.7695,1439,2966.77
19449,-4.5909,-1.2582,12.0045,1436,2966.77
19454,-1.8735,2.4648,8.1439,1469,2966.48
19459,2.46,3.8762,10.1466,1446,2966.48
19464,-0.2418,0.9206,12.6725,1438,2966.48
19469,-4.44,-1.3922,12.141,1437,2966.48
19474,-2.2494,2.4277,8.2504,1455,2966.19
19479,2.3403,3.8906,10.0952,1444,2966.19
19484,-0.0204,1.1097,12.6522,1440,2966.19
19489,-4.2689,-1.5323,12.2846,1438,2966.19
19494,-2.6875,2.3511,8.3366,1467,2966.33
19499,2.2482,3.8247,10.0568,1447,2966.33
19504,0.3879,1.2773,12.4666,1437,2966.33
19509,-4.0761,-1.5945,12.4032,1445,2966.33
19514,-3.0777,2.2936,8.503,1453,2965.6
19519,2.2254,3.8343,9.9264,1447,2965.6
19524,0.7877,1.4413,12.4498,1443,2965.6
19529,-3.8559,-1.658,12.4738,1449,2965.6
19534,-3.4321,2.1907,8.5724,1469,2966.48
19539,2.1871,3.7613,9.8378,1437,2966.48
19544,1.1791,1.6376,12.2439,1447,2966.48
19549,-3.6081,-1.658,12.6462,1437,2966.48
19554,-3.8128,2.1608,8.752,1453,2963.99
19559,2.1452,3.7074,9.681,1438,2963.99
19564,1.5443,1.8531,12.129,1447,2963.99
19569,-3.3651,-1.7011,12.7503,1437,2963.99
19574,-4.1049,2.0195,8.9064,1447,2963.99
19579,2.0806,3.6009,9.5517,1449,2962.23
19584,1.9369,2.0231,12.0752,1445,2962.23
19589,-3.1292,-1.6532,12.8497,1437,2962.23
19594,-4.4748,1.883,9.1075,1445,2962.23
19599,1.9692,3.5458,9.4236,1461,2961.5
19604,2.2039,2.2529,11.904,1445,2961.5
19609,-2.8431,-1.585,12.8581,1435,2961.5
19614,-4.7238,1.7286,9.2883,1451,2961.5
19619,1.7801,3.4165,9.3146,1451,2960.92
19624,2.5139,2.5031,11.7268,1443,2960.92
19629,-2.6396,-1.4545,12.9466,1435,2960.92
19634,-5.0194,1.5538,9.5265,1449,2960.92
19639,1.6616,3.3878,9.1614,1451,2960.62
19644,2.7019,2.7138,11.5843,1440,2960.62
19649,-2.4062,-1.2785,13.034,1447,2960.62
19654,-5.2625,1.3467,9.7767,1445,2960.62
19659,1.4892,3.298,9.0166,1451,2960.77
19664,2.8922,2.8898,11.4048,1439,2960.77
19669,-2.1955,-1.1121,13.1035,1439,2960.77
19674,-5.3439,1.1313,10.0413,1443,2960.77
19679,1.2833,3.2034,8.837,1455,2960.92
19684,3.0358,3.1532,11.3234,1444,2960.92
19689,-1.9788,-0.8799,13.1454,1436,2960.92
19694,-5.4121,0.8619,10.3058,1443,2960.92
19699,1.0463,3.1424,8.6838,1453,2960.77
19704,3.122,3.3184,11.2085,1445,2960.77
19709,-1.822,-0.6117,13.0951,1439,2960.77
19714,-5.4181,0.589,10.5177,1443,2960.77
19719,0.8296,2.9999,8.5341,1460,2960.62
19724,3.0993,3.4704,11.0038,1445,2960.62
19729,-1.6556,-0.3867,13.1095,1438,2960.62
19734,-5.3846,0.2729,10.7356,1447,2960.62
19739,0.4932,2.9233,8.4946,1461,2960.77
19744,2.9963,3.5494,10.8972,1443,2960.77
19749,-1.5251,-0.1628,13.0508,1436,2960.77
19754,-5.3307,-0.0132,10.9116,1439,2960.77
19759,0.1185,2.8718,8.3929,1463,2960.92
19764,2.9006,3.699,10.7009,1445,2960.92
19769,-1.3946,-0.0227,13.0807,1439,2960.92
19774,-5.2972,-0.3124,11.151,1451,2960.92
19779,-0.2622,2.7701,8.3498,1453,2960.92
19784,2.8,3.814,10.6099,1444,2960.92
19789,-1.2318,0.2107,12.9466,1438,2960.92
19794,-5.1679,-0.5447,11.4407,1445,2960.92
19799,-0.6536,2.7031,8.278,1463,2961.06
19804,2.7246,3.8666,10.5704,1439,2961.06
19809,-1.0714,0.413,12.888,1445,2961.06
19814,-5.0314,-0.7614,11.6262,1445,2961.06
19819,-1.0139,2.575,8.2277,1466,2960.92
19824,2.6839,3.8738,10.4004,1445,2960.92
19829,-0.8164,0.6381,12.8138,1440,2960.92
19834,-4.7992,-1.0044,11.8106,1445,2960.92
19839,-1.4365,2.5534,8.2217,1467,2960.92
19844,2.5714,3.9253,10.3394,1451,2960.92
19849,-0.5722,0.808,12.7659,1435,2960.92
19854,-4.5645,-1.2127,11.9076,1437,2960.92
19859,-1.8783,2.4612,8.2648,1471,2961.06
19864,2.4756,3.8583,10.2113,1446,2961.06
19869,-0.267,0.929,12.5863,1439,2961.06
19874,-4.3694,-1.3695,12.1171,1440,2961.06
19879,-2.3296,2.4086,8.3785,1467,2961.21
19884,2.3655,3.8511,10.0916,1448,2961.21
19889,0.1041,1.1181,12.4989,1435,2961.21
19894,-4.1204,-1.5479,12.2559,1449,2961.21
19899,-2.8072,2.3008,8.3953,1467,2961.5
19904,2.2194,3.7984,9.9874,1449,2961.5
19909,0.5088,1.3132,12.4247,1439,2961.5
19914,-3.9397,-1.6137,12.396,1449,2961.5
19919,-3.2214,2.2302,8.5449,1461,2961.65
19924,2.1464,3.7397,9.9144,1443,2961.65
19929,0.9278,1.5299,12.2823,1445,2961.65
19934,-3.7098,-1.6963,12.5205,1443,2961.65
19939,-3.6524,2.1548,8.7269,1464,2961.94
19944,2.071,3.6643,9.8126,1439,2961.94
19949,1.3719,1.7669,12.2164,1451,2961.94
19954,-3.4692,-1.6652,12.6653,1437,2961.94
19959,-4.0139,2.071,8.831,1444,2961.94
19964,2.0267,3.6559,9.5996,1452,2961.94
19969,1.7741,1.9644,12.0883,1447,2961.94
19974,-3.2094,-1.6532,12.7539,1439,2961.94
19979,-4.3443,1.9537,9.0609,1443,2961.94
19984,1.986,3.5877,9.5158,1456,2961.94
19989,2.1668,2.1847,11.9542,1447,2961.94
19994,-2.9281,-1.5957,12.8605,1437,2961.94
19999,-4.6603,1.8004,9.1506,1451,2961.94
20004,1.8974,3.4979,9.3099,1452,2962.23
20009,2.4385,2.3655,11.7603,1443,2962.23
20014,-2.6995,-1.482,13.0137,1437,2962.23
20019,-4.9488,1.6137,9.4296,1451,2962.23
20024,1.7358,3.3854,9.2644,1453,2963.11
20029,2.6791,2.557,11.6514,1444,2963.11
20034,-2.4804,-1.3946,12.9933,1439,2963.11
20039,-5.1344,1.4509,9.6582,1447,2963.11
20044,1.6077,3.3124,9.1051,1455,2963.4
20049,2.8958,2.8252,11.576,1443,2963.4
20054,-2.3056,-1.2127,13.0652,1443,2963.4
20059,-5.2936,1.2797,9.9575,1439,2963.4
20064,1.403,3.2465,8.9232,1453,2963.26
20069,2.9963,3.0239,11.3186,1444,2963.26
20074,-2.1608,-0.9936,13.0676,1435,2963.26
20079,-5.4217,1.0092,10.1598,1449,2963.26
20084,1.233,3.1879,8.8059,1451,2962.96
20089,3.0993,3.2477,11.3042,1445,2962.96
20094,-1.9692,-0.7829,13.1813,1439,2962.96
20099,-5.466,0.7757,10.3058,1444,2962.96
20104,0.9972,3.0909,8.679,1462,2963.26
20109,3.0981,3.3543,11.1007,1449,2963.26
20114,-1.8352,-0.5626,13.1154,1439,2963.26
20119,-5.454,0.51,10.5979,1443,2963.26
20124,0.7554,3.0263,8.515,1461,2963.11
20129,2.7677,3.8511,10.483,1444,2963.11
20134,-1.0247,0.4034,12.9191,1437,2963.11
20139,-4.9368,-0.7865,11.6717,1455,2963.11
20144,0.4154,2.9245,8.3749,1459,2963.55
20149,2.6384,3.8463,10.4016,1447,2963.55
20154,-0.7817,0.5782,12.8245,1437,2963.55
20159,-4.8147,-1.069,11.7735,1447,2963.55
20164,-1.4138,2.5307,8.1523,1461,2963.69
20169,2.5211,3.9002,10.325,1446,2963.69
20174,-0.5578,0.7566,12.8233,1437,2963.69
20179,-4.64,-1.2426,11.959,1447,2963.69
20184,-1.8842,2.4349,8.2193,1469,2963.69
20189,2.4169,3.8367,10.1634,1443,2963.69
20194,-0.3124,0.9266,12.7264,1445,2963.69
20199,-4.4879,-1.3431,12.1171,1439,2963.69
20204,-2.3104,2.46,8.3833,1455,2963.69
20209,2.3535,3.9049,10.0892,1445,2963.69
20214,0.0156,1.1325,12.5576,1443,2963.69
20219,-4.2114,-1.4653,12.287,1445,2963.69
20224,-2.7174,2.3774,8.4348,1467,2963.69
20229,2.3236,3.8463,9.9766,1445,2963.69
20234,0.4202,1.2881,12.4355,1437,2963.69
20239,-3.9636,-1.5455,12.5289,1444,2963.69
20244,-3.0562,2.2422,8.4264,1463,2963.69
20249,2.2972,3.8152,9.8617,1451,2963.69
20254,0.8523,1.5275,12.3397,1439,2963.69
20259,-3.7781,-1.6747,12.5732,1439,2963.69
20264,-3.4548,2.1632,8.6155,1470,2963.69
20269,2.1955,3.729,9.8533,1445,2963.69
20274,1.2019,1.6604,12.2236,1437,2963.69
20279,-3.474,-1.7597,12.6486,1443,2963.69
20284,-3.8415,2.1045,8.7412,1451,2963.55
20289,2.1021,3.638,9.6786,1447,2963.55
20294,1.6604,1.9106,12.1326,1451,2963.55
20299,-3.3303,-1.7047,12.6881,1448,2963.55
20304,-4.221,1.9453,8.9376,1469,2963.99
20309,1.9561,3.5386,9.5852,1444,2963.99
20314,1.998,2.0686,11.9698,1443,2963.99
20319,-3.0694,-1.6688,12.8114,1451,2963.99
20324,-4.5825,1.8854,9.1171,1455,2963.99
20329,1.8794,3.4872,9.4188,1445,2963.99
20334,2.3164,2.314,11.9159,1443,2963.99
20339,-2.909,-1.5071,13.0041,1443,2963.99
20344,-4.8435,1.7645,9.3637,1471,2963.99
20349,1.7992,3.3998,9.2165,1443,2963.99
20354,2.5953,2.5486,11.7651,1453,2963.99
20359,-2.6803,-1.3743,13.0496,1433,2963.99
20364,-5.0458,1.5886,9.5217,1451,2963.84
20369,1.6831,3.3555,9.0944,1438,2963.84
20374,2.8587,2.7701,11.6334,1448,2963.84
20379,-2.4505,-1.1851,13.0711,1443,2963.84
20384,-5.1978,1.3491,9.7923,1443,2963.84
20389,1.5119,3.2968,8.9974,1455,2963.84
20394,2.9987,2.9233,11.5197,1443,2963.84
20399,-2.2386,-1.0355,13.0388,1435,2963.84
20404,-5.3211,1.1588,9.9754,1448,2963.84
20409,1.4006,3.1771,8.8286,1451,2963.69
20414,3.1173,3.055,11.315,1443,2963.69
20419,-1.9944,-0.8882,13.0903,1435,2963.69
20424,-5.4384,0.9481,10.1861,1445,2963.69
20429,1.1444,3.1173,8.7388,1453,2963.99
20434,3.1005,3.1951,11.1235,1440,2963.99
20446,-7.1491,-2.7677,52.6054,1459,2963.69
20450,1.719,3.389,9.1171,1437,2963.69
20454,2.8228,2.63,11.5412,1445,2963.69
20459,-2.4553,-1.2977,13.052,1438,2963.69
20464,-5.193,1.3683,9.6977,1445,2963.69
20469,1.5646,3.2741,8.9579,1453,2963.99
20474,3.0095,2.897,11.5305,1443,2963.99
20479,-2.3248,-1.1468,13.1621,1439,2963.99
20484,-5.3247,1.1696,9.9515,1439,2963.99
20489,1.391,3.1759,8.8346,1454,2963.69
20494,3.0155,3.0837,11.4598,1444,2963.69
20499,-2.2087,-0.9242,13.1609,1445,2963.69
20504,-5.4504,0.9744,10.1574,1443,2963.69
20509,1.1552,3.122,8.7137,1451,2963.84
20514,3.0777,3.298,11.2899,1445,2963.84
20519,-2.0135,-0.7039,13.0879,1434,2963.84
20524,-5.4887,0.741,10.4303,1446,2963.84
20529,0.9553,3.1196,8.6514,1453,2963.84
20534,3.1017,3.4093,11.0576,1439,2963.84
20539,-1.7358,-0.4956,13.1585,1437,2963.84
20544,-5.4157,0.4932,10.5848,1443,2963.84
20549,0.6572,3.055,8.5473,1459,2963.99
20554,3.1041,3.5015,10.8613,1439,2963.99
20559,-1.5538,-0.2813,13.198,1439,2963.99
20564,-5.4265,0.1891,10.8517,1438,2963.99
20569,0.3831,2.9389,8.3881,1459,2963.99
20574,3.0765,3.6069,10.7787,1445,2963.99
20579,-1.3886,-0.0994,13.137,1434,2963.99
20584,-5.3199,-0.0742,11.0073,1437,2963.99
20589,0.0646,2.818,8.3151,1463,2963.69
20594,2.9844,3.6823,10.7248,1445,2963.69
20599,-1.2773,0.0443,13.0364,1435,2963.69
20604,-5.2409,-0.3675,11.2671,1449,2963.69
20609,-0.2945,2.715,8.2337,1469,2963.84
20614,2.8575,3.7529,10.6171,1443,2963.84
20619,-1.1564,0.1915,12.9335,1435,2963.84
20624,-5.1451,-0.6249,11.461,1445,2963.84
20629,-0.6668,2.6815,8.2408,1469,2964.13
20634,2.7473,3.8379,10.586,1437,2964.13
20639,-1.0678,0.3974,12.876,1447,2964.13
20644,-5.0458,-0.7937,11.631,1443,2964.13
20649,-1.0942,2.5893,8.2396,1469,2963.99
20654,2.6085,3.8583,10.3741,1446,2963.99
20659,-0.8452,0.6225,12.8856,1443,2963.99
20664,-4.8674,-0.9876,11.8393,1445,2963.99
20669,-1.5012,2.5869,8.2756,1468,2963.84
20674,2.5498,3.9516,10.2532,1449,2963.84
20679,-0.6021,0.8452,12.7814,1439,2963.84
20684,-4.6352,-1.1672,11.9686,1443,2963.84
20689,-1.8316,2.4948,8.2684,1469,2963.84
20694,2.5606,3.9085,10.1586,1447,2963.84
20699,-0.2442,0.9122,12.6809,1438,2963.84
20704,-4.3586,-1.2965,12.1566,1443,2963.84
20709,-2.2901,2.4229,8.254,1459,2963.69
20714,2.4277,3.8523,10.0664,1443,2963.69
20719,0.1389,1.093,12.572,1439,2963.69
20724,-4.1755,-1.5048,12.2799,1445,2963.69
20729,-2.636,2.3116,8.2983,1455,2963.69
20734,2.3056,3.7745,9.9826,1447,2963.69
20739,0.3867,1.2354,12.475,1439,2963.69
20744,-3.9804,-1.6185,12.4487,1447,2963.69
20749,-3.0694,2.1811,8.442,1465,2963.55
20754,2.2003,3.7122,9.9216,1445,2963.55
20759,0.8176,1.4629,12.3804,1443,2963.55
20764,-3.7733,-1.6939,12.5013,1443,2963.55
20769,-3.4872,2.1668,8.6095,1470,2963.69
20774,2.1093,3.6703,9.8198,1439,2963.69
20779,1.172,1.7382,12.2787,1449,2963.69
20784,-3.553,-1.7202,12.6222,1439,2963.69
20789,-3.899,2.1093,8.7999,1479,2963.4
20794,2.0674,3.6571,9.7085,1439,2963.4
20799,1.6137,1.9142,12.153,1449,2963.4
20804,-3.3375,-1.6388,12.7383,1437,2963.4
20809,-4.2329,2.0016,8.9639,1435,2963.4
20814,2.0027,3.6583,9.5696,1449,2964.13
20819,2.0267,2.1368,12.0129,1443,2964.13
20824,-3.0861,-1.6029,12.8605,1437,2964.13
20829,-4.561,1.8735,9.1219,1444,2964.13
20834,1.9537,3.5279,9.3925,1455,2963.84
20839,2.3439,2.3104,11.8752,1445,2963.84
20844,-2.8383,-1.5,13.0113,1433,2963.84
20849,-4.7836,1.7035,9.3051,1453,2963.84
20854,1.8495,3.4213,9.1925,1452,2963.99
20859,2.6372,2.5367,11.7926,1445,2963.99
20864,-2.6827,-1.4018,12.9921,1437,2963.99
20869,-5.0159,1.494,9.4918,1449,2963.99
20874,1.7142,3.3076,9.0489,1452,2963.69
20879,2.8539,2.6791,11.6155,1443,2963.69
20884,-2.4421,-1.3084,13.028,1439,2963.69
20889,-5.2553,1.2989,9.7935,1447,2963.69
20894,1.5479,3.2429,8.9771,1455,2963.55
20899,2.988,2.9305,11.4323,1437,2963.55
20904,-2.2182,-1.154,13.0304,1440,2963.55
20909,-5.3331,1.1121,10.0389,1445,2963.55
20914,1.2989,3.1963,8.9148,1452,2963.4
20919,3.0311,3.0921,11.3138,1439,2963.4
20924,-2.0638,-0.8882,13.1262,1437,2963.4
20929,-5.4827,0.9996,10.2328,1438,2963.4
20934,1.1265,3.134,8.7508,1452,2963.69
20939,3.0466,3.2848,11.1558,1447,2963.69
20944,-1.9225,-0.6692,13.1777,1439,2963.69
20949,-5.4791,0.7434,10.4746,1445,2963.69
20954,0.8631,3.0837,8.5413,1459,2963.55
20959,3.1436,3.4728,11.1031,1445,2963.55
20964,-1.7633,-0.4549,13.1705,1439,2963.55
20969,-5.4241,0.4357,10.665,1443,2963.55
20974,0.644,2.9951,8.4527,1460,2963.26
20979,3.1568,3.5937,10.9642,1443,2963.26
20984,-1.5874,-0.2741,13.0592,1435,2963.26
20989,-5.3858,0.1401,10.9212,1445,2963.26
20994,0.3364,2.9042,8.3127,1455,2963.26
20999,3.1196,3.6416,10.8553,1438,2963.26
21004,-1.3946,-0.0742,13.0388,1436,2963.26
21009,-5.3151,-0.1844,11.084,1443,2963.26
21014,-0.0144,2.7641,8.2791,1455,2963.4
21019,2.9664,3.6715,10.7176,1443,2963.4
21024,-1.245,0.1329,13.0125,1439,2963.4
21029,-5.2002,-0.4118,11.2887,1447,2963.4
21034,-0.3998,2.7402,8.3079,1471,2962.67
21039,2.8395,3.7697,10.5536,1439,2962.67
21044,-1.1169,0.2693,12.9634,1443,2962.67
21049,-5.1559,-0.6883,11.4958,1437,2962.67
21054,-0.8056,2.6348,8.2313,1466,2962.09
21059,2.6911,3.9073,10.5189,1443,2962.09
21064,-1.0032,0.5124,12.9047,1445,2962.09
21069,-4.9548,-0.832,11.7304,1443,2962.09
21074,-1.2175,2.5546,8.2097,1467,2961.5
21079,2.5606,3.9576,10.3789,1447,2961.5
21084,-0.7638,0.6859,12.7563,1439,2961.5
21089,-4.7585,-1.0798,11.9195,1439,2961.5
21094,-1.6161,2.5594,8.2959,1470,2961.35
21099,2.5139,3.9456,10.2735,1447,2961.35
21104,-0.5004,0.8511,12.6809,1438,2961.35
21109,-4.5143,-1.2306,12.0955,1439,2961.35
21114,-2.0446,2.4612,8.2504,1455,2960.77
21119,2.496,3.9193,10.1418,1443,2960.77
21124,-0.1149,1.0367,12.6067,1440,2960.77
21129,-4.2174,-1.4269,12.1937,1443,2960.77
21134,-2.4936,2.3739,8.3318,1461,2961.5
21139,2.3427,3.8511,10.0928,1447,2961.5
21144,0.2765,1.1971,12.4846,1439,2961.5
21149,-4.0247,-1.646,12.3086,1449,2961.5
21154,-2.9473,2.2446,8.497,1461,2962.23
21159,2.2709,3.7792,9.9766,1443,2962.23
21164,0.7003,1.421,12.2978,1443,2962.23
21169,-3.7804,-1.7035,12.4882,1453,2962.23
21174,-3.3698,2.1284,8.6407,1472,2961.79
21179,2.1284,3.7362,9.9096,1439,2961.79
21184,1.0726,1.6197,12.2032,1447,2961.79
21189,-3.6512,-1.6843,12.6198,1437,2961.79
21194,-3.8379,2.1272,8.7293,1455,2961.94
21199,2.0171,3.6775,9.6965,1439,2961.94
21204,1.4856,1.8328,12.1901,1449,2961.94
21209,-3.4441,-1.6508,12.8138,1437,2961.94
21214,-4.1863,2.0446,8.9423,1445,2961.94
21219,1.986,3.5817,9.5265,1455,2962.09
21224,1.9046,2.0985,12.0883,1439,2962.09
21229,-3.1903,-1.6065,12.894,1439,2962.09
21234,-4.4652,1.8806,9.1171,1447,2962.09
21239,1.9022,3.5255,9.3829,1453,2962.09
21244,2.3104,2.3367,11.9519,1446,2962.09
21249,-2.9221,-1.4605,12.9454,1437,2962.09
21254,-4.7657,1.743,9.3565,1451,2962.09
21259,1.8579,3.4488,9.2464,1451,2962.67
21264,2.5833,2.496,11.7053,1443,2962.67
21269,-2.6049,-1.4102,13.0041,1439,2962.67
21274,-5.4289,0.6189,10.4351,1449,2962.67
21279,1.7166,3.4141,9.1866,1451,2962.82
21284,3.0694,3.3974,10.993,1439,2962.82
21289,-1.6903,-0.4705,13.1502,1440,2962.82
21294,-5.4935,0.3555,10.6961,1444,2962.82
21299,1.4988,3.2429,9.0082,1453,2963.11
21304,3.0287,3.5255,10.8852,1444,2963.11
21309,-1.6149,-0.3136,13.1346,1439,2963.11
21314,-5.4241,0.0754,10.9176,1439,2963.11
21319,0.2514,2.897,8.4192,1454,2963.26
21324,2.9401,3.7266,10.817,1443,2963.26
21329,-1.5036,-0.0491,13.1118,1435,2963.26
21334,-5.3175,-0.1125,11.0959,1445,2963.26
21339,-0.0838,2.8156,8.3414,1455,2963.26
21344,2.903,3.796,10.7571,1449,2963.26
21349,-1.3671,0.1305,13.0137,1439,2963.26
21354,-5.2026,-0.3663,11.3365,1444,2963.26
21359,-0.3831,2.7653,8.2756,1452,2963.4
21364,2.8563,3.8367,10.556,1459,2963.4
21369,-1.1791,0.3244,12.9036,1443,2963.4
21374,-5.029,-0.6476,11.4347,1443,2963.4
21379,-0.8056,2.6815,8.1858,1459,2962.96
21384,2.7031,3.8331,10.495,1443,2962.96
21389,-0.9266,0.4525,12.8928,1435,2962.96
21394,-4.8602,-0.923,11.6657,1445,2962.96
21399,-1.1923,2.545,8.1918,1455,2962.96
21404,2.6719,3.8367,10.3777,1445,2962.96
21409,-0.6704,0.6823,12.8114,1437,2962.96
21414,-4.7226,-1.1145,11.8621,1449,2962.96
21419,-1.6065,2.5067,8.2313,1461,2962.96
21424,2.5115,3.869,10.2592,1445,2962.96
21429,-0.4046,0.8212,12.706,1437,2962.96
21434,-4.5191,-1.2953,11.9938,1447,2962.96
21439,-2.0494,2.4397,8.2672,1471,2962.67
21444,2.3403,3.8379,10.1514,1443,2962.67
21449,-0.1544,1.002,12.6581,1445,2962.67
21454,-4.385,-1.4198,12.2499,1443,2962.67
21459,-2.4553,2.4014,8.3977,1464,2962.67
21464,2.2901,3.8307,10.0281,1446,2962.67
21469,0.1856,1.2222,12.548,1447,2962.67
21474,-4.1587,-1.5407,12.384,1445,2962.67
21479,-2.8958,2.3439,8.4599,1467,2962.52
21484,2.2458,3.8559,9.9647,1446,2962.52
21489,0.6093,1.4222,12.4319,1438,2962.52
21494,-3.863,-1.579,12.5313,1440,2962.52
21499,-3.2825,2.2889,8.588,1469,2962.67
21504,2.2505,3.8044,9.827,1447,2962.67
21509,1.0175,1.5909,12.3026,1439,2962.67
21514,-3.6356,-1.6951,12.5791,1443,2962.67
21519,-3.6368,2.1452,8.6957,1471,2962.82
21524,2.1512,3.7206,9.7372,1443,2962.82
21529,1.5203,1.7526,12.1769,1439,2962.82
21534,-3.3746,-1.7035,12.7156,1439,2962.82
21539,-4.0139,2.0171,8.8789,1478,2962.67
21544,2.0602,3.5985,9.6175,1445,2962.67
21549,1.8794,1.98,12.0201,1439,2962.67
21554,-3.1149,-1.7071,12.785,1451,2962.67
21559,-4.3958,1.8998,9.0477,1459,2961.94
21564,1.9441,3.5303,9.42,1439,2961.94
21569,2.2003,2.2098,11.9554,1444,2961.94
21574,-2.964,-1.5802,12.9323,1447,2961.94
21579,-4.6878,1.7753,9.2584,1463,2962.67
21584,1.81,3.4333,9.2656,1439,2962.67
21589,2.4553,2.4792,11.8417,1449,2962.67
21594,-2.7282,-1.5419,12.9885,1437,2962.67
21599,-4.9452,1.6101,9.4583,1454,2961.94
21604,1.6963,3.3962,9.1291,1440,2961.94
21609,2.7414,2.7234,11.7388,1449,2961.94
21614,-2.5343,-1.2905,13.0544,1440,2961.94
21619,-5.1858,1.4581,9.6403,1439,2961.94
21624,1.5874,3.3184,9.0273,1453,2961.94
21629,2.9209,2.9377,11.485,1437,2961.94
21634,-2.2242,-1.1025,13.0819,1437,2961.94
21639,-5.3283,1.1983,9.9599,1451,2961.94
21644,1.3767,3.2549,8.91,1455,2961.79
21649,3.0526,3.0945,11.3473,1440,2961.79
21654,-2.0315,-0.9134,13.1334,1436,2961.79
21659,-5.3738,0.9756,10.1909,1454,2961.79
21664,1.1588,3.1304,8.7831,1453,2961.79
21669,3.1137,3.2453,11.1127,1434,2961.79
21674,-1.8423,-0.6955,13.137,1437,2961.79
21679,-5.4396,0.6548,10.4411,1449,2961.79
21684,0.9218,3.0382,8.5736,1455,2961.94
21689,3.1364,3.4046,11.0289,1439,2961.94
21694,-1.6843,-0.5148,13.0735,1440,2961.94
21699,-5.4504,0.3639,10.7212,1442,2961.94
21704,0.6225,2.9245,8.4862,1453,2961.94
21709,3.037,3.5279,10.9475,1439,2961.94
21714,-1.5969,-0.3017,13.0975,1444,2961.94
21719,-5.4265,0.1077,10.8948,1439,2961.94
21724,0.3124,2.8467,8.3546,1451,2961.94
21729,2.9425,3.6488,10.8409,1445,2961.94
21734,-1.4856,-0.0778,13.0017,1433,2961.94
21739,-5.3283,-0.1245,11.084,1445,2961.94
21744,-0.0611,2.8323,8.3402,1459,2961.06
21749,2.8491,3.7864,10.7679,1447,2961.06
21754,-1.3898,0.17,12.9682,1438,2961.06
21759,-5.1667,-0.3627,11.333,1444,2961.06
21764,-0.4741,2.7246,8.2959,1463,2960.77
21769,2.8359,3.8798,10.5632,1440,2960.77
21774,-1.1791,0.3579,12.9,1439,2960.77
21779,-5.0099,-0.6093,11.576,1444,2960.77
21784,-0.8033,2.6731,8.254,1461,2960.77
21789,2.7222,3.9049,10.4291,1443,2960.77
21794,-0.9469,0.5351,12.8593,1437,2960.77
21799,-4.8363,-0.8799,11.6873,1447,2960.77
21804,-1.2582,2.5833,8.2205,1465,2960.77
21809,2.6157,3.887,10.3633,1445,2960.77
21814,-0.5854,0.6764,12.7383,1435,2960.77
21819,-4.6328,-1.1181,11.9147,1447,2960.77
21824,-1.7119,2.484,8.2468,1468,2960.04
21829,2.4672,3.8331,10.2424,1443,2960.04
21834,-0.3723,0.826,12.6486,1445,2960.04
21839,-4.4257,-1.3515,12.0704,1437,2960.04
21844,-2.1117,2.3607,8.2851,1469,2959.31
21849,2.3691,3.8535,10.0832,1446,2959.31
21854,-0.0778,1.063,12.5588,1447,2959.31
21859,-4.2234,-1.4832,12.2571,1440,2959.31
21864,-2.6097,2.3451,8.3677,1467,2959.16
21869,2.217,3.7864,10.0545,1449,2959.16
21874,0.3292,1.245,12.4343,1437,2959.16
21879,-3.9911,-1.6281,12.4415,1443,2959.16
21884,-3.1077,2.2541,8.5102,1472,2959.16
21889,2.1368,3.8176,9.9587,1447,2959.16
21894,0.7398,1.4976,12.3325,1434,2959.16
21899,-3.7206,-1.6424,12.536,1443,2959.16
21904,-3.4716,2.1835,8.6754,1468,2959.02
21909,2.1632,3.7302,9.8521,1447,2959.02
21914,1.2881,1.7609,12.1266,1439,2959.02
21919,-3.4177,-1.6771,12.6222,1443,2959.02
21924,-3.9073,2.0961,8.8633,1477,2959.31
21929,2.0818,3.6547,9.6929,1447,2959.31
21934,1.7741,1.9908,12.0117,1437,2959.31
21939,-3.1244,-1.664,12.7491,1449,2959.31
21944,-4.3443,1.9441,9.0118,1453,2959.31
21949,2.0016,3.5039,9.4403,1443,2959.31
21954,2.1895,2.1332,11.8884,1443,2959.31
21959,-2.9078,-1.5742,12.9012,1443,2959.31
21964,-4.6663,1.7406,9.2464,1477,2959.31
21969,1.9022,3.4524,9.323,1438,2959.31
21974,2.5127,2.4349,11.8046,1450,2959.31
21979,-2.721,-1.4784,12.955,1437,2959.31
21984,-4.9297,1.5814,9.4487,1447,2959.46
21989,1.7538,3.3363,9.2081,1455,2959.46
21994,2.7222,2.6624,11.6933,1448,2959.46
21999,-2.484,-1.3695,13.0173,1437,2959.46
22004,-5.1559,1.4126,9.7169,1443,2959.46
22009,1.5395,3.2848,9.0369,1455,2959.46
22014,2.9125,2.8922,11.5041,1445,2959.46
22019,-2.2841,-1.1528,13.0376,1439,2959.46
22024,-5.3235,1.1959,9.9707,1451,2959.46
22029,1.3348,3.2453,9.0034,1451,2959.75
22034,3.0011,3.0789,11.3318,1444,2959.75
22039,-2.0339,-0.9026,13.0604,1435,2959.75
22044,-5.4025,0.9517,10.2316,1452,2959.75
22049,1.1145,3.1412,8.7149,1451,2960.33
22054,3.1352,3.2633,11.1354,1439,2960.33
22059,-1.8459,-0.6883,13.1358,1440,2960.33
22064,-5.4456,0.6776,10.4974,1447,2960.33
22069,0.8966,3.0598,8.6383,1453,2960.48
22074,3.1304,3.4297,11.048,1443,2960.48
22079,-1.7023,-0.3998,13.1382,1437,2960.48
22084,-5.4025,0.3328,10.7045,1439,2960.48
22089,0.565,2.976,8.4312,1453,2960.48
22094,3.1184,3.5997,10.9259,1443,2960.48
22099,-1.5538,-0.2107,13.0723,1437,2960.48
22104,-5.3367,0.0551,10.9032,1439,2960.48
22109,0.2298,2.903,8.3737,1451,2960.77
22114,2.9521,3.6811,10.8314,1448,2960.77
22119,-1.4054,-0.0407,13.0292,1443,2960.77
22124,-5.2529,-0.1999,11.1354,1443,2960.77
22129,-0.1389,2.7318,8.357,1459,2960.92
22134,2.8335,3.7601,10.7045,1447,2960.92
22139,-1.2857,0.1879,12.9826,1437,2960.92
22144,-5.1822,-0.4549,11.4048,1445,2960.92
22149,-0.571,2.709,8.3175,1461,2961.06
22154,2.715,3.8499,10.5644,1443,2961.06
22159,-1.069,0.4166,12.8904,1437,2961.06
22164,-5.0015,-0.7051,11.5424,1444,2961.06
22169,-1.0151,2.66,8.2516,1459,2961.06
22174,2.6133,3.8834,10.3717,1447,2961.06
22179,-0.8176,0.6141,12.8581,1432,2961.06
22184,-4.8746,-0.9385,11.7998,1448,2961.06
22189,-1.4138,2.5989,8.2899,1465,2961.06
22194,2.563,3.9456,10.3358,1447,2961.06
22199,-0.6141,0.7482,12.7204,1438,2961.06
22204,-4.64,-1.1408,11.9423,1446,2961.06
22209,-1.8507,2.49,8.2492,1467,2960.77
22214,2.5091,3.9229,10.2388,1445,2960.77
22219,-0.2574,0.9313,12.6761,1445,2960.77
22224,-4.3802,-1.3156,12.1721,1444,2960.77
22229,-2.2733,2.411,8.3019,1462,2960.48
22234,2.4074,3.8355,10.1035,1445,2960.48
22239,0.1257,1.063,12.4906,1439,2960.48
22244,-4.1575,-1.549,12.2272,1443,2960.48
22249,-2.7234,2.2877,8.3558,1467,2960.19
22254,2.2853,3.7697,10.0796,1448,2960.19
22259,0.48,1.2977,12.4008,1439,2960.19
22264,-3.9193,-1.6029,12.3661,1438,2960.19
22269,-3.1436,2.2206,8.4647,1467,2960.04
22274,2.1428,3.7314,9.9479,1444,2960.04
22279,0.8607,1.4928,12.3397,1443,2960.04
22284,-3.705,-1.7238,12.5432,1440,2960.04
22289,-3.6093,2.132,8.7472,1451,2959.89
22294,2.0686,3.6955,9.8078,1447,2959.89
22299,1.3348,1.7286,12.2188,1433,2959.89
22304,-3.468,-1.64,12.627,1448,2959.89
22309,-4.033,2.083,8.8873,1460,2960.19
22314,2.0207,3.5961,9.5612,1445,2960.19
22319,1.7358,1.9776,12.0883,1437,2960.19
22324,-3.2046,-1.6161,12.797,1448,2960.19
22329,-4.3694,1.9357,9.0393,1469,2960.04
22334,1.9537,3.5686,9.4308,1443,2960.04
22339,2.1703,2.2326,11.9662,1443,2960.04
22344,-2.9245,-1.5335,12.8664,1443,2960.04
22349,-4.6699,1.7681,9.2488,1467,2960.04
22354,1.8471,3.4943,9.2823,1439,2960.04
22359,2.496,2.4421,11.8645,1449,2960.04
22364,-2.6288,-1.4485,12.9466,1437,2960.04
22369,-4.9129,1.6005,9.4116,1445,2960.04
22374,1.7154,3.395,9.1866,1452,2959.89
22379,2.7964,2.648,11.6669,1440,2959.89
22384,-2.4253,-1.3527,12.9622,1439,2959.89
22389,-5.1571,1.3934,9.7193,1444,2959.89
22394,1.5706,3.2848,9.0836,1453,2960.19
22399,2.958,2.8455,11.5113,1447,2960.19
22404,-2.1811,-1.1408,13.0089,1435,2960.19
22409,-5.3307,1.1636,9.973,1451,2960.19
22414,1.3312,3.1975,8.922,1450,2960.33
22419,3.037,3.0634,11.309,1439,2960.33
22424,-2.0039,-0.9194,13.0664,1439,2960.33
22429,-5.4372,0.9278,10.2615,1443,2960.33
22434,1.1205,3.128,8.7628,1455,2960.04
22439,3.0777,3.2741,11.1582,1443,2960.04
22444,-1.8723,-0.6069,13.1178,1445,2960.04
22449,-5.4696,0.6716,10.4136,1445,2960.04
22454,0.8547,3.0909,8.588,1454,2960.04
22459,3.1041,3.4836,11.078,1443,2960.04
22464,-1.7789,-0.4238,13.1346,1444,2960.04
22469,-5.4324,0.401,10.726,1439,2960.04
22474,0.5243,3.0095,8.4707,1451,2959.75
22479,3.0323,3.6021,10.9152,1445,2959.75
22484,-1.6005,-0.2298,13.0005,1435,2959.75
22489,-5.266,0.0814,10.9738,1445,2959.75
22494,0.2358,2.8491,8.321,1455,2959.46
22499,2.9856,3.6871,10.8386,1449,2959.46
22504,-1.3922,0.0132,13.0029,1439,2959.46
22509,-5.2158,-0.2047,11.1366,1444,2959.46
22514,-0.1317,2.7485,8.3354,1461,2959.46
22519,2.8539,3.8104,10.6075,1443,2959.46
22524,-1.2079,0.2179,12.8652,1439,2959.46
22529,-5.138,-0.5423,11.3832,1444,2959.46
22534,-0.6141,2.6851,8.2648,1460,2959.6
22539,2.6887,3.8403,10.5165,1439,2959.6
22544,-1.0331,0.4334,12.9622,1437,2959.6
22549,-5.0147,-0.8045,11.5879,1447,2959.6
22554,-1.0092,2.5989,8.1918,1467,2959.75
22559,2.5869,3.8415,10.3633,1447,2959.75
22564,-0.8787,0.5638,12.8102,1439,2959.75
22569,-4.8411,-1.0606,11.7902,1448,2959.75
22574,-1.482,2.5474,8.2815,1471,2959.75
22579,2.4541,3.9037,10.3573,1438,2959.75
22584,-0.5854,0.7638,12.7264,1447,2959.75
22589,-4.6531,-1.1624,12.0524,1439,2959.75
22594,-1.8878,2.484,8.2516,1465,2960.04
22599,2.4241,3.9421,10.2256,1437,2960.04
22604,-0.2358,0.9756,12.633,1443,2960.04
22609,-4.3467,-1.3539,12.2272,1446,2960.04
22614,-2.3739,2.3834,8.351,1479,2960.33
22619,2.3547,3.9265,10.137,1445,2960.33
22624,0.103,1.1756,12.4415,1437,2960.33
22629,-4.0857,-1.5227,12.2835,1440,2960.33
22634,-2.7773,2.2745,8.436,1471,2960.19
22639,2.2637,3.8176,10.0173,1447,2960.19
22644,0.6177,1.3348,12.4151,1438,2960.19
22649,-3.8247,-1.6532,12.4187,1439,2960.19
22654,-3.237,2.2063,8.5126,1461,2960.33
22659,2.2218,3.7505,9.8521,1447,2960.33
22664,1.0487,1.5407,12.3014,1443,2960.33
22669,-3.6248,-1.7609,12.5253,1443,2960.33
22674,-3.705,2.0818,8.673,1471,2960.33
22679,2.0638,3.6464,9.7863,1447,2960.33
22684,1.4198,1.7526,12.159,1437,2960.33
22689,-3.3686,-1.6939,12.7587,1449,2960.33
22694,-4.0941,1.9848,8.8705,1455,2959.6
22699,1.9537,3.6176,9.5876,1439,2959.6
22704,1.8591,2.0458,11.9985,1444,2959.6
22709,-3.1807,-1.6436,12.87,1447,2959.6
22714,-4.4664,1.9058,9.0752,1453,2961.06
22719,1.8926,3.5374,9.4355,1436,2961.06
22724,2.1572,2.2936,11.9531,1453,2961.06
22729,-2.9173,-1.5371,12.967,1435,2961.06
22734,-4.725,1.7585,9.2584,1453,2960.62
22739,1.8028,3.4668,9.3218,1445,2960.62
22744,2.5223,2.5319,11.7735,1447,2960.62
22749,-2.6528,-1.391,12.9897,1438,2960.62
22754,-4.9763,1.5766,9.6139,1439,2960.62
22759,1.6664,3.4141,9.171,1455,2961.06
22764,2.8276,2.66,11.5963,1443,2961.06
22769,-2.326,-1.2725,13.0077,1445,2961.06
22774,-5.1822,1.3443,9.8114,1450,2961.06
22779,1.5574,3.2872,9.0501,1453,2961.35
22784,3.0143,2.8647,11.4658,1445,2961.35
22789,-2.1284,-1.1193,13.1095,1437,2961.35
22794,-5.3307,1.136,10.0126,1453,2961.35
22799,1.2977,3.1987,8.8789,1452,2961.79
22804,3.1364,3.0502,11.2468,1443,2961.79
22809,-2.0135,-0.929,13.1454,1437,2961.79
22814,-5.4217,0.8499,10.1921,1451,2961.79
22819,1.136,3.0969,8.6945,1453,2961.94
22824,3.1208,3.2789,11.242,1440,2961.94
22829,-1.895,-0.6991,13.1873,1440,2961.94
22834,-5.4851,0.6129,10.4938,1439,2961.94
22839,0.8667,3.0442,8.5533,1453,2961.94
22844,3.0861,3.4477,11.0947,1443,2961.94
22849,-1.7885,-0.486,13.0819,1439,2961.94
22854,-5.4396,0.395,10.6722,1443,2961.94
22859,0.5375,2.988,8.5042,1449,2961.79
22864,3.0239,3.6404,10.9918,1443,2961.79
22869,-1.646,-0.2119,13.0699,1437,2961.79
22874,-5.4025,0.1125,10.9056,1443,2961.79
22879,0.2705,2.9173,8.3522,1462,2961.94
22884,2.982,3.7074,10.7033,1445,2961.94
22889,-1.4449,-0.0132,13.064,1443,2961.94
22894,-5.278,-0.1257,11.1606,1444,2961.94
22899,-0.158,2.8359,8.3809,1459,2961.94
22904,2.8671,3.7362,10.6362,1440,2961.94
22909,-1.2175,0.2203,13.046,1437,2961.94
22914,-5.1344,-0.4621,11.3365,1445,2961.94
22919,-0.5016,2.7258,8.2648,1455,2962.09
22924,2.8132,3.8092,10.4734,1445,2962.09
22929,-1.0463,0.3472,12.9754,1437,2962.09
22934,-5.0135,-0.7123,11.5424,1446,2962.09
22939,-0.9194,2.6324,8.2193,1466,2962.09
22944,2.6923,3.8391,10.4375,1446,2962.09
22949,-0.8811,0.5148,12.7791,1439,2962.09
22954,-4.8602,-0.9433,11.6969,1449,2962.09
22959,-1.3467,2.5821,8.2265,1460,2961.94
22964,2.5498,3.8415,10.3537,1439,2961.94
22969,-0.6464,0.6393,12.7755,1445,2961.94
22974,-4.7106,-1.1408,12.0093,1439,2961.94
22979,-1.7059,2.5187,8.1977,1468,2961.65
22984,2.4385,3.8595,10.2891,1445,2961.65
22989,-0.4058,0.8966,12.6222,1443,2961.65
22994,-4.4903,-1.3084,12.0608,1437,2961.65
22999,-2.2063,2.4792,8.3318,1466,2961.5
23004,2.3248,3.881,10.1766,1448,2961.5
23009,-0.0156,1.0846,12.6079,1439,2961.5
23014,-4.2784,-1.4545,12.1973,1444,2961.5
23019,-2.6252,2.4014,8.3797,1469,2961.35
23024,2.32,3.9133,10.0185,1447,2961.35
23029,0.4214,1.2881,12.5289,1439,2961.35
23034,-4.0259,-1.561,12.3984,1439,2961.35
23039,-3.0598,2.3355,8.5317,1469,2961.06
23044,2.2721,3.7792,9.9024,1443,2961.06
23049,0.8104,1.4377,12.3613,1438,2961.06
23054,-3.7122,-1.652,12.5145,1439,2961.06
23059,-3.4848,2.1895,8.576,1468,2960.77
23064,2.2134,3.6966,9.7516,1447,2960.77
23069,1.2977,1.7131,12.2152,1439,2960.77
23074,-3.4752,-1.6652,12.6474,1449,2960.77
23079,-3.8738,2.0818,8.7783,1467,2960.92
23084,2.0734,3.5698,9.6067,1444,2960.92
23089,1.646,1.8675,12.1051,1436,2960.92
23094,-3.3196,-1.7214,12.7372,1449,2960.92
23099,-4.2485,1.9393,8.9603,1477,2960.77
23104,1.986,3.5374,9.4798,1440,2960.77
23109,1.968,2.1356,11.9878,1449,2960.77
23114,-3.0502,-1.6161,12.8341,1436,2960.77
23119,-4.5442,1.8759,9.2249,1459,2960.48
23124,1.8615,3.4596,9.4523,1439,2960.48
23129,2.3272,2.3822,11.8992,1447,2960.48
23134,-2.8216,-1.5048,12.894,1438,2960.48
23139,-4.8602,1.6628,9.4403,1445,2960.48
23144,1.7274,3.4153,9.2787,1453,2961.35
23149,2.6013,2.545,11.7328,1439,2961.35
23154,-2.5283,-1.3551,13.0173,1439,2961.35
23159,-5.0673,1.5167,9.6786,1447,2961.35
23164,1.5754,3.3411,9.0836,1451,2960.92
23169,2.8611,2.8072,11.4778,1447,2960.92
23174,-2.3224,-1.1851,13.0628,1433,2960.92
23179,-5.217,1.2522,9.8785,1451,2960.92
23184,1.421,3.2358,8.8885,1451,2961.35
23189,3.0466,2.9868,11.4431,1439,2961.35
23194,-2.0901,-0.9565,13.0783,1437,2961.35
23199,-5.3367,1.0187,10.07,1451,2961.35
23204,1.227,3.1173,8.7616,1454,2961.06
23209,3.1304,3.1568,11.3234,1443,2961.06
23214,-1.8938,-0.8056,13.1286,1439,2961.06
23219,-5.4037,0.735,10.3501,1435,2961.06
23224,0.9397,3.0658,8.6467,1453,2961.21
23229,3.0921,3.3579,11.2037,1445,2961.21
23234,-1.7502,-0.5758,13.0628,1439,2961.21
23239,-5.4719,0.4836,10.6111,1445,2961.21
23244,0.6752,2.9497,8.5126,1449,2961.5
23249,3.0454,3.462,10.9978,1445,2961.5
23254,-1.6328,-0.3508,13.0688,1435,2961.5
23259,-5.4253,0.2215,10.7835,1444,2961.5
23264,0.3711,2.9173,8.4946,1456,2961.5
23269,2.9329,3.62,10.8206,1447,2961.5
23274,-1.5083,-0.1209,13.0855,1439,2961.5
23279,-5.3786,-0.0359,11.0504,1443,2961.5
23284,0.0156,2.8683,8.3629,1460,2961.5
23289,2.9042,3.7804,10.6937,1439,2961.5
23294,-1.3599,0.1137,13.0448,1439,2961.5
23299,-5.2277,-0.3256,11.3066,1443,2961.5
23304,-0.3328,2.7581,8.2863,1460,2961.35
23309,2.8515,3.8307,10.6195,1443,2961.35
23314,-1.2175,0.267,12.9036,1435,2961.35
23319,-5.0566,-0.5507,11.491,1443,2961.35
23324,-0.6979,2.6552,8.1487,1456,2961.06
23329,2.7497,3.8595,10.5536,1443,2961.06
23334,-1.0139,0.4214,12.8557,1437,2961.06
23339,-4.8674,-0.8308,11.7041,1449,2961.06
23344,-1.0942,2.5869,8.1654,1467,2961.06
23349,2.6432,3.8487,10.3765,1437,2961.06
23354,-0.7853,0.6309,12.7407,1445,2961.06
23359,-4.6902,-1.0618,11.8082,1445,2961.06
23364,-1.5646,2.5235,8.278,1469,2960.77
23369,2.4816,3.8702,10.3094,1439,2960.77
23374,-0.5195,0.7614,12.7012,1443,2960.77
23379,-4.5346,-1.2953,11.9459,1445,2960.77
23384,-2.047,2.4181,8.321,1465,2960.62
23389,2.3655,3.8726,10.1263,1447,2960.62
23394,-0.1425,0.99,12.6653,1438,2960.62
23399,-4.3443,-1.4389,12.1673,1447,2960.62
23404,-2.4624,2.3882,8.351,1472,2960.62
23409,2.2745,3.8702,10.0724,1443,2960.62
23414,0.1891,1.2067,12.4858,1440,2960.62
23419,-4.057,-1.5119,12.3146,1439,2960.62
23424,-2.9137,2.308,8.4396,1469,2960.62
23429,2.1943,3.8379,9.9766,1439,2960.62
23434,0.6859,1.4138,12.3852,1439,2960.62
23439,-3.8475,-1.6065,12.56,1445,2960.62
23444,-3.3734,2.2278,8.5724,1479,2960.77
23449,2.1895,3.7146,9.8246,1447,2960.77
23454,1.0618,1.5957,12.2116,1439,2960.77
23459,-3.5973,-1.6927,12.6162,1451,2960.77
23464,-3.7517,2.1021,8.7269,1468,2961.21
23469,2.1368,3.6715,9.7863,1444,2961.21
23474,1.5479,1.816,12.1206,1443,2961.21
23479,-3.2968,-1.6987,12.7324,1447,2961.21
23484,-4.0989,1.9944,8.9112,1478,2961.5
23489,2.0806,3.6117,9.6091,1443,2961.5
23494,1.9549,2.0159,11.965,1451,2961.5
23499,-3.0849,-1.6652,12.8174,1437,2961.5
23504,-4.5143,1.8387,9.1171,1460,2961.35
23509,1.9609,3.5626,9.5122,1443,2961.35
23514,2.2661,2.241,11.8705,1447,2961.35
23519,-2.8491,-1.5359,12.9466,1443,2961.35
23524,-4.8064,1.7083,9.3075,1445,2961.35
23529,1.8268,3.4297,9.3051,1454,2962.52
23534,2.551,2.5067,11.6693,1439,2962.52
23539,-2.6516,-1.4246,13.0592,1439,2962.52
23544,-5.0422,1.5586,9.5289,1445,2962.52
23549,1.6735,3.3639,9.1255,1449,2962.23
23554,2.8216,2.7509,11.6394,1447,2962.23
23559,-2.4553,-1.2474,13.0376,1436,2962.23
23564,-5.2038,1.3372,9.7252,1452,2962.23
23569,1.5131,3.286,8.9244,1450,2962.52
23574,2.988,2.9616,11.5149,1444,2962.52
23579,-2.247,-1.0894,13.1142,1435,2962.52
23584,-5.3247,1.1564,10.0042,1453,2962.52
23589,1.3599,3.2561,8.8214,1453,2962.82
23594,3.1137,3.1472,11.3665,1439,2962.82
23599,-2.0063,-0.8607,13.125,1444,2962.82
23604,-5.4037,0.8559,10.2663,1445,2962.82
23609,1.1133,3.1113,8.7388,1451,2963.4
23614,3.0969,3.2298,11.1271,1443,2963.4
23619,-1.8184,-0.6752,13.1597,1444,2963.4
23624,-5.4432,0.6129,10.4531,1438,2963.4
23629,0.8679,3.0849,8.5688,1451,2963.69
23634,3.1364,3.389,10.9391,1445,2963.69
23639,-1.6747,-0.4537,13.1717,1437,2963.69
23644,-5.4731,0.3879,10.6446,1443,2963.69
23649,0.571,2.982,8.4803,1451,2963.99
23654,3.0765,3.5542,10.9511,1443,2963.99
23659,-1.5969,-0.2897,13.1442,1439,2963.99
23664,-5.4456,0.1089,10.8828,1439,2963.99
23669,0.2693,2.8802,8.3498,1461,2964.28
23674,3.0418,3.6907,10.817,1445,2964.28
23679,-1.5227,-0.0742,13.0676,1439,2964.28
23684,-5.3642,-0.1137,11.1091,1439,2964.28
23689,-0.0024,2.7785,8.2768,1455,2964.28
23694,2.8958,3.7146,10.7524,1440,2964.28
23699,-1.3731,0.0994,13.0472,1436,2964.28
23704,-5.2672,-0.3136,11.2791,1445,2964.28
23709,-0.3711,2.7294,8.2205,1455,2964.57
23714,2.8814,3.8283,10.6243,1447,2964.57
23719,-1.1756,0.3041,12.9502,1438,2964.57
23724,-5.0685,-0.5614,11.485,1445,2964.57
23729,-0.7542,2.6767,8.2313,1450,2964.43
23734,2.7677,3.8547,10.4507,1446,2964.43
23739,-0.99,0.4752,12.9431,1443,2964.43
23744,-4.9728,-0.8475,11.6837,1447,2964.43
23749,-1.1133,2.6049,8.2073,1469,2964.43
23754,2.6635,3.8798,10.337,1443,2964.43
23759,-0.7219,0.6393,12.8557,1445,2964.43
23764,-4.792,-1.008,11.7771,1439,2964.43
23769,-1.5227,2.5247,8.1965,1469,2964.13
23774,2.5594,3.9037,10.2735,1445,2964.13
23779,-0.5052,0.7745,12.73,1446,2964.13
23784,-4.5095,-1.2605,11.983,1447,2964.13
23789,-1.9405,2.411,8.2911,1471,2963.84
23794,2.4409,3.8463,10.2436,1445,2963.84
23799,-0.1963,0.9313,12.6079,1437,2963.84
23804,-4.3778,-1.3707,12.1949,1444,2963.84
23809,-2.3499,2.4169,8.3139,1479,2963.69
23814,2.3571,3.8271,10.0712,1449,2963.69
23819,0.1113,1.1049,12.5217,1446,2963.69
23824,-4.1899,-1.488,12.2631,1438,2963.69
23829,-2.7773,2.3355,8.4324,1479,2963.69
23834,2.2338,3.808,9.9898,1447,2963.69
23839,0.4609,1.3084,12.5049,1437,2963.69
23844,-3.9935,-1.5933,12.4343,1443,2963.69
23849,-3.1939,2.3296,8.4719,1468,2963.69
23854,2.1727,3.7996,9.8605,1447,2963.69
23859,0.905,1.5095,12.3313,1439,2963.69
23864,-3.7469,-1.6412,12.5229,1451,2963.69
23869,-3.5937,2.1835,8.6371,1461,2964.28
23874,2.1596,3.79,9.7935,1445,2964.28
23879,1.3156,1.7286,12.2392,1439,2964.28
23884,-3.5015,-1.7119,12.7096,1449,2964.28
23889,-3.9217,2.0877,8.7676,1459,2964.43
23894,2.1021,3.6524,9.6223,1437,2964.43
23899,1.7322,1.9082,12.123,1455,2964.43
23904,-3.3232,-1.6855,12.8628,1445,2964.43
23909,-4.2856,1.9956,8.9699,1469,2964.87
23914,2.0147,3.5793,9.4583,1439,2964.87
23919,2.0794,2.0985,12.0165,1443,2964.87
23924,-3.0718,-1.6137,12.9059,1437,2964.87
23929,-4.5131,1.8304,9.1207,1445,2964.72
23934,1.9525,3.5003,9.341,1451,2964.72
23939,2.387,2.2889,11.9291,1447,2964.72
23944,-2.9078,-1.5395,12.9598,1439,2964.72
23949,-4.81,1.7214,9.3482,1435,2964.72
23954,1.7861,3.4249,9.2093,1452,2964.87
23959,2.636,2.5426,11.7663,1445,2964.87
23964,-2.66,-1.397,12.9586,1437,2964.87
23969,-5.0649,1.579,9.5768,1450,2964.87
23974,1.6556,3.3435,9.1291,1450,2964.87
23979,2.7916,2.7102,11.5939,1443,2964.87
23984,-2.4325,-1.2773,13.0975,1452,2964.87
23989,-5.2565,1.397,9.7767,1451,2964.87
23994,1.5287,3.3208,9.0142,1450,2965.31
23999,2.9664,2.9269,11.412,1443,2965.31
24004,-2.2541,-1.063,13.1214,1439,2965.31
24009,-5.3486,1.1947,9.9742,1451,2965.31
24014,1.324,3.2453,8.8514,1455,2965.45
24019,3.1017,3.134,11.3581,1439,2965.45
24024,-2.0734,-0.9038,13.1944,1447,2965.45
24029,-5.442,0.9134,10.1933,1445,2965.45
24034,1.1947,3.1364,8.6622,1453,2965.75
24039,3.1771,3.2968,11.2683,1439,2965.75
24044,-1.9058,-0.6907,13.1825,1439,2965.75
24049,-5.4253,0.7219,10.4339,1437,2965.75
24054,1.002,3.0789,8.5557,1453,2966.04
24059,3.1939,3.3794,11.1294,1443,2966.04
24064,-1.7597,-0.5543,13.113,1437,2966.04
24069,-5.4815,0.4178,10.5955,1443,2966.04
24074,0.6847,2.9904,8.4683,1451,2966.19
24079,3.1304,3.4632,10.9511,1448,2966.19
24084,-1.6257,-0.3376,13.1777,1443,2966.19
24089,-5.448,0.231,10.8326,1440,2966.19
24094,0.4214,2.8922,8.3977,1459,2966.33
24099,3.0478,3.5757,10.7715,1445,2966.33
24104,-1.4772,-0.1676,13.0616,1449,2966.33
24109,-5.4061,-0.0192,11.0648,1438,2966.33
24114,0.091,2.8096,8.3258,1461,2966.33
24119,2.982,3.7338,10.7488,1445,2966.33
24124,-1.4126,0.0347,13.119,1437,2966.33
24129,-5.3618,-0.267,11.2695,1447,2966.33
24134,-0.2227,2.7761,8.1858,1456,2966.48
24139,2.8766,3.8068,10.6207,1446,2966.48
24144,-1.2953,0.1724,13.0269,1435,2966.48
24149,-5.1978,-0.4788,11.4347,1448,2966.48
24154,-0.5614,2.7605,8.1989,1463,2966.92
24159,2.7904,3.887,10.5357,1447,2966.92
24164,-1.0918,0.3376,12.9562,1439,2966.92
24169,-5.0494,-0.6357,11.6215,1448,2966.92
24174,-0.8631,2.6624,8.1008,1477,2967.07
24179,2.7713,3.8858,10.4806,1445,2967.07
24184,-0.9756,0.5423,12.9239,1448,2967.07
24189,-4.877,-0.8882,11.7795,1448,2967.07
24194,-1.2019,2.6564,8.1882,1471,2967.07
24199,2.6659,3.9397,10.3394,1447,2967.07
24204,-0.7362,0.6692,12.8174,1439,2967.07
24209,-4.7094,-1.0451,11.8106,1443,2967.07
24214,-1.5957,2.496,8.1427,1471,2966.92
24219,2.557,3.8858,10.2556,1448,2966.92
24224,-0.4274,0.7733,12.7348,1444,2966.92
24229,-4.5681,-1.2701,12.0129,1447,2966.92
24234,-1.9836,2.4565,8.1954,1467,2966.77
24239,2.4816,3.9169,10.1849,1450,2966.77
24244,-0.2179,0.9325,12.6103,1437,2966.77
24249,-4.3922,-1.4305,12.1566,1447,2966.77
24254,-2.3559,2.3786,8.2528,1469,2966.77
24259,2.3236,3.8427,10.0975,1447,2966.77
24264,0.158,1.136,12.542,1437,2966.77
24269,-4.2078,-1.5431,12.3816,1446,2966.77
24274,-2.7857,2.3607,8.3426,1455,2966.77
24279,2.2122,3.8547,9.9695,1440,2966.77
24284,0.4357,1.3156,12.4953,1440,2966.77
24289,-4.057,-1.6113,12.4259,1443,2966.77
24294,-3.1412,2.3032,8.509,1469,2966.63
24299,2.241,3.7996,9.9623,1449,2966.63
24304,0.8116,1.4928,12.4546,1439,2966.63
24309,-3.8152,-1.6472,12.6282,1449,2966.63
24314,-3.5219,2.2446,8.6203,1451,2966.19
24319,2.1751,3.7996,9.7899,1445,2966.19
24324,1.2534,1.664,12.2619,1443,2966.19
24329,-3.6212,-1.6412,12.6617,1449,2966.19
24334,-3.8331,2.1404,8.7257,1481,2967.36
24339,2.1153,3.717,9.6917,1445,2967.36
24344,1.6412,1.8292,12.1841,1447,2967.36
24349,-3.3555,-1.6951,12.7874,1444,2967.36
24354,-4.1922,2.0554,8.8801,1456,2966.33
24359,2.0578,3.5889,9.5146,1440,2966.33
24364,1.9968,2.0387,11.9902,1449,2966.33
24369,-3.1412,-1.658,12.8676,1437,2966.33
24374,-4.4532,1.8962,9.0776,1440,2966.48
24379,1.9597,3.4931,9.3601,1453,2966.48
24384,2.2972,2.2458,11.971,1448,2966.48
24389,-2.9856,-1.6053,12.9622,1443,2966.48
24394,-4.7525,1.725,9.2811,1437,2966.48
24399,1.8555,3.4345,9.2536,1455,2966.19
24404,2.5438,2.4217,11.8369,1445,2966.19
24409,-2.7845,-1.4976,13.1059,1437,2966.19
24414,-5.0266,1.6041,9.4858,1451,2966.19
24419,1.6915,3.389,9.1099,1453,2965.89
24424,2.7509,2.6492,11.716,1445,2965.89
24429,-2.6348,-1.3288,13.0269,1439,2965.89
24434,-5.187,1.476,9.6618,1452,2965.89
24439,1.5957,3.3411,9.0118,1448,2966.33
24444,2.879,2.8503,11.5149,1444,2966.33
24449,-2.3942,-1.1624,13.1585,1439,2966.33
24454,-5.2876,1.3012,9.9276,1447,2966.33
24459,1.4557,3.2836,8.9244,1455,2966.48
24464,3.0287,2.9939,11.4096,1443,2966.48
24469,-2.1656,-0.9673,13.1454,1439,2966.48
24474,-5.3666,1.0714,10.088,1445,2966.48
24479,1.3144,3.158,8.7664,1456,2966.63
24484,3.1747,3.1675,11.2911,1440,2966.63
24489,-1.9956,-0.8092,13.2471,1443,2966.63
24494,-5.4492,0.8763,10.2771,1443,2966.63
24499,1.1325,3.0694,8.5629,1453,2966.63
24504,3.231,3.292,11.0852,1444,2966.63
24509,-1.81,-0.6345,13.1561,1438,2966.63
24514,-5.466,0.5567,10.4926,1445,2966.63
24519,0.8368,3.0023,8.5688,1455,2966.77
24524,3.1903,3.3842,11.066,1448,2966.77
24529,-1.6903,-0.4705,13.1525,1439,2966.77
24534,-5.4875,0.316,10.6638,1445,2966.77
24539,0.5818,2.9377,8.4013,1459,2966.77
24544,3.1268,3.4943,10.9331,1443,2966.77
24549,-1.6364,-0.3077,13.149,1423,2966.77
24554,-5.4624,0.1257,10.8685,1439,2966.77
24559,0.2753,2.8611,8.4192,1456,2966.48
24564,2.9784,3.6392,10.7919,1445,2966.48
24569,-1.488,-0.1245,13.1238,1439,2966.48
24574,-5.3678,-0.097,11.0756,1445,2966.48
24579,0.0048,2.8539,8.2911,1455,2966.19
24584,2.9269,3.7493,10.6805,1446,2966.19
24589,-1.3743,0.0646,13.1011,1434,2966.19
24594,-5.2577,-0.31,11.2863,1447,2966.19
24599,-0.3256,2.7557,8.2109,1449,2965.45
24604,2.8671,3.8223,10.5931,1443,2965.45
24609,-1.2498,0.2693,13.0017,1439,2965.45
24614,-5.126,-0.5315,11.473,1449,2965.45
24619,-0.6357,2.6947,8.1846,1471,2964.28
24624,2.824,3.8583,10.4854,1443,2964.28
24629,-1.0223,0.4238,12.9778,1443,2964.28
24634,-4.9404,-0.7733,11.5975,1445,2964.28
24639,-1.0259,2.6169,8.1786,1469,2963.69
24644,2.7198,3.8607,10.3633,1445,2963.69
24649,-0.7817,0.5878,12.8724,1444,2963.69
24654,-4.7321,-1.0678,11.8309,1447,2963.69
24659,-1.4389,2.5199,8.181,1465,2963.11
24664,2.545,3.8499,10.2963,1447,2963.11
24669,-0.5495,0.7434,12.7719,1444,2963.11
24674,-4.5717,-1.251,11.9495,1445,2963.11
24679,-1.9154,2.4493,8.2181,1469,2963.26
24684,2.4373,3.8499,10.2017,1450,2963.26
24689,-0.2358,0.8882,12.6869,1437,2963.26
24694,-4.4365,-1.3994,12.22,1445,2963.26
24699,-2.3308,2.4157,8.3199,1478,2963.26
24704,2.296,3.8583,10.1526,1447,2963.26
24709,0.0443,1.1791,12.6246,1439,2963.26
24714,-4.2581,-1.5455,12.2655,1439,2963.26
24719,-2.7964,2.3212,8.4036,1454,2963.26
24724,2.2206,3.8595,9.9802,1447,2963.26
24729,0.4274,1.306,12.5025,1438,2963.26
24734,-4.045,-1.5886,12.5037,1447,2963.26
24739,-3.1711,2.2745,8.5102,1460,2963.26
24744,2.2158,3.8367,9.7851,1448,2963.26
24749,0.8499,1.5095,12.384,1439,2963.26
24754,-3.7553,-1.7166,12.5372,1449,2963.26
24759,-3.5602,2.1895,8.6467,1453,2962.67
24764,2.1991,3.7278,9.7636,1439,2962.67
24769,1.2522,1.7322,12.2858,1445,2962.67
24774,-3.4764,-1.664,12.6605,1447,2962.67
24779,-3.9181,2.1261,8.7101,1479,2963.55
24784,2.0925,3.6631,9.5888,1439,2963.55
24789,1.6963,1.907,12.0835,1452,2963.55
24794,-3.2417,-1.6963,12.7695,1437,2963.55
24799,-4.3024,1.919,8.9567,1454,2962.38
24804,2.0279,3.5698,9.596,1439,2962.38
24809,2.0674,2.1368,11.965,1449,2962.38
24814,-3.0347,-1.6831,12.8724,1440,2962.38
24819,-4.5837,1.8172,9.147,1442,2962.38
24824,1.8651,3.4417,9.3482,1455,2963.11
24829,2.3439,2.308,11.7938,1443,2963.11
24834,-2.8347,-1.561,12.9574,1439,2963.11
24839,-4.883,1.6556,9.4116,1449,2963.11
24844,1.7274,3.4261,9.3158,1447,2962.67
24849,2.5953,2.5917,11.71,1446,2962.67
24854,-2.6205,-1.3779,13.0245,1437,2962.67
24859,-5.1092,1.5155,9.5864,1453,2962.67
24864,1.6005,3.3567,9.0968,1454,2963.26
