timestamp_ms,ax,ay,az,acs_adc,rpm
27324,-0.9373,-0.5411,11.8393,1547,2528.98
27329,-1.5754,-0.085,11.722,1548,2528.98
27334,0.0563,2.4756,10.1897,1593,2528.23
27339,0.2837,3.8247,10.1083,1553,2528.23
27344,-2.9293,1.579,10.1155,1547,2528.23
27349,-1.0546,-0.8308,12.123,1541,2528.23
27354,-1.2079,0.8464,11.1522,1547,2528.23
27359,0.2035,2.9652,10.1466,1561,2527.81
27364,-0.2969,3.4943,10.1766,1547,2527.81
27369,-1.6257,0.7219,10.5572,1541,2527.81
27374,-1.2091,-0.9697,12.129,1543,2527.81
27379,-0.6201,1.5862,10.6745,1556,2527.81
27384,0.4238,3.4488,10.0497,1565,2527.38
27389,-1.6723,2.9712,10.1323,1547,2527.38
27394,-0.9218,-0.1448,11.2551,1553,2527.38
27399,-1.4497,-0.7661,12.0644,1545,2527.38
27404,-0.2071,2.0818,10.307,1598,2527.17
27409,0.4872,3.8235,10.0413,1556,2527.17
27414,-3.0335,2.3571,10.0892,1543,2527.17
27419,-0.9313,-0.6201,11.874,1549,2527.17
27424,-1.5562,-0.0455,11.6669,1553,2527.17
27429,0.0144,2.4325,10.1562,1598,2527.59
27434,0.2598,3.8463,10.1945,1555,2527.59
27439,-3.1424,2.1787,10.0149,1547,2527.59
27444,-1.0211,-0.8128,12.1027,1543,2527.59
27449,-1.1744,0.8511,11.1199,1547,2527.59
27454,0.103,2.6145,10.1933,1567,2527.06
27459,0.1472,3.784,10.0628,1547,2527.06
27464,-2.6097,1.3755,10.1885,1533,2527.06
27469,-1.0774,-0.923,12.0512,1541,2527.06
27474,-1.057,1.0379,11.06,1559,2527.06
27479,0.1975,3.0825,10.1598,1565,2526.42
27484,-0.6189,3.4656,10.228,1545,2526.42
27489,-1.403,0.4405,10.7129,1556,2526.42
27494,-1.239,-0.9373,12.0787,1544,2526.42
27499,-0.4896,1.7166,10.4962,1609,2526.32
27504,0.3735,3.547,10.0305,1554,2526.32
27509,-2.1225,2.8395,10.0916,1541,2526.32
27514,-0.917,-0.1975,11.5077,1547,2526.32
27519,-1.5562,-0.6393,11.9997,1555,2526.32
27524,-0.1113,2.2218,10.2711,1593,2526.32
27529,0.4238,3.8068,10.0892,1557,2526.32
27534,-3.14,2.1548,10.0844,1553,2526.32
27539,-0.9493,-0.6668,11.9926,1542,2526.32
27544,-1.5395,0.2095,11.5628,1548,2526.32
27549,0.1125,2.6576,10.2137,1565,2526.74
27554,0.2047,3.7757,10.1215,1543,2526.74
27559,-2.6097,1.2917,10.2065,1529,2526.74
27564,-1.0702,-0.9361,12.0799,1531,2526.74
27569,-1.0834,1.1193,11.0612,1557,2526.74
27574,0.2682,3.0789,10.0568,1562,2526.85
27579,-0.5686,3.3854,10.1789,1544,2526.85
27584,-1.3862,0.3974,10.7021,1553,2526.85
27589,-1.2498,-0.9828,12.1781,1543,2526.85
27594,-0.4968,1.6999,10.5261,1597,2527.17
27599,0.4429,3.5602,10.0509,1551,2527.17
27604,-2.1021,2.7845,10.1047,1543,2527.17
27609,-0.8811,-0.2622,11.4766,1551,2527.17
27614,-1.567,-0.6273,11.9267,1555,2527.17
27619,-0.0838,2.1823,10.2604,1591,2527.06
27624,0.425,3.7864,10.1083,1553,2527.06
27629,-3.225,2.156,10.1131,1551,2527.06
27634,-0.9577,-0.6704,11.9351,1543,2527.06
27639,-1.5071,0.2705,11.4838,1545,2527.06
27644,0.0718,2.6181,10.1622,1575,2527.06
27649,0.1676,3.7661,10.1586,1545,2527.06
27654,-2.5929,1.306,10.1969,1531,2527.06
27659,-1.0846,-0.8464,12.1613,1542,2527.06
27664,-1.0642,1.1229,11.0433,1557,2527.06
27669,0.2897,3.0933,10.0784,1565,2527.17
27674,-0.6859,3.3184,10.1885,1546,2527.17
27679,-1.3527,0.3412,10.7667,1555,2527.17
27684,-1.3168,-0.9074,12.1362,1543,2527.17
27689,-0.4729,1.7705,10.471,1605,2527.27
27694,0.4549,3.5662,10.1179,1555,2527.27
27699,-2.2266,2.7713,10.1131,1532,2527.27
27704,-0.893,-0.3448,11.5616,1555,2527.27
27709,-1.5395,-0.5818,11.9734,1556,2527.27
27714,-0.0826,2.235,10.2663,1593,2528.02
27719,0.4621,3.7816,10.0497,1555,2528.02
27724,-3.0933,2.1452,10.0808,1553,2528.02
27729,-1.0319,-0.7649,11.9542,1543,2528.02
27734,-1.5131,0.2885,11.5317,1547,2528.02
27739,0.0898,2.6743,10.2017,1565,2528.55
27744,0.1975,3.7972,10.1418,1547,2528.55
27749,-2.472,1.1947,10.2161,1529,2528.55
27754,-1.0942,-0.9601,12.1003,1543,2528.55
27759,-0.9984,1.1157,10.9511,1559,2528.55
27764,0.31,3.1699,10.1442,1567,2528.76
27769,-0.7338,3.3878,10.1658,1543,2528.76
27774,-1.2785,0.3663,10.8266,1549,2528.76
27779,-1.3072,-0.9924,12.1015,1543,2528.76
27784,-0.3962,1.749,10.4555,1571,2528.23
27789,0.3926,3.5853,10.0652,1555,2528.23
27794,-2.3164,2.7988,10.1825,1541,2528.23
27799,-0.9469,-0.3053,11.5772,1547,2528.23
27804,-1.5395,-0.5207,11.9219,1555,2528.23
27809,-0.012,2.2553,10.2077,1595,2528.55
27814,0.4154,3.8523,10.1478,1557,2528.55
27819,-3.1987,2.0698,10.1478,1554,2528.55
27824,-0.9876,-0.7111,11.971,1541,2528.55
27829,-1.5131,0.3304,11.4634,1543,2528.55
27834,0.0982,2.7186,10.1035,1568,2528.02
27839,0.1233,3.7134,10.137,1545,2528.02
27844,-2.4612,1.1253,10.2831,1531,2528.02
27849,-1.1289,-0.8787,12.2392,1545,2528.02
27854,-0.9768,1.245,10.9343,1553,2528.02
27859,0.3531,3.2178,10.0844,1565,2528.23
27864,-0.7901,3.2633,10.1634,1543,2528.23
27869,-1.2115,0.2598,10.8445,1547,2528.23
27874,-1.4126,-0.9649,12.0883,1533,2528.23
27879,-0.4058,1.8914,10.5165,1595,2528.23
27884,0.4657,3.644,10.0808,1545,2528.23
27889,-2.3918,2.7306,10.1502,1533,2528.23
27894,-0.9062,-0.3639,11.5879,1545,2528.23
27899,-1.6053,-0.4908,11.9159,1549,2528.23
27904,-0.1101,2.2757,10.2137,1583,2528.34
27909,0.4645,3.8654,10.1143,1549,2528.34
27914,-3.1927,1.9812,10.1095,1547,2528.34
27919,-0.9996,-0.7673,12.0249,1527,2528.34
27924,-1.4688,0.3903,11.4036,1527,2528.34
27929,0.1018,2.7485,10.1658,1559,2528.23
27934,0.0778,3.7158,10.2089,1531,2528.23
27939,-2.2984,1.0894,10.3118,1523,2528.23
27944,-1.16,-0.9062,12.1925,1545,2528.23
27949,-0.9134,1.2594,10.8601,1543,2528.23
27954,0.2933,3.2298,10.1047,1553,2528.45
27959,-1.0008,3.2346,10.1562,1533,2528.45
27964,-1.1732,0.2119,10.999,1531,2528.45
27969,-1.3575,-0.8906,12.1171,1529,2528.45
27974,-0.2705,1.8759,10.5129,1575,2529.08
27979,0.4274,3.5973,9.9898,1543,2529.08
27984,-2.5295,2.6695,10.1203,1530,2529.08
27989,-1.0056,-0.4872,11.7041,1543,2529.08
27994,-1.6089,-0.3855,11.898,1543,2529.08
27999,-0.0156,2.3475,10.155,1579,2529.19
28004,0.431,3.8331,10.1119,1548,2529.19
28009,-3.1149,1.8914,10.0197,1549,2529.19
28014,-1.0774,-0.7661,12.0548,1525,2529.19
28019,-1.4365,0.504,11.3449,1533,2529.19
28024,0.1532,2.8671,10.2017,1562,2529.62
28029,0.0395,3.699,10.1598,1531,2529.62
28034,-2.1464,1.0199,10.4052,1519,2529.62
28039,-1.2007,-1.0068,12.1099,1547,2529.62
28044,-0.8547,1.3659,10.829,1529,2529.62
28049,0.334,3.2789,10.0963,1553,2529.83
28054,-1.0307,3.2322,10.2089,1541,2529.83
28059,-1.1085,0.1305,10.9822,1529,2529.83
28064,-1.4593,-0.9134,12.1841,1541,2529.83
28069,-0.31,1.9094,10.3549,1584,2529.83
28074,0.3986,3.7146,10.0221,1529,2529.83
28079,-2.66,2.6001,10.1993,1530,2529.83
28084,-0.9481,-0.4034,11.6945,1528,2529.83
28089,-1.6221,-0.3244,11.8597,1529,2529.83
28094,-0.0096,2.3284,10.1897,1582,2530.04
28099,0.3651,3.8702,10.1574,1549,2530.04
28104,-3.1125,1.8268,10.1035,1541,2530.04
28109,-1.0379,-0.7494,12.0847,1526,2530.04
28114,-1.3431,0.6321,11.2731,1519,2530.04
28119,0.1987,2.8862,10.1454,1560,2530.04
28124,-0.0563,3.6009,10.1562,1528,2530.04
28129,-2.0351,0.899,10.4651,1526,2530.04
28134,-1.2414,-0.984,12.1314,1544,2530.04
28139,-0.7542,1.4413,10.7799,1527,2530.04
28144,0.3771,3.3315,10.0054,1549,2530.04
28149,-1.245,3.1161,10.1778,1534,2530.04
28154,-1.0403,-0.0144,11.1115,1524,2530.04
28159,-1.4964,-0.7973,12.0895,1531,2530.04
28164,-0.2646,1.9956,10.3956,1554,2529.72
28169,0.5028,3.7733,10.1071,1530,2529.72
28174,-2.8144,2.484,10.064,1541,2529.72
28179,-0.9433,-0.5327,11.7938,1527,2529.72
28184,-1.6592,-0.1879,11.7448,1523,2529.72
28189,0.012,2.4373,10.2197,1580,2531.22
28194,0.4142,3.8762,10.143,1532,2531.22
28199,-2.9904,1.7394,10.1239,1531,2531.22
28204,-1.0858,-0.8571,12.0512,1529,2531.22
28209,-1.3575,0.7099,11.2085,1529,2531.22
28214,0.2071,2.891,10.1394,1561,2531.22
28219,-0.2131,3.6009,10.155,1543,2531.22
28224,-1.8136,0.7242,10.5429,1529,2531.22
28229,-1.1851,-0.9553,12.1602,1554,2531.22
28234,-0.6692,1.4808,10.7272,1533,2531.22
28239,0.3328,3.3603,10.0664,1547,2531.22
28244,-1.5095,3.0765,10.24,1547,2531.22
28249,-1.0283,-0.0551,11.2791,1527,2531.22
28254,-1.4928,-0.7661,12.0297,1543,2531.22
28259,-0.158,2.0016,10.3082,1589,2531.22
28264,0.4369,3.7745,10.0509,1531,2531.22
28269,-3.0107,2.3355,10.0497,1549,2531.22
28274,-0.9972,-0.5794,11.9016,1541,2531.22
28279,-1.634,-0.0551,11.6346,1531,2531.22
28284,0.1269,2.5474,10.246,1590,2531.33
28289,0.3376,3.7876,10.0916,1550,2531.33
28294,-2.8862,1.5239,10.1873,1531,2531.33
28299,-1.0918,-0.8811,12.0416,1543,2531.33
28304,-1.239,0.9086,11.1881,1547,2531.33
28309,0.2813,3.0442,10.0521,1567,2531.22
28314,-0.1712,3.5506,10.1658,1541,2531.22
28319,-1.6257,0.559,10.5788,1533,2531.22
28324,-1.3276,-0.9804,12.1314,1549,2531.22
28329,-0.5507,1.6281,10.6039,1563,2531.43
28334,0.4334,3.5039,10.0509,1529,2531.43
28339,-1.7621,2.982,10.1538,1532,2531.43
28344,-0.9242,-0.1736,11.3772,1530,2531.43
28349,-1.555,-0.747,11.9423,1541,2531.43
28354,-0.1425,2.0973,10.2891,1591,2531.54
28359,0.4609,3.8295,10.1047,1543,2531.54
28364,-3.0813,2.308,10.1239,1548,2531.54
28369,-0.996,-0.6237,11.9255,1547,2531.54
28374,-1.5634,0.1065,11.57,1540,2531.54
28379,0.0814,2.5798,10.173,1562,2531.86
28384,0.2251,3.808,10.1825,1553,2531.86
28389,-2.7282,1.3683,10.2256,1529,2531.86
28394,-1.1468,-0.8655,12.0883,1543,2531.86
28399,-1.0989,1.0786,11.0732,1557,2531.86
28404,0.2981,3.0335,10.0868,1557,2532.29
28409,-0.5004,3.4357,10.2352,1545,2532.29
28414,-1.488,0.4489,10.799,1545,2532.29
28419,-1.3408,-0.9134,12.2164,1543,2532.29
28424,-0.4645,1.7166,10.5836,1591,2532.39
28429,0.498,3.535,10.0712,1544,2532.39
28434,-2.0949,2.7665,10.0892,1541,2532.39
28439,-0.9242,-0.3292,11.5149,1545,2532.39
28444,-1.6173,-0.6117,11.9411,1547,2532.39
28449,-0.0467,2.2589,10.307,1561,2532.61
28454,0.5016,3.8666,10.1119,1543,2532.61
28459,-3.1867,2.1632,10.0844,1533,2532.61
28464,-1.0523,-0.7566,12.0093,1525,2532.61
28469,-1.5323,0.2729,11.5772,1531,2532.61
28474,0.1185,2.6492,10.1538,1557,2532.82
28479,0.2167,3.784,10.1562,1532,2532.82
28484,-2.4529,1.2342,10.222,1525,2532.82
28489,-1.1564,-0.9397,12.1039,1531,2532.82
28494,-1.0235,1.136,10.9762,1549,2532.82
28499,0.2765,3.1975,10.1179,1549,2533.03
28504,-0.7542,3.3519,10.1275,1533,2533.03
28509,-1.2546,0.2921,10.8852,1547,2533.03
28514,-1.3874,-0.9182,12.1063,1529,2533.03
28519,-0.3567,1.7968,10.41,1557,2533.36
28524,0.4214,3.6476,10.1239,1545,2533.36
28529,-2.4588,2.7222,10.1813,1531,2533.36
28534,-0.9673,-0.3316,11.6813,1548,2533.36
28539,-1.6113,-0.431,11.8633,1553,2533.36
28544,0.0024,2.2805,10.1909,1591,2532.82
28549,0.4142,3.814,10.0425,1555,2532.82
28554,-3.2178,1.9944,10.1179,1553,2532.82
28559,-1.1049,-0.8224,12.0285,1533,2532.82
28564,-1.4365,0.5183,11.4491,1543,2532.82
28569,0.1927,2.8012,10.1287,1572,2532.93
28574,0.097,3.7098,10.1813,1545,2532.93
28579,-2.1644,0.9577,10.2795,1533,2532.93
28584,-1.2103,-0.9589,12.1889,1549,2532.93
28589,-0.8595,1.3815,10.8146,1549,2532.93
28594,0.3938,3.3746,10.137,1565,2532.93
28599,-1.0487,3.1807,10.2041,1545,2532.93
28604,-1.1061,0.1209,11.0433,1533,2532.93
28609,-1.506,-1.0068,12.0476,1545,2532.93
28614,-0.2861,1.9812,10.3884,1573,2532.82
28619,0.5088,3.711,10.076,1543,2532.82
28624,-2.6683,2.5857,10.1287,1543,2532.82
28629,-0.9553,-0.5291,11.7076,1543,2532.82
28634,-1.579,-0.3244,11.8298,1543,2532.82
28639,-0.0239,2.3607,10.1514,1573,2532.71
28644,0.3639,3.8882,10.1323,1554,2532.71
28649,-3.0969,1.7825,10.1406,1553,2532.71
28654,-1.1049,-0.7697,12.0536,1533,2532.71
28659,-1.3372,0.6907,11.2731,1533,2532.71
28664,0.1844,2.8443,10.0892,1573,2532.5
28669,-0.1018,3.6069,10.1466,1544,2532.5
28674,-1.9609,0.8056,10.495,1533,2532.5
28679,-1.2294,-0.9433,12.1314,1554,2532.5
28684,-0.7015,1.4509,10.6793,1541,2532.5
28689,0.3591,3.4117,10.0521,1564,2532.29
28694,-1.4425,3.0454,10.1347,1549,2532.29
28699,-1.0654,-0.0479,11.2527,1543,2532.29
28704,-1.5814,-0.8296,12.0572,1547,2532.29
28709,-0.1425,2.065,10.3896,1567,2533.03
28714,0.4884,3.7469,10.0401,1541,2533.03
28719,-2.9509,2.4134,10.143,1550,2533.03
28724,-0.9864,-0.65,11.8309,1543,2533.03
28729,-1.6352,-0.0826,11.7005,1543,2533.03
28734,0.0491,2.4541,10.1394,1575,2532.93
28739,0.4166,3.8858,10.1825,1551,2532.93
28744,-2.9497,1.5897,10.1275,1541,2532.93
28749,-1.1205,-0.8691,12.1015,1545,2532.93
28754,-1.2222,0.8631,11.1438,1545,2532.93
28759,0.2969,3.0191,10.0712,1576,2533.36
28764,-0.2334,3.4824,10.1682,1549,2533.36
28769,-1.6293,0.6201,10.5716,1545,2533.36
28774,-1.3108,-0.9936,12.0991,1548,2533.36
28779,-0.5543,1.6245,10.6458,1546,2533.36
28784,0.3831,3.4824,10.0928,1557,2533.89
28789,-1.7538,3.0155,10.1861,1544,2533.89
28794,-0.9697,-0.1867,11.3725,1541,2533.89
28799,-1.5826,-0.7278,11.9076,1547,2533.89
28804,-0.1389,2.1177,10.2532,1595,2534.64
28809,0.4441,3.7936,10.0952,1545,2534.64
28814,-3.1101,2.3116,10.1742,1556,2534.64
28819,-1.0618,-0.6692,11.88,1555,2534.64
28824,-1.6125,0.1233,11.5879,1544,2534.64
28829,0.1365,2.5786,10.1155,1573,2534.75
28834,0.249,3.8068,10.1574,1557,2534.75
28839,-2.7246,1.3156,10.2017,1533,2534.75
28844,-1.1875,-0.8763,12.1386,1545,2534.75
28849,-1.093,1.1157,11.0229,1556,2534.75
28854,0.3364,3.1675,10.1418,1563,2534.64
28859,-0.5327,3.3938,10.1849,1548,2534.64
28864,-1.3803,0.3915,10.744,1551,2534.64
28869,-1.4365,-1.0259,12.0428,1546,2534.64
28874,-0.3831,1.7681,10.4794,1599,2534.64
28879,0.492,3.5841,10.0449,1545,2534.64
28884,-2.1703,2.8527,10.1574,1542,2534.64
28889,-0.99,-0.3591,11.5293,1547,2534.64
28894,-1.6316,-0.5602,11.9483,1545,2534.64
28899,-0.0539,2.2027,10.2244,1591,2535.07
28904,0.5028,3.8762,10.0975,1546,2535.07
28909,-3.1915,2.0411,10.0533,1547,2535.07
28914,-1.0654,-0.7147,11.9638,1525,2535.07
28919,-1.5119,0.3412,11.4311,1541,2535.07
28924,0.1736,2.7438,10.2232,1563,2535.18
28929,0.1209,3.7541,10.2137,1544,2535.18
28934,-2.2984,1.093,10.2795,1529,2535.18
28939,-1.2019,-0.9206,12.1458,1541,2535.18
28944,-0.8966,1.2617,10.8278,1555,2535.18
28949,0.3448,3.2453,10.076,1567,2535.39
28954,-0.9589,3.2346,10.2077,1542,2535.39
28959,-1.1756,0.1125,10.999,1549,2535.39
28964,-1.5083,-0.8799,12.0548,1543,2535.39
28969,-0.2837,1.889,10.41,1607,2535.39
28974,0.51,3.6619,10.0676,1551,2535.39
28979,-2.6157,2.6169,10.1634,1543,2535.39
28984,-1.0247,-0.5279,11.746,1553,2535.39
28989,-1.6436,-0.3268,11.8908,1558,2535.39
28994,0.0275,2.3643,10.1682,1591,2535.5
28999,0.431,3.8487,10.149,1557,2535.5
29004,-3.1113,1.7693,10.1179,1557,2535.5
29009,-1.1229,-0.8344,12.0392,1532,2535.5
29014,-1.3575,0.6285,11.2863,1533,2535.5
29019,0.2598,2.891,10.1897,1573,2535.82
29024,-0.0215,3.6667,10.1849,1546,2535.82
29029,-1.9369,0.8416,10.4962,1542,2535.82
29034,-1.2653,-0.9732,12.0608,1551,2535.82
29039,-0.7051,1.4856,10.7595,1543,2535.82
29044,0.4022,3.3722,10.0664,1561,2535.93
29049,-1.342,3.1232,10.1275,1549,2535.93
29054,-1.0822,-0.0766,11.1701,1533,2535.93
29059,-1.5167,-0.8464,12.0931,1547,2535.93
29064,-0.1293,2.0291,10.2855,1591,2535.82
29069,0.4741,3.7936,10.0688,1547,2535.82
29074,-2.9137,2.4421,10.137,1547,2535.82
29079,-1.0259,-0.589,11.8286,1543,2535.82
29084,-1.6017,-0.1006,11.6801,1544,2535.82
29089,0.1317,2.4517,10.1454,1576,2535.93
29094,0.3555,3.8164,10.173,1549,2535.93
29099,-2.9137,1.4892,10.1634,1541,2535.93
29104,-1.1504,-0.8595,12.1578,1545,2535.93
29109,-1.1899,0.8978,11.0852,1543,2535.93
29114,0.2729,3.037,10.1239,1575,2535.82
29119,-0.2849,3.4895,10.0963,1547,2535.82
29124,-1.6221,0.5279,10.6662,1543,2535.82
29129,-1.3312,-1.0259,12.0931,1555,2535.82
29134,-0.5004,1.7262,10.6494,1547,2535.82
29139,0.4764,3.5243,10.0209,1559,2535.82
29144,-1.8519,2.9185,10.2197,1543,2535.82
29149,-0.9445,-0.2909,11.3725,1541,2535.82
29154,-1.6101,-0.6428,12.0189,1546,2535.82
29159,-0.0718,2.1105,10.2556,1595,2535.93
29164,0.595,3.881,10.1406,1544,2535.93
29169,-3.1771,2.1919,10.0664,1557,2535.93
29174,-1.0666,-0.6345,11.9961,1553,2535.93
29179,-1.5945,0.2071,11.4706,1547,2535.93
29184,0.1305,2.6444,10.1454,1572,2535.82
29189,0.2083,3.7745,10.1766,1557,2535.82
29194,-2.5522,1.2498,10.2232,1544,2535.82
29199,-1.2294,-0.9517,12.0764,1545,2535.82
29204,-1.0116,1.1492,10.9379,1559,2535.82
29209,0.3352,3.146,10.1143,1568,2536.14
29214,-0.7147,3.3495,10.2268,1548,2536.14
29219,-1.3551,0.3041,10.8721,1553,2536.14
29224,-1.4138,-0.9254,12.0548,1547,2536.14
29229,-0.2957,1.8411,10.4854,1609,2535.93
29234,0.498,3.6021,10.0604,1549,2535.93
29239,-2.4038,2.7318,10.1227,1553,2535.93
29244,-0.984,-0.4669,11.643,1553,2535.93
29249,-1.6556,-0.4525,11.8824,1557,2535.93
29254,0.0251,2.2745,10.2005,1599,2536.46
29259,0.4549,3.8702,10.0916,1559,2536.46
29264,-3.231,1.9166,10.0904,1557,2536.46
29269,-1.1301,-0.82,12.0321,1547,2536.46
29274,-1.4736,0.4669,11.3162,1549,2536.46
29279,0.2933,2.8299,10.2053,1575,2536.25
29284,0.1018,3.7074,10.1382,1553,2536.25
29289,-2.1572,0.9876,10.3896,1546,2536.25
29294,-1.3156,-0.9876,12.1123,1549,2536.25
29299,-0.8009,1.4078,10.7967,1555,2536.25
29304,0.4274,3.2896,10.1215,1574,2536.57
29309,-1.0834,3.2501,10.2304,1553,2536.57
29314,-1.1037,0.0263,11.0995,1551,2536.57
29319,-1.4856,-0.9026,12.0728,1553,2536.57
29324,-0.2274,1.9465,10.3633,1597,2536.78
29329,0.4741,3.7122,10.1311,1549,2536.78
29334,-2.8024,2.5247,10.1502,1545,2536.78
29339,-0.9996,-0.5136,11.7986,1547,2536.78
29344,-1.6963,-0.2227,11.7519,1546,2536.78
29349,0.0778,2.4217,10.155,1596,2536.89
29354,0.3938,3.8654,10.1011,1560,2536.89
29359,-3.0897,1.6352,10.1706,1559,2536.89
29364,-1.1552,-0.844,12.1075,1543,2536.89
29369,-1.3132,0.808,11.1917,1544,2536.89
29374,0.3041,2.9748,10.1418,1583,2537.11
29379,-0.2035,3.4895,10.1634,1547,2537.11
29384,-1.737,0.65,10.5776,1545,2537.11
29389,-1.3455,-1.002,12.1649,1557,2537.11
29394,-0.6321,1.6544,10.6554,1545,2537.11
29399,0.4944,3.4656,10.1059,1567,2537.21
29404,-1.6209,2.9401,10.2137,1556,2537.21
29409,-1.0139,-0.2119,11.2755,1548,2537.21
29414,-1.6316,-0.7075,11.9926,1551,2537.21
29419,-0.0934,2.1081,10.2412,1589,2537.21
29424,0.5902,3.8918,10.1083,1549,2537.21
29429,-3.134,2.2984,10.0556,1554,2537.21
29434,-1.0642,-0.6201,11.983,1549,2537.21
29439,-1.64,0.0814,11.5257,1547,2537.21
29444,0.1712,2.6073,10.2113,1613,2537.43
29449,0.2789,3.7745,10.143,1560,2537.43
29454,-2.6827,1.3563,10.2436,1544,2537.43
29459,-1.2139,-0.9014,12.0835,1547,2537.43
29464,-1.0786,1.1109,11.0409,1559,2537.43
29469,0.3232,3.1017,10.1742,1583,2537.53
29474,-0.577,3.377,10.2077,1555,2537.53
29479,-1.3671,0.3268,10.7715,1557,2537.53
29484,-1.4293,-0.9409,12.05,1549,2537.53
29489,-0.3699,1.7597,10.4878,1599,2537.86
29494,0.5171,3.5781,10.0724,1548,2537.86
29499,-2.2721,2.7617,10.137,1545,2537.86
29504,-1.0558,-0.3903,11.6131,1553,2537.86
29509,-1.6556,-0.4884,11.9423,1555,2537.86
29514,0.0682,2.3355,10.2412,1605,2538.18
29519,0.4369,3.8714,10.0916,1559,2538.18
29524,-3.1256,1.9632,10.064,1547,2538.18
29529,-1.1588,-0.7817,12.0404,1547,2538.18
29534,-1.5024,0.4621,11.4132,1555,2538.18
29539,0.2538,2.8084,10.2053,1573,2538.5
29544,0.1221,3.7421,10.1646,1549,2538.5
29549,-2.2194,1.0259,10.3525,1542,2538.5
29554,-1.2677,-0.9852,12.074,1547,2538.5
29559,-0.8176,1.3587,10.8397,1560,2538.5
29564,0.3855,3.3339,10.0999,1575,2538.61
29569,-1.0331,3.2561,10.246,1554,2538.61
29574,-1.1708,0.0431,11.0265,1556,2538.61
29579,-1.482,-0.9098,12.1063,1548,2538.61
29584,-0.1975,1.9166,10.3837,1613,2538.5
29589,0.5279,3.7493,10.0999,1561,2538.5
29594,-2.745,2.5223,10.1131,1547,2538.5
29599,-1.0211,-0.4752,11.7699,1559,2538.5
29604,-1.6676,-0.1999,11.746,1555,2538.5
29609,0.0802,2.4205,10.2496,1599,2538.39
29614,0.3855,3.802,10.0892,1560,2538.39
29619,-2.9987,1.6556,10.1622,1563,2538.39
29624,-1.1744,-0.8511,12.0979,1544,2538.39
29629,-1.2905,0.8667,11.1749,1547,2538.39
29634,0.2921,2.9509,10.07,1583,2538.61
29639,-0.1712,3.5386,10.1718,1547,2538.61
29644,-1.7202,0.6309,10.5572,1543,2538.61
29649,-1.3767,-1.008,12.1266,1563,2538.61
29654,-0.5878,1.6616,10.647,1545,2538.61
29659,0.5471,3.5015,10.0844,1574,2538.61
29664,-1.6723,2.9329,10.1778,1559,2538.61
29669,-1.0211,-0.2598,11.3174,1549,2538.61
29674,-1.6616,-0.7398,12.0189,1555,2538.61
29679,-0.0898,2.1416,10.3334,1618,2538.5
29684,0.5567,3.8475,10.1167,1549,2538.5
29689,-3.0718,2.2541,10.0413,1557,2538.5
29694,-1.0618,-0.6608,11.9842,1553,2538.5
29699,-1.6185,0.0946,11.5808,1553,2538.5
29704,0.1628,2.5869,10.1634,1611,2538.07
29709,0.249,3.7828,10.1191,1563,2538.07
29714,-2.6983,1.3898,10.2699,1547,2538.07
29719,-1.2258,-0.905,12.0799,1554,2538.07
29724,-1.0163,1.1684,10.9391,1559,2538.07
29729,0.3579,3.14,10.0892,1587,2537.96
29734,-0.6213,3.3974,10.2125,1556,2537.96
29739,-1.3479,0.2729,10.8134,1557,2537.96
29744,-1.4222,-0.9194,12.074,1559,2537.96
29749,-0.3603,1.8184,10.4806,1613,2537.96
29754,0.492,3.5913,10.0712,1553,2537.96
29759,-2.3296,2.7078,10.1586,1551,2537.96
29764,-1.0259,-0.3974,11.5987,1555,2537.96
29769,-1.6496,-0.4453,11.8477,1557,2537.96
29774,0.0443,2.332,10.2292,1599,2537.21
29779,0.5052,3.8259,10.1119,1557,2537.21
29784,-3.1759,1.919,10.0545,1550,2537.21
29789,-1.1552,-0.8284,12.038,1547,2537.21
29794,-1.4641,0.504,11.3653,1555,2537.21
29799,0.261,2.8467,10.137,1573,2536.89
29804,0.1041,3.7673,10.1167,1551,2536.89
29809,-2.2206,0.9828,10.3274,1545,2536.89
29814,-1.2773,-1.0439,12.074,1545,2536.89
29819,-0.8224,1.3551,10.7847,1563,2536.89
29824,0.4274,3.3375,10.1622,1579,2537.21
29829,-1.0846,3.225,10.2065,1533,2537.21
29834,-1.1253,0.0299,11.0193,1559,2537.21
29839,-1.5431,-0.9385,12.05,1549,2537.21
29844,-0.2442,1.9309,10.2975,1583,2537.32
29849,0.5279,3.7781,10.0904,1561,2537.32
29854,-2.8024,2.4936,10.0772,1547,2537.32
29859,-1.0044,-0.4788,11.7723,1561,2537.32
29864,-1.6819,-0.1712,11.7507,1562,2537.32
29869,0.1257,2.4421,10.1706,1607,2537.64
29874,0.3615,3.7924,10.1011,1560,2537.64
29879,-3.0765,1.6484,10.2053,1563,2537.64
29884,-1.154,-0.8236,12.0524,1547,2537.64
29889,-1.2653,0.8535,11.2097,1551,2537.64
29894,0.3089,2.9269,10.1107,1589,2538.39
29899,-0.1712,3.5279,10.228,1547,2538.39
29904,-1.7502,0.5794,10.5955,1549,2538.39
29909,-1.3874,-0.9828,12.1123,1560,2538.39
29914,-0.5974,1.6269,10.6207,1545,2538.39
29919,0.5375,3.547,10.0999,1575,2539.57
29924,-1.7334,2.9269,10.1586,1560,2539.57
29929,-0.9888,-0.2179,11.3713,1553,2539.57
29934,-1.6783,-0.7578,11.9878,1557,2539.57
29939,-0.0634,2.1177,10.2855,1605,2540.01
29944,0.595,3.8415,10.1119,1549,2540.01
29949,-3.0849,2.2194,10.0892,1557,2540.01
29954,-1.0953,-0.6572,11.995,1559,2540.01
29959,-1.6412,0.1544,11.5652,1557,2540.01
29964,0.1915,2.6037,10.1933,1610,2540.33
29969,0.2741,3.8331,10.1538,1561,2540.33
29974,-2.6444,1.3108,10.2723,1547,2540.33
29979,-1.2306,-0.9337,12.0847,1555,2540.33
29984,-1.0331,1.1827,10.9607,1559,2540.33
29989,0.31,3.1556,10.1179,1589,2540.54
29994,-0.6919,3.4022,10.2208,1557,2540.54
29999,-1.3575,0.2478,10.8685,1557,2540.54
30004,-1.4353,-0.9122,12.1925,1556,2540.54
30009,-0.316,1.8328,10.4267,1582,2540.87
30014,0.5148,3.6607,10.1059,1553,2540.87
30019,-2.4588,2.6719,10.1071,1549,2540.87
30024,-1.0487,-0.4405,11.582,1555,2540.87
30029,-1.7214,-0.3962,11.7926,1557,2540.87
30034,0.1006,2.3858,10.1825,1600,2541.4
30039,0.4788,3.8475,10.1251,1558,2541.4
30044,-3.1328,1.8519,10.1251,1557,2541.4
30049,-1.1516,-0.8284,12.0931,1547,2541.4
30054,-1.4605,0.6189,11.3138,1555,2541.4
30059,0.322,2.879,10.1454,1573,2542.48
30064,0.0682,3.6931,10.1035,1556,2542.48
30069,-2.0351,0.82,10.4327,1549,2542.48
30074,-1.3132,-1.0331,12.1673,1555,2542.48
30079,-0.7398,1.4712,10.72,1563,2542.48
30084,0.4262,3.4369,10.0724,1579,2543.34
30089,-1.3575,3.1532,10.2244,1557,2543.34
30094,-1.0594,-0.1257,11.1941,1553,2543.34
30099,-1.5874,-0.8344,12.044,1556,2543.34
30104,-0.1784,2.0063,10.2927,1610,2543.56
30109,0.5112,3.8199,10.137,1547,2543.56
30114,-3.0622,2.3439,10.1538,1555,2543.56
30119,-1.0247,-0.5543,11.9602,1551,2543.56
30124,-1.646,0.0347,11.6215,1555,2543.56
30129,0.1796,2.5426,10.1586,1595,2543.99
30134,0.3496,3.7864,10.0975,1555,2543.99
30139,-2.8168,1.4066,10.2412,1553,2543.99
30144,-1.257,-0.8739,12.1063,1555,2543.99
30149,-1.093,1.1408,11.0313,1553,2543.99
30154,0.4118,3.073,10.0628,1589,2543.88
30159,-0.48,3.3411,10.1969,1557,2543.88
30164,-1.3934,0.3172,10.7428,1548,2543.88
30169,-1.4796,-0.9373,12.0967,1561,2543.88
30174,-0.4298,1.7909,10.4914,1583,2543.88
30179,0.5818,3.6619,10.0676,1547,2543.88
30184,-2.2494,2.7114,10.1047,1549,2543.88
30189,-1.0092,-0.4345,11.5843,1549,2543.88
30194,-1.6975,-0.5136,11.8561,1549,2543.88
30199,0.0383,2.2685,10.2484,1607,2544.42
30204,0.5279,3.9049,10.1442,1557,2544.42
30209,-3.1352,1.9776,10.1299,1553,2544.42
30214,-1.1887,-0.8535,12.0452,1549,2544.42
30219,-1.4497,0.5088,11.3641,1555,2544.42
30224,0.1879,2.7869,10.1981,1577,2544.85
30229,0.0419,3.7026,10.143,1554,2544.85
30234,-2.1033,0.9325,10.4495,1545,2544.85
30239,-1.2893,-0.9122,12.1302,1549,2544.85
30244,-0.7278,1.4724,10.7368,1563,2544.85
30249,0.4286,3.3255,10.088,1576,2545.82
30254,-1.3372,3.0754,10.1921,1549,2545.82
30259,-1.148,-0.1221,11.2384,1553,2545.82
30264,-1.579,-0.7841,12.0452,1556,2545.82
30269,-0.1556,2.0578,10.2879,1607,2545.5
30274,0.5914,3.7816,10.0868,1549,2545.5
30279,-2.9928,2.3355,10.1095,1547,2545.5
30284,-1.081,-0.668,11.88,1553,2545.5
30289,-1.6376,0.0192,11.5568,1557,2545.5
30294,0.1975,2.6001,10.1849,1608,2542.59
30299,0.3472,3.8199,10.1215,1567,2542.59
30304,-2.7976,1.3862,10.2208,1555,2542.59
30309,-1.227,-0.9397,12.0692,1549,2542.59
30314,-1.1492,1.0834,11.0864,1549,2542.59
30319,0.3735,3.146,10.1167,1590,2540.65
30324,-0.413,3.5003,10.1682,1556,2540.65
30329,-1.4988,0.3795,10.732,1551,2540.65
30334,-1.4437,-1.0307,12.1159,1564,2540.65
30339,-0.425,1.7322,10.4998,1553,2540.65
30344,0.4884,3.5913,10.0652,1574,2539.68
30349,-2.1536,2.806,10.1299,1548,2539.68
30354,-0.984,-0.2861,11.4862,1547,2539.68
30359,-1.6963,-0.6081,11.9291,1558,2539.68
30364,-0.0048,2.2075,10.2161,1606,2539.25
30369,0.4932,3.8523,10.1514,1554,2539.25
30374,-3.2597,2.0016,10.1131,1561,2539.25
30379,-1.1109,-0.7051,12.0368,1558,2539.25
30384,-1.5155,0.4274,11.3461,1550,2539.25
30389,0.237,2.7354,10.1394,1583,2539.04
30394,0.1137,3.7122,10.2113,1561,2539.04
30399,-2.3667,1.0415,10.3693,1543,2539.04
30404,-1.2917,-0.923,-0.3089,1547,2539.04
30409,-0.8535,1.4174,10.8828,1562,2539.04
30414,0.4417,3.2968,10.0952,1574,2539.15
30419,-0.9888,3.1687,10.1646,1551,2539.15
30424,-1.1696,-0.0024,10.993,1557,2539.15
30429,-1.5538,-0.8619,12.1087,1547,2539.15
30434,-0.2179,1.9501,10.3573,1573,2539.15
30439,0.6381,3.7577,10.0772,1556,2539.15
30444,-2.7294,2.5127,10.0688,1545,2539.15
30449,-1.0223,-0.5519,11.7962,1559,2539.15
30454,-1.6963,-0.2562,11.734,1561,2539.15
30459,0.1389,2.4122,10.1933,1579,2539.36
30464,0.4525,3.9002,10.1466,1562,2539.36
30469,-3.0347,1.7286,10.1574,1555,2539.36
30474,-1.1528,-0.8799,12.0416,1544,2539.36
30479,-1.3396,0.8164,11.1594,1548,2539.36
30484,0.2837,2.9664,10.143,1581,2539.68
30489,-0.1484,3.5841,10.2065,1553,2539.68
30494,-1.8076,0.6428,10.5189,1543,2539.68
30499,-1.312,-0.9661,12.0811,1557,2539.68
30504,-0.5435,1.5538,10.665,1543,2539.68
30509,0.4812,3.4488,10.1011,1572,2540.01
30514,-1.6604,2.9796,10.1801,1555,2540.01
30519,-1.0942,-0.1748,11.3389,1543,2540.01
30524,-1.6101,-0.6883,12.0009,1553,2540.01
30529,-0.0335,2.1392,10.2604,1611,2540.11
30534,0.5279,3.7972,10.07,1549,2540.11
30539,-3.1472,2.1859,10.0963,1557,2540.11
30544,-1.1001,-0.6752,11.9806,1549,2540.11
30549,-1.5981,0.1508,11.5508,1547,2540.11
30554,0.1891,2.6995,10.1861,1597,2540.22
30559,0.3256,3.814,10.1227,1557,2540.22
30564,-2.6456,1.2929,10.2795,1549,2540.22
30569,-1.2522,-0.9756,12.1183,1550,2540.22
30574,-1.0211,1.1851,11.0504,1545,2540.22
30579,0.4178,3.2178,10.1598,1581,2539.79
30584,-0.5303,3.3722,10.2017,1554,2539.79
30589,-1.3324,0.1999,10.7787,1548,2539.79
30594,-1.4437,-0.9577,12.1099,1558,2539.79
30599,-0.3687,1.8112,10.501,1577,2539.15
30604,0.5578,3.6727,10.1454,1547,2539.15
30609,-2.3942,2.7246,10.0952,1547,2539.15
30614,-0.9864,-0.3388,11.6693,1547,2539.15
30619,-1.7382,-0.492,11.8465,1553,2539.15
30624,0.073,2.2601,10.2113,1606,2539.57
30629,0.486,3.8475,10.1335,1553,2539.57
30634,-3.1915,1.9118,10.1287,1556,2539.57
30639,-1.1181,-0.7183,12.0237,1547,2539.57
30644,-1.4353,0.5519,11.2743,1548,2539.57
30649,0.2454,2.7749,10.1263,1576,2539.25
30654,0.0551,3.7158,10.2173,1553,2539.25
30659,-2.162,0.9014,10.4028,1543,2539.25
30664,-1.3036,-0.9589,12.0835,1547,2539.25
30669,-0.7566,1.4664,10.744,1563,2539.25
30674,0.5016,3.3555,10.0449,1567,2539.36
30679,-1.2186,3.122,10.2077,1551,2539.36
30684,-1.1253,-0.0706,11.0875,1560,2539.36
30689,-1.6017,-0.8068,12.056,1547,2539.36
30694,-0.1963,2.0099,10.2999,1573,2539.15
30699,0.6297,3.7888,10.0473,1557,2539.15
30704,-2.8994,2.3834,10.0341,1547,2539.15
30709,-1.0666,-0.6189,11.8405,1560,2539.15
30714,-1.7214,-0.1329,11.6885,1561,2539.15
30719,0.1784,2.4864,10.2604,1599,2540.11
30724,0.4094,3.8846,10.1179,1561,2540.11
30729,-2.9113,1.6305,10.1849,1561,2540.11
30734,-1.1779,-0.9325,12.0692,1544,2540.11
30739,-1.2953,0.8882,11.1247,1553,2540.11
30744,0.3077,2.9461,10.1059,1584,2539.57
30749,-0.2885,3.5554,10.2687,1547,2539.57
30754,-1.6592,0.4884,10.6219,1546,2539.57
30759,-1.3431,-0.9385,12.1422,1560,2539.57
30764,-0.5303,1.6293,10.5955,1543,2539.57
30769,0.4657,3.5003,10.1059,1567,2539.68
30774,-1.9441,2.879,10.2268,1551,2539.68
30779,-0.9924,-0.2981,11.4455,1541,2539.68
30784,-1.6903,-0.6261,11.9483,1551,2539.68
30789,-0.0311,2.2122,10.2472,1572,2540.22
30794,0.5207,3.7852,10.0329,1546,2540.22
30799,-3.2118,2.1356,10.0916,1553,2540.22
30804,-1.1145,-0.6764,12.044,1547,2540.22
30809,-1.585,0.3364,11.4898,1548,2540.22
30814,0.2239,2.6815,10.1215,1577,2540.11
30819,0.2825,3.7589,10.1909,1559,2540.11
30824,-2.4948,1.0977,10.2711,1545,2540.11
30829,-1.2845,-0.9792,12.1087,1548,2540.11
30834,-0.9457,1.2941,10.9547,1557,2540.11
30839,0.4513,3.237,10.1275,1581,2540.65
30844,-0.7685,3.3291,10.2939,1553,2540.65
30849,-1.2079,0.1329,10.8852,1553,2540.65
30854,-1.5215,-0.9469,12.0859,1555,2540.65
30859,-0.3244,1.8675,10.3681,1611,2540.65
30864,0.5578,3.7026,10.0772,1547,2540.65
30869,-2.5857,2.6396,10.1562,1547,2540.65
30874,-1.0319,-0.4573,11.6765,1553,2540.65
30879,-1.7705,-0.3603,11.7974,1557,2540.65
30884,0.0515,2.3834,10.2173,1595,2541.19
30889,0.4453,3.8714,10.0952,1557,2541.19
30894,-3.1639,1.7933,10.149,1548,2541.19
30899,-1.1432,-0.7745,12.0871,1541,2541.19
30904,-1.3803,0.7697,11.2563,1555,2541.19
30909,0.2945,2.879,10.1083,1567,2541.94
30914,-0.0694,3.6308,10.2101,1547,2541.94
30919,-1.919,0.6596,10.5189,1543,2541.94
30924,-1.3683,-0.9409,12.1254,1547,2541.94
30929,-0.6548,1.5706,10.6171,1560,2541.94
30934,0.5207,3.4129,10.0533,1573,2541.51
30939,-1.5598,2.9856,10.2592,1546,2541.51
30944,-1.0654,-0.1963,11.2743,1545,2541.51
30949,-1.6759,-0.7386,11.983,1545,2541.51
30954,-0.1221,2.1201,10.3298,1597,2541.3
30959,0.6297,3.8188,10.1263,1545,2541.3
30964,-3.0849,2.2601,10.082,1547,2541.3
30969,-1.1181,-0.662,11.9159,1543,2541.3
30974,-1.6843,0.1425,11.6047,1547,2541.3
30979,0.2239,2.5738,10.2232,1599,2540.97
30984,0.3639,3.8367,10.2125,1550,2540.97
30989,-2.7282,1.3384,10.2448,1551,2540.97
30994,-1.2282,-0.9397,12.0704,1547,2540.97
30999,-1.0894,1.1301,10.9798,1545,2540.97
31004,0.3759,3.0754,10.0473,1581,2541.08
31009,-0.5231,3.4357,10.3058,1554,2541.08
31014,-1.4281,0.3112,10.7907,1545,2541.08
31019,-1.4186,-0.9517,12.0991,1565,2541.08
31024,-0.3687,1.7729,10.4411,1549,2541.08
31029,0.5028,3.6476,10.076,1567,2541.3
31034,-2.3595,2.7162,10.1586,1557,2541.3
31039,-1.0223,-0.3735,11.6262,1547,2541.3
31044,-1.7514,-0.431,11.9076,1553,2541.3
31049,0.0646,2.3535,10.2855,1605,2541.4
31054,0.5016,3.875,10.0844,1558,2541.4
31059,-3.2226,1.9369,10.1526,1563,2541.4
31064,-1.1408,-0.8068,12.0404,1556,2541.4
31069,-1.4545,0.5938,11.3593,1554,2541.4
31074,0.31,2.8168,10.1023,1587,2541.51
31079,0.1245,3.6907,10.2113,1563,2541.51
31084,-2.15,0.8523,10.4327,1545,2541.51
31089,-1.3072,-1.0343,12.1889,1549,2541.51
31094,-0.7638,1.4569,10.7955,1563,2541.51
31099,0.5088,3.3339,10.088,1560,2541.73
31104,-1.1779,3.1855,10.2173,1553,2541.73
31109,-1.1049,-0.0802,11.1282,1558,2541.73
31114,-1.5969,-0.893,12.0141,1547,2541.73
31119,-0.1688,2.0387,10.3549,1611,2541.4
31124,0.6045,3.784,10.1754,1561,2541.4
31129,-2.8958,2.4481,10.1526,1549,2541.4
31134,-1.0654,-0.5555,11.8238,1559,2541.4
31139,-1.6951,-0.0826,11.6262,1563,2541.4
31144,0.1484,2.4708,10.1981,1607,2541.51
31149,0.3986,3.8367,10.1574,1563,2541.51
31154,-2.9066,1.5431,10.1442,1560,2541.51
31159,-1.1684,-0.8595,12.0967,1547,2541.51
31164,-1.1672,1.0546,11.1294,1551,2541.51
31169,0.3244,3.0299,10.0485,1589,2541.3
31174,-0.3256,3.4692,10.2125,1553,2541.3
31179,-1.6209,0.4405,10.6781,1548,2541.3
31184,-1.3994,-0.9553,12.135,1563,2541.3
31189,-0.5112,1.6987,10.5608,1547,2541.3
31194,0.5387,3.5255,10.0784,1575,2541.3
31199,-2.0494,2.824,10.2029,1559,2541.3
31204,-1.008,-0.3053,11.4802,1547,2541.3
31209,-1.7095,-0.5507,11.8944,1556,2541.3
31214,-0.0215,2.2517,10.2173,1580,2541.19
31219,0.5806,3.8666,10.1191,1553,2541.19
31224,-3.2106,2.0446,10.058,1559,2541.19
31229,-1.1001,-0.82,12.0045,1555,2541.19
31234,-1.5766,0.3879,11.4455,1553,2541.19
31239,0.2239,2.6911,10.1813,1593,2541.4
31244,0.2083,3.7924,10.167,1565,2541.4
31249,-2.3762,1.1037,10.3765,1546,2541.4
31254,-1.2426,-0.9517,12.0859,1557,2541.4
31259,-0.9098,1.3204,10.8254,1565,2541.4
31264,0.4381,3.231,10.0616,1587,2541.19
31269,-0.9625,3.2908,10.2208,1557,2541.19
31274,-1.2246,0.0575,10.9918,1559,2541.19
31279,-1.5227,-0.8583,12.0632,1557,2541.19
31284,-0.2227,1.9453,10.3537,1582,2541.3
31289,0.5626,3.7098,10.1179,1555,2541.3
31294,-2.7461,2.5833,10.1083,1549,2541.3
31299,-1.0726,-0.498,11.7747,1555,2541.3
31304,-1.7131,-0.2035,11.7651,1557,2541.3
31309,0.1472,2.46,10.2364,1607,2541.51
31314,0.4118,3.8188,10.0832,1563,2541.51
31319,-3.0658,1.6137,10.149,1558,2541.51
31324,-1.154,-0.8811,12.0704,1548,2541.51
31329,-1.2857,0.8464,11.236,1559,2541.51
31334,0.3567,2.9796,10.0999,1579,2541.62
31339,-0.1353,3.5817,10.1945,1554,2541.62
31344,-1.7801,0.577,10.5249,1545,2541.62
31349,-1.3779,-1.0235,12.1218,1555,2541.62
31354,-0.5638,1.6041,10.6303,1563,2541.62
31359,0.5818,3.4692,10.0377,1579,2541.73
31364,-1.6915,2.982,10.1718,1554,2541.73
31369,-1.0307,-0.2155,11.3246,1551,2541.73
31374,-1.6747,-0.7135,11.9818,1553,2541.73
31379,-0.0982,2.1656,10.307,1573,2541.51
31384,0.5459,3.8259,10.0748,1549,2541.51
31389,-3.1077,2.2015,10.1107,1555,2541.51
31394,-1.0918,-0.6476,11.9351,1553,2541.51
31399,-1.6388,0.1963,11.5029,1549,2541.51
31404,0.2167,2.6109,10.137,1611,2542.05
31409,0.2646,3.8104,10.1754,1557,2542.05
31414,-2.6073,1.2091,10.2915,1555,2542.05
31419,-1.2534,-0.9122,12.0835,1555,2542.05
31424,-0.9948,1.2498,10.9152,1553,2542.05
31429,0.4345,3.1627,10.088,1593,2541.94
31434,-0.65,3.3315,10.2424,1555,2541.94
31439,-1.3372,0.1472,10.8577,1549,2541.94
31444,-1.5036,-0.911,12.0847,1561,2541.94
31449,-0.2873,1.9082,10.416,1557,2541.94
31454,0.6213,3.7074,10.088,1573,2542.27
31459,-2.5211,2.6193,10.1011,1549,2542.27
31464,-1.0307,-0.4561,11.649,1549,2542.27
31469,-1.7968,-0.3663,11.7879,1556,2542.27
31474,0.0778,2.3535,10.1754,1607,2542.16
31479,0.5363,3.8786,10.1562,1553,2542.16
31484,-3.1711,1.8028,10.1466,1559,2542.16
31489,-1.1696,-0.8332,12.0632,1559,2542.16
31494,-1.4425,0.6656,11.2575,1549,2542.16
31499,0.2993,2.8958,10.1478,1579,2540.87
31504,0.0012,3.6272,10.2053,1557,2540.87
31509,-1.9764,0.7649,10.4495,1547,2540.87
31514,-1.3096,-1.0008,12.1398,1549,2540.87
31519,-0.6895,1.5538,10.7715,1563,2540.87
31524,0.4453,3.4237,10.0401,1575,2540.11
31529,-1.4497,3.0586,10.2232,1555,2540.11
31534,-1.0558,-0.1616,11.2396,1555,2540.11
31539,-1.5933,-0.7829,12.0847,1550,2540.11
31544,-0.0611,2.1045,10.2675,1587,2539.25
31549,0.5578,3.7721,10.0652,1561,2539.25
31554,-3.073,2.3092,10.1251,1549,2539.25
31559,-1.0834,-0.6309,11.9303,1557,2539.25
31564,-1.6795,0.0239,11.5999,1566,2539.25
31569,0.237,2.5845,10.2065,1607,2538.39
31574,0.3903,3.8379,10.1873,1563,2538.39
31579,-2.8551,1.4341,10.1861,1563,2538.39
31584,-1.2222,-0.9481,12.0776,1547,2538.39
31589,-1.154,1.0846,11.1139,1553,2538.39
31594,0.3508,3.0957,10.082,1581,2537.75
31599,-0.3974,3.5015,10.2747,1549,2537.75
31604,-1.5514,0.3304,10.6829,1549,2537.75
31609,-1.4305,-1.0343,12.1422,1561,2537.75
31614,-0.4669,1.7394,10.5453,1551,2537.75
31619,0.583,3.632,10.0628,1576,2537.32
31624,-2.0818,2.8599,10.1742,1556,2537.32
31629,-0.9744,-0.3268,11.5484,1548,2537.32
31634,-1.6807,-0.6093,11.9088,1557,2537.32
31639,-0.0287,2.2278,10.2161,1613,2537.75
31644,0.516,3.8439,10.0999,1549,2537.75
31649,-3.2513,2.0973,10.1155,1555,2537.75
31654,-1.0702,-0.7003,12.0572,1549,2537.75
31659,-1.5383,0.3519,11.4239,1553,2537.75
31664,0.2239,2.6947,10.1287,1597,2537.43
31669,0.2011,3.7493,10.2113,1561,2537.43
31674,-2.4337,1.063,10.3118,1555,2537.43
31679,-1.257,-0.9349,12.1566,1555,2537.43
31684,-0.9182,1.2893,10.902,1555,2537.43
31689,0.4776,3.2621,10.1083,1589,2537.53
31694,-0.8559,3.2358,10.2161,1557,2537.53
31699,-1.233,0.0826,10.9415,1546,2537.53
31704,-1.5335,-0.8691,12.0907,1563,2537.53
31709,-0.2693,1.9178,10.4112,1557,2537.64
31714,0.595,3.6883,10.0832,1579,2537.64
31719,-2.642,2.5414,10.1191,1548,2537.64
31724,-1.0343,-0.5028,11.6789,1553,2537.64
31729,-1.749,-0.3268,11.7627,1556,2537.64
31734,0.1125,2.393,10.2412,1610,2537.86
31739,0.516,3.8882,10.155,1555,2537.86
31744,-3.158,1.804,10.1227,1563,2537.86
31749,-1.1815,-0.8966,12.074,1555,2537.86
31754,-1.3922,0.7254,11.2252,1554,2537.86
31759,0.2897,2.9066,10.1227,1587,2537.86
31764,-0.0263,3.6093,10.2568,1560,2537.86
31769,-1.9273,0.7661,10.507,1545,2537.86
31774,-1.2857,-0.9445,12.1637,1549,2537.86
31779,-0.6644,1.5407,10.7057,1564,2537.86
31784,0.51,3.3878,10.094,1562,2538.07
31789,-0.316,3.5422,10.252,1557,2538.07
31794,-1.5909,0.4405,10.6051,1561,2538.07
31799,-1.6053,-0.7877,12.0345,1549,2538.07
31804,-0.4561,1.6735,10.5141,1620,2537.86
31809,0.5351,3.5303,10.1706,1559,2537.86
31814,-1.9668,2.8814,10.2101,1553,2537.86
31819,-1.0211,-0.2622,11.5125,1563,2537.86
31824,-1.6688,-0.6764,11.9973,1565,2537.86
31829,0.0108,2.2027,10.2663,1607,2537.64
31834,0.5303,3.8188,10.0616,1563,2537.64
31839,-3.1591,2.1284,10.1466,1561,2537.64
31844,-1.1085,-0.735,12.0237,1553,2537.64
31849,-1.5706,0.3292,11.5053,1551,2537.64
31854,0.2358,2.6875,10.1155,1593,2537.64
31859,0.267,3.7984,10.1909,1555,2537.64
31864,-2.5019,1.1121,10.1885,1553,2537.64
31869,-1.2186,-0.9517,12.1566,1561,2537.64
31874,-0.9481,1.2605,10.9319,1557,2537.64
31879,0.4537,3.2358,10.149,1575,2537.21
31884,-0.7566,3.3243,10.1849,1557,2537.21
31889,-1.2773,0.1856,10.896,1545,2537.21
31894,-1.5048,-0.9828,12.0835,1555,2537.21
31899,-0.3184,1.9393,10.5093,1599,2537.64
31904,0.5902,3.6775,10.0556,1547,2537.64
31909,-2.4936,2.6935,10.1574,1549,2537.64
31914,-1.0247,-0.4824,11.6562,1545,2537.64
31919,-1.731,-0.3986,11.8022,1547,2537.64
31924,0.0515,2.3092,10.1945,1605,2537.86
31929,0.4884,3.869,10.155,1549,2537.86
31934,-3.2358,1.8591,10.1538,1543,2537.86
31939,-1.1516,-0.7649,12.0584,1544,2537.86
31944,-1.4509,0.6524,11.2958,1543,2537.86
31949,0.3017,2.8144,10.1275,1576,2538.29
31954,0.0563,3.7014,10.2448,1548,2538.29
31959,-2.0566,0.7745,10.4004,1543,2538.29
31964,-1.3216,-0.9768,12.1314,1553,2538.29
31969,-0.7099,1.4916,10.7416,1545,2538.29
31974,0.5243,3.3662,10.0568,1555,2538.72
31979,-1.324,3.0454,10.1514,1541,2538.72
31984,-1.1037,-0.0503,11.2049,1545,2538.72
31989,-1.6472,-0.7913,12.0416,1547,2538.72
31994,-0.1329,2.0973,10.3729,1593,2538.82
31999,0.6201,3.7445,10.0497,1544,2538.82
32004,-2.9652,2.399,10.1011,1555,2538.82
32009,-1.0977,-0.668,11.8429,1553,2538.82
32014,-1.6999,-0.006,11.625,1545,2538.82
32019,0.1856,2.4888,10.1801,1573,2538.5
32024,0.4202,3.9037,10.1801,1559,2538.5
32029,-2.9509,1.4916,10.1921,1541,2538.5
32034,-1.1732,-0.9182,12.0823,1543,2538.5
32039,-1.2354,0.9553,11.0696,1556,2538.5
32044,0.3675,3.0682,10.155,1560,2538.72
32049,-0.3268,3.5099,10.2125,1545,2538.72
32054,-1.6161,0.4477,10.6638,1553,2538.72
32059,-1.397,-1.0092,12.1266,1543,2538.72
32064,-0.4597,1.7454,10.5441,1573,2538.5
32069,0.4561,3.5674,10.1023,1549,2538.5
32074,-1.9956,2.8683,10.1538,1532,2538.5
32079,-1.0403,-0.3196,11.4766,1551,2538.5
32084,-1.6987,-0.5758,11.9447,1557,2538.5
32089,0.0204,2.2015,10.2699,1591,2538.61
32094,0.5411,3.8008,10.0509,1557,2538.61
32099,-3.2346,2.1153,10.1718,1553,2538.61
32104,-1.1468,-0.7338,11.9973,1543,2538.61
32109,-1.5574,0.3831,11.5113,1546,2538.61
32114,0.2394,2.7031,10.0928,1568,2538.5
32119,0.2741,3.7266,10.1873,1544,2538.5
32124,-2.4648,1.069,10.2388,1542,2538.5
32129,-1.2558,-0.9373,12.1877,1555,2538.5
32134,-0.9589,1.3144,10.8589,1551,2538.5
32139,0.4944,3.2477,10.1454,1563,2538.61
32144,-0.7853,3.2693,10.1466,1549,2538.61
32149,-1.2258,0.1185,10.8912,1542,2538.61
32154,-1.5371,-1.0247,12.0368,1545,2538.61
32159,-0.2789,1.9405,10.4555,1567,2538.82
32164,0.6393,3.6571,10.0245,1543,2538.82
32169,-2.5486,2.6504,10.2089,1549,2538.82
32174,-1.0499,-0.4633,11.6646,1541,2538.82
32179,-1.731,-0.3232,11.8082,1544,2538.82
32184,0.0778,2.3092,10.2173,1593,2538.82
32189,0.4884,3.8882,10.1143,1545,2538.82
32194,-3.1963,1.7933,10.1119,1545,2538.82
32199,-1.1396,-0.759,12.0895,1545,2538.82
32204,-1.4317,0.656,11.2946,1545,2538.82
32209,0.2729,2.8383,10.1299,1579,2538.82
32214,-0.0144,3.6033,10.2711,1549,2538.82
32219,-1.9992,0.753,10.471,1543,2538.82
32224,-1.3336,-0.9278,12.1183,1555,2538.82
32229,-0.656,1.5455,10.7344,1547,2538.82
32234,0.5315,3.4321,10.0485,1556,2538.72
32239,-1.4952,3.0358,10.2005,1532,2538.72
32244,-1.069,-0.1448,11.2132,1544,2538.72
32249,-1.6664,-0.7769,11.9926,1547,2538.72
32254,-0.0802,2.1368,10.3226,1589,2538.72
32259,0.6021,3.7721,10.0688,1543,2538.72
32264,-3.0011,2.3691,10.082,1547,2538.72
32269,-1.0774,-0.674,11.8465,1544,2538.72
32274,-1.6712,0.073,11.6753,1533,2538.72
32279,0.1856,2.5271,10.1778,1563,2538.61
32284,0.4082,3.875,10.167,1548,2538.61
32289,-2.8383,1.4006,10.1634,1523,2538.61
32294,-1.1851,-0.9792,12.1111,1529,2538.61
32299,-1.154,0.9996,11.0301,1545,2538.61
32304,0.3723,3.1089,10.1179,1545,2538.39
32309,-0.4477,3.4884,10.2484,1531,2538.39
32314,-1.5311,0.4142,10.7021,1544,2538.39
32319,-1.4293,-1.0151,12.0859,1527,2538.39
32324,-0.4298,1.7262,10.4902,1583,2538.61
32329,0.5279,3.5374,10.07,1543,2538.61
32334,-2.1129,2.8383,10.1502,1529,2538.61
32339,-1.0283,-0.3244,11.4958,1533,2538.61
32344,-1.6963,-0.5638,11.8896,1547,2538.61
32349,0.0395,2.2422,10.252,1564,2538.61
32354,0.4992,3.8283,10.094,1549,2538.61
32359,-3.2322,2.0243,10.1335,1545,2538.61
32364,-1.0906,-0.723,12.0309,1527,2538.61
32369,-1.5467,0.3998,11.4407,1531,2538.61
32374,0.2717,2.6851,10.088,1564,2538.61
32379,0.2203,3.7553,10.2376,1533,2538.61
32384,-2.4612,1.008,10.3011,1528,2538.61
32389,-1.257,-0.972,12.202,1544,2538.61
32394,-0.9397,1.3527,10.8362,1547,2538.61
32399,0.5291,3.2789,10.1454,1558,2538.72
32404,-0.911,3.1987,10.2089,1547,2538.72
32409,-1.2163,0.0862,10.981,1532,2538.72
32414,-1.5969,-0.9278,12.044,1548,2538.72
32419,-0.2502,1.9704,10.5381,1576,2538.93
32424,0.5926,3.711,10.0904,1541,2538.93
32429,-2.6671,2.6145,10.1646,1547,2538.93
32434,-1.0187,-0.559,11.7076,1542,2538.93
32439,-1.7526,-0.3017,11.7687,1533,2538.93
32444,0.0754,2.3583,10.161,1587,2539.25
32449,0.5363,3.8786,10.1514,1547,2539.25
32454,-3.1424,1.6975,10.1586,1546,2539.25
32459,-1.1396,-0.7697,12.1111,1549,2539.25
32464,-1.3731,0.753,11.2037,1545,2539.25
32469,0.3041,2.8623,10.1406,1581,2539.68
32474,-0.1389,3.5626,10.2556,1553,2539.68
32479,-1.8962,0.6895,10.5489,1545,2539.68
32484,-1.3743,-0.9936,12.129,1559,2539.68
32489,-0.6357,1.5694,10.6793,1552,2539.68
32494,0.5171,3.4333,10.0999,1553,2539.68
32499,-1.585,2.976,10.2077,1546,2539.68
32504,-1.0463,-0.17,11.2815,1547,2539.68
32509,-1.658,-0.7171,11.9842,1546,2539.68
32514,-0.0622,2.1823,10.3154,1605,2540.22
32519,0.6333,3.8044,10.1095,1548,2540.22
32524,-3.0598,2.2769,10.0904,1545,2540.22
32529,-1.142,-0.7446,11.9447,1551,2540.22
32534,-1.6556,0.1257,11.5951,1553,2540.22
32539,0.2346,2.6049,10.1442,1579,2540.01
32544,0.3974,3.875,10.2113,1553,2540.01
32549,-2.721,1.3132,10.1538,1533,2540.01
32554,-1.2043,-0.9397,12.1709,1546,2540.01
32559,-1.1157,1.1085,10.9822,1559,2540.01
32564,0.4609,3.1292,10.1359,1572,2540.65
32569,-0.5602,3.4081,10.2089,1553,2540.65
32574,-1.4413,0.3268,10.7967,1559,2540.65
32579,-1.47,-1.0235,12.068,1549,2540.65
32584,-0.3843,1.8483,10.4675,1577,2540.65
32589,0.5387,3.614,10.0497,1563,2540.65
32594,-2.302,2.7892,10.2304,1546,2540.65
32599,-1.0307,-0.3855,11.5688,1555,2540.65
32604,-1.6712,-0.4549,11.8836,1561,2540.65
32609,0.0575,2.2913,10.258,1597,2540.87
32614,0.4848,3.8666,10.1382,1562,2540.87
32619,-3.2585,1.8914,10.1215,1560,2540.87
32624,-1.1564,-0.7649,12.0333,1545,2540.87
32629,-1.5036,0.5567,11.4,1553,2540.87
32634,0.3124,2.7952,10.0808,1587,2540.65
32639,0.1293,3.6595,10.2125,1553,2540.65
32644,-2.2075,0.8248,10.3825,1545,2540.65
32649,-1.3084,-1.0056,12.1458,1559,2540.65
32654,-0.7733,1.4664,10.7416,1547,2540.65
32659,0.5555,3.389,10.0724,1574,2540.22
32664,-1.148,3.1639,10.1778,1555,2540.22
32669,-1.136,-0.0479,11.1151,1544,2540.22
32674,-1.6185,-0.8942,11.9794,1550,2540.22
32679,-0.1796,2.0494,10.4136,1611,2539.79
32684,0.5986,3.808,10.1035,1549,2539.79
32689,-2.879,2.4576,10.1323,1555,2539.79
32694,-1.0307,-0.5578,11.7436,1555,2539.79
32699,-1.7514,-0.1293,11.649,1548,2539.79
32704,0.1137,2.4373,10.1502,1611,2540.33
32709,0.4549,3.9109,10.2089,1561,2540.33
32714,-3.0239,1.5311,10.1466,1546,2540.33
32719,-1.1516,-0.8535,12.1518,1553,2540.33
32724,-1.2977,0.917,11.1115,1558,2540.33
32729,0.3735,3.0143,10.1382,1577,2539.68
32734,-0.3424,3.5003,10.1897,1555,2539.68
32739,-1.6747,0.5171,10.6853,1555,2539.68
32744,-1.3827,-0.972,12.1135,1555,2539.68
32749,-0.5052,1.7059,10.5919,1605,2539.57
32754,0.559,3.4776,10.0317,1546,2539.57
32759,-1.9297,2.9197,10.1658,1547,2539.57
32764,-1.0379,-0.334,11.4072,1553,2539.57
32769,-1.7095,-0.5866,11.9459,1555,2539.57
32774,0.0072,2.2314,10.2376,1608,2539.36
32779,0.6381,3.8882,10.1957,1559,2539.36
32784,-3.2226,2.0949,10.0999,1555,2539.36
32789,-1.1157,-0.7673,11.9722,1548,2539.36
32794,-1.6412,0.316,11.485,1553,2539.36
32799,0.2658,2.6923,10.1538,1568,2539.57
32804,0.3089,3.7709,10.1454,1555,2539.57
32809,-2.5929,1.1097,10.222,1545,2539.57
32814,-1.2462,-1.008,12.1422,1547,2539.57
32819,-1.0008,1.2378,10.8888,1564,2539.57
32824,0.4752,3.2645,10.1107,1579,2539.79
32829,-0.7889,3.3279,10.2149,1553,2539.79
32834,-1.2629,0.1975,10.969,1553,2539.79
32839,-1.5323,-0.978,12.1314,1553,2539.79
32844,-0.2945,1.9201,10.4339,1611,2539.68
32849,0.5255,3.7074,10.1191,1567,2539.68
32854,-2.6205,2.6468,10.2005,1549,2539.68
32859,-1.0415,-0.4908,11.6837,1557,2539.68
32864,-1.6999,-0.3041,11.8381,1553,2539.68
32869,0.0946,2.3451,10.1754,1607,2539.9
32874,0.4956,3.8858,10.1789,1541,2539.9
32879,-3.2477,1.7597,10.1227,1560,2539.9
32884,-1.166,-0.8009,12.1218,1549,2539.9
32889,-1.3958,0.7338,11.2803,1553,2539.9
32894,0.328,2.909,10.167,1587,2539.57
32899,-0.018,3.5638,10.1622,1550,2539.57
32904,-1.98,0.6788,10.3741,1549,2539.57
32909,-1.3707,-1.0127,12.0847,1566,2539.57
32914,-0.6907,1.5502,10.7176,1549,2539.57
32919,0.5411,3.3674,10.0652,1579,2539.36
32924,-1.4377,3.0742,10.2017,1560,2539.36
32929,-1.0942,-0.1413,11.2049,1547,2539.36
32934,-1.6352,-0.8332,11.9902,1554,2539.36
32939,-0.1736,2.0853,10.3286,1611,2539.15
32944,0.6285,3.7709,10.1083,1547,2539.15
32949,-3.0299,2.3906,10.1706,1555,2539.15
32954,-1.0846,-0.6416,11.8274,1549,2539.15
32959,-1.6939,0.0431,11.7064,1543,2539.15
32964,0.1616,2.4768,10.1574,1595,2539.15
32969,0.3543,3.887,10.2687,1549,2539.15
32974,-2.8491,1.4246,10.1227,1532,2539.15
32979,-1.2103,-0.8368,12.1494,1541,2539.15
32984,-1.1863,1.0199,11.0241,1549,2539.15
32989,0.4262,3.0682,10.1562,1555,2539.25
32994,-0.4645,3.4321,10.1598,1533,2539.25
32999,-1.5143,0.3926,10.7703,1541,2539.25
33004,-1.4401,-0.972,12.1051,1543,2539.25
33009,-0.4094,1.7968,10.5285,1584,2539.15
33014,0.5722,3.5171,10.0054,1543,2539.15
33019,-2.1153,2.7857,10.1766,1532,2539.15
33024,-1.075,-0.4357,11.5305,1543,2539.15
33029,-1.6999,-0.4501,11.9507,1543,2539.15
33034,0.0347,2.2721,10.2987,1568,2539.25
33039,0.6093,3.8858,10.1538,1548,2539.25
33044,-3.2358,2.0159,10.0413,1544,2539.25
33049,-1.1061,-0.747,12.0081,1526,2539.25
33054,-1.5455,0.4369,11.4156,1531,2539.25
33059,0.2705,2.8036,10.173,1549,2539.36
33064,0.2322,3.7362,10.2316,1533,2539.36
33069,-2.3739,1.0199,10.2711,1525,2539.36
33074,-1.2629,-1.0056,12.1925,1527,2539.36
33079,-0.8428,1.3838,10.8661,1531,2539.36
33084,0.4764,3.2657,10.0963,1549,2539.47
33089,-0.9433,3.2382,10.2137,1527,2539.47
33094,-1.2151,0.0335,11.0157,1533,2539.47
33099,-1.5514,-0.9421,12.0704,1541,2539.47
33104,-0.243,1.9668,10.4016,1555,2539.25
33109,0.5207,3.7302,10.0652,1529,2539.25
33114,-2.7617,2.6001,10.222,1529,2539.25
33119,-1.0654,-0.4872,11.7388,1527,2539.25
33124,-1.7214,-0.2143,11.7507,1543,2539.25
33129,0.1532,2.3703,10.1143,1589,2539.57
33134,0.4501,3.8666,10.1622,1547,2539.57
33139,-3.1268,1.6221,10.1275,1544,2539.57
33144,-1.2091,-0.7781,12.0895,1544,2539.57
33149,-1.3599,0.8344,11.2108,1541,2539.57
33154,0.3388,2.9652,10.1059,1573,2539.36
33159,-0.1305,3.5279,10.1813,1545,2539.36
33164,-1.8364,0.6093,10.5177,1533,2539.36
33169,-1.397,-1.0594,12.1374,1555,2539.36
33174,-0.595,1.6496,10.6949,1545,2539.36
33179,0.5638,3.4273,10.1083,1549,2539.47
33184,-1.5742,3.0035,10.1742,1547,2539.47
33189,-1.0666,-0.2263,11.2408,1542,2539.47
33194,-1.664,-0.747,12.0177,1547,2539.47
33199,-0.103,2.156,10.2807,1593,2539.79
33204,0.6189,3.8307,10.0676,1545,2539.79
33209,-3.1376,2.2805,10.1191,1555,2539.79
33214,-1.0894,-0.6524,11.9255,1553,2539.79
33219,-1.6723,0.1281,11.6227,1545,2539.79
33224,0.2083,2.5809,10.1442,1567,2540.01
33229,0.3484,3.8762,10.2328,1557,2540.01
33234,-2.7485,1.2929,10.1682,1531,2540.01
33239,-1.1971,-0.8631,12.135,1541,2540.01
33244,-1.075,1.1636,10.9547,1555,2540.01
33249,0.4046,3.1077,10.1251,1549,2539.79
33254,-0.6189,3.3591,10.2208,1545,2539.79
33259,-1.4042,0.2957,10.8098,1547,2539.79
33264,-1.4976,-0.9768,12.1254,1542,2539.79
33269,-0.3448,1.8435,10.4734,1567,2539.9
33274,0.5626,3.5913,10.0233,1547,2539.9
33279,-2.3523,2.715,10.1981,1529,2539.9
33284,-1.0714,-0.4513,11.5951,1548,2539.9
33289,-1.6903,-0.3891,11.971,1555,2539.9
33294,0.0874,2.302,10.2101,1591,2539.9
33299,0.5818,3.8834,10.0892,1558,2539.9
33304,-3.2681,1.8651,10.0197,1545,2539.9
33309,-1.1456,-0.7973,12.0488,1540,2539.9
33314,-1.4473,0.5447,11.2827,1544,2539.9
33319,0.3077,2.8575,10.1538,1573,2539.68
33324,0.0575,3.7062,10.2208,1543,2539.68
33329,-2.1512,0.893,10.3753,1543,2539.68
33334,-1.3156,-1.0379,12.1147,1555,2539.68
33339,-0.7949,1.4844,10.75,1551,2539.68
33344,0.5255,3.3375,10.0916,1565,2539.57
33349,-1.142,3.2022,10.1897,1547,2539.57
33354,-1.142,-0.0742,11.0864,1545,2539.57
33359,-1.6029,-0.8475,12.0787,1544,2539.57
33364,-0.1772,2.0351,10.3932,1607,2539.47
33369,0.5758,3.7649,10.0616,1545,2539.47
33374,-2.885,2.4732,10.1095,1553,2539.47
33379,-1.0738,-0.5734,11.7867,1545,2539.47
33384,-1.7071,-0.0802,11.7436,1546,2539.47
33389,0.1233,2.4505,10.1562,1596,2539.36
33394,0.4058,3.8511,10.1766,1549,2539.36
33399,-3.0347,1.4832,10.1107,1543,2539.36
33404,-1.1768,-0.8188,12.1865,1549,2539.36
33409,-1.2474,0.9373,11.1103,1546,2539.36
33414,0.4393,3.0394,10.1502,1578,2539.36
33419,-0.2813,3.4931,10.1766,1544,2539.36
33424,-1.6939,0.4657,10.5728,1545,2539.36
33429,-1.4186,-1.0654,12.0632,1555,2539.36
33434,-0.5124,1.7514,10.6542,1566,2539.36
33439,0.6033,3.5111,10.0724,1545,2539.36
33444,-1.8567,2.9449,10.1849,1545,2539.36
33449,-1.0439,-0.3136,11.3808,1541,2539.36
33454,-1.6975,-0.6644,11.9435,1545,2539.36
33459,-0.0359,2.1584,10.2891,1595,2539.57
33464,0.6033,3.8559,10.1239,1557,2539.57
33469,-3.2489,2.1177,10.1107,1553,2539.57
33474,-1.0546,-0.6847,11.9674,1544,2539.57
33479,-1.6209,0.2897,11.491,1547,2539.57
33484,0.2526,2.6791,10.0999,1567,2539.68
33489,0.2514,3.7912,10.1646,1547,2539.68
33494,-2.6013,1.1899,10.2831,1542,2539.68
33499,-1.257,-0.9361,12.1398,1546,2539.68
33504,-0.9601,1.2641,10.8793,1559,2539.68
33509,0.4776,3.1975,10.0736,1561,2539.79
33514,-0.7709,3.2525,10.2089,1545,2539.79
33519,-1.2534,0.1784,10.9008,1556,2539.79
33524,-1.5419,-0.9086,12.074,1544,2539.79
33529,-0.2502,1.9489,10.4878,1564,2540.11
33534,0.5758,3.6667,10.0485,1551,2540.11
33539,-2.5498,2.6264,10.1861,1534,2540.11
33544,-1.0199,-0.5076,11.6933,1555,2540.11
33549,-1.7262,-0.2873,11.8345,1555,2540.11
33554,0.1353,2.3451,10.1634,1587,2540.01
33559,0.5351,3.869,10.1466,1556,2540.01
33564,-3.1783,1.7406,10.064,1555,2540.01
33569,-1.1923,-0.8464,12.1183,1541,2540.01
33574,-1.4054,0.6859,11.2827,1543,2540.01
33579,0.3364,2.909,10.1825,1577,2540.11
33584,-0.012,3.6248,10.1514,1545,2540.11
33589,-1.992,0.7207,10.4315,1544,2540.11
33594,-1.3312,-1.0068,12.0883,1557,2540.11
33599,-0.6943,1.5562,10.7428,1544,2540.11
33604,0.498,3.3878,10.1119,1567,2540.22
33609,-1.4138,3.1436,10.2544,1553,2540.22
33614,-1.1073,-0.1221,11.1989,1545,2540.22
33619,-1.6233,-0.8464,11.9961,1555,2540.22
33624,-0.1496,2.0842,10.2651,1568,2540.11
33629,0.5351,3.7493,10.0724,1545,2540.11
33634,-3.0742,2.332,10.1323,1551,2540.11
33639,-1.1349,-0.5997,11.8585,1549,2540.11
33644,-1.6819,0.0479,11.6574,1545,2540.11
33649,0.2071,2.6049,10.1167,1568,2540.22
33654,0.346,3.8762,10.1778,1558,2540.22
33659,-2.8683,1.3683,10.1718,1545,2540.22
33664,-1.1887,-0.9337,12.1434,1548,2540.22
33669,-1.1468,1.0391,11.0265,1555,2540.22
33674,0.4274,3.0885,10.0688,1575,2540.44
33679,-0.4322,3.4764,10.1849,1549,2540.44
33684,-1.5287,0.3747,10.7978,1547,2540.44
33689,-1.4808,-1.0439,12.1242,1555,2540.44
33694,-0.4142,1.7777,10.4854,1599,2540.22
33699,0.6393,3.5853,10.0293,1545,2540.22
33704,-2.162,2.8144,10.1382,1545,2540.22
33709,-1.0092,-0.4262,11.4838,1551,2540.22
33714,-1.725,-0.5423,11.8992,1549,2540.22
33719,0.0192,2.2314,10.2759,1600,2540.22
33724,0.583,3.9049,10.1825,1553,2540.22
33729,-3.237,2.0123,10.0952,1550,2540.22
33734,-1.0618,-0.7434,12.0213,1540,2540.22
33739,-1.579,0.4561,11.3569,1555,2540.22
33744,0.2777,2.7653,10.1406,1568,2540.33
33749,0.1425,3.729,10.1957,1544,2540.33
33754,-2.3272,1.0092,10.3621,1542,2540.33
33759,-1.2785,-0.984,12.1613,1545,2540.33
33764,-0.832,1.4078,10.7907,1560,2540.33
33769,0.4525,3.2777,10.0892,1563,2540.54
33774,-1.0798,3.1819,10.2304,1549,2540.54
33779,-1.1576,-0.0156,11.0792,1554,2540.54
33784,-1.5431,-0.8595,12.0189,1551,2540.54
33789,-0.1748,2.0303,10.4267,1607,2540.65
33794,0.5974,3.7314,10.0844,1549,2540.65
33799,-2.7892,2.4541,10.155,1544,2540.65
33804,-1.0499,-0.6357,11.8262,1547,2540.65
33809,-1.7262,-0.1353,11.7268,1547,2540.65
33814,0.1688,2.4936,10.1957,1581,2540.76
33819,0.4621,3.8954,10.1263,1560,2540.76
33824,-3.0538,1.5933,10.0473,1554,2540.76
33829,-1.1935,-0.8823,12.1709,1547,2540.76
33834,-1.2893,0.8404,11.1546,1545,2540.76
33839,0.4106,3.0275,10.155,1583,2541.08
33844,-0.1784,3.5482,10.222,1549,2541.08
33849,-1.7621,0.5878,10.5788,1543,2541.08
33854,-1.3779,-1.069,12.0955,1561,2541.08
33859,-0.4956,1.658,10.6051,1545,2541.08
33864,0.5148,3.4943,10.0712,1567,2540.97
33869,-1.7717,2.9832,10.1885,1554,2540.97
33874,-1.0678,-0.2514,11.309,1545,2540.97
33879,-1.634,-0.6931,11.9327,1554,2540.97
33884,-0.0455,2.1691,10.2232,1605,2541.3
33889,0.5638,3.8427,10.137,1545,2541.3
33894,-3.1807,2.1476,10.0808,1558,2541.3
33899,-1.0894,-0.6776,12.0452,1557,2541.3
33904,-1.6161,0.2574,11.5329,1553,2541.3
33909,0.2705,2.6863,10.1658,1576,2541.51
33914,0.2586,3.7433,10.1107,1559,2541.51
33919,-2.569,1.1001,10.2232,1543,2541.51
33924,-1.2905,-0.9685,12.1111,1547,2541.51
33929,-0.996,1.3048,10.9116,1561,2541.51
33934,0.5004,3.1963,10.1299,1565,2541.51
33939,-0.753,3.2801,10.2161,1549,2541.51
33944,-1.2869,0.1245,10.8709,1559,2541.51
33949,-1.5407,-0.9708,12.062,1546,2541.51
33954,-0.2717,1.9309,10.4435,1612,2541.51
33959,0.6345,3.6859,10.0473,1557,2541.51
33964,-2.5869,2.6995,10.167,1545,2541.51
33969,-1.0235,-0.4812,11.6334,1555,2541.51
33974,-1.7358,-0.3424,11.8214,1557,2541.51
33979,0.0634,2.3248,10.1801,1597,2541.62
33984,0.5459,3.9133,10.1466,1561,2541.62
33989,-3.1819,1.7597,10.0987,1559,2541.62
33994,-1.1612,-0.8009,12.0596,1543,2541.62
33999,-1.3898,0.741,11.2156,1543,2541.62
34004,0.3352,2.8695,10.1789,1583,2541.62
34009,-0.0742,3.5865,10.2197,1553,2541.62
34014,-1.913,0.7793,10.5189,1546,2541.62
34019,-1.3515,-0.9541,12.1374,1561,2541.62
34024,-0.6345,1.5646,10.7117,1545,2541.62
34029,0.5399,3.3914,10.0245,1575,2541.94
34034,-1.5191,2.9987,10.2604,1555,2541.94
34039,-1.1241,-0.1784,11.2899,1543,2541.94
34044,-1.6723,-0.7075,12.0357,1554,2541.94
34049,-0.1329,2.1093,10.313,1575,2542.16
34054,0.6045,3.8391,10.0892,1547,2542.16
34059,-3.0897,2.2733,10.094,1556,2542.16
34064,-1.0906,-0.6943,11.9112,1549,2542.16
34069,-1.6891,0.0802,11.5867,1529,2542.16
34074,0.2634,2.6372,10.1873,1576,2542.05
34079,0.3795,3.8511,10.1789,1560,2542.05
34084,-2.7773,1.3204,10.1394,1548,2542.05
34089,-1.2163,-0.9313,12.1338,1553,2542.05
34094,-1.0894,1.1384,10.9559,1557,2542.05
34099,0.4357,3.1556,10.1011,1577,2541.94
34104,-0.5124,3.4297,10.1718,1551,2541.94
34109,-1.4832,0.3029,10.7859,1556,2541.94
34114,-1.4808,-1.0415,12.1254,1554,2541.94
34119,-0.3531,1.8352,10.4938,1577,2541.83
34124,0.5387,3.6164,10.0521,1551,2541.83
34129,-2.3308,2.7845,10.2568,1547,2541.83
34134,-0.9924,-0.3759,11.582,1555,2541.83
34139,-1.6915,-0.4549,11.8549,1555,2541.83
34144,0.0539,2.2613,10.1502,1606,2541.94
34149,0.5231,3.8451,10.1849,1557,2541.94
34154,-3.2717,1.8675,10.1131,1549,2541.94
34159,-1.1229,-0.7219,12.0799,1545,2541.94
34164,-1.4844,0.5267,11.3234,1553,2541.94
34169,0.3807,2.8647,10.1203,1577,2541.62
34174,0.103,3.6559,10.1598,1545,2541.62
34179,-2.1691,0.8248,10.3322,1542,2541.62
34184,-1.2797,-1.0319,12.1578,1555,2541.62
34189,-0.7242,1.494,10.7775,1559,2541.62
34194,0.5626,3.3722,10.0856,1576,2541.73
34199,-1.2306,3.1472,10.2077,1553,2541.73
34204,-1.0666,-0.1006,11.1091,1563,2541.73
34209,-1.6532,-0.8547,12.0045,1553,2541.73
34214,-0.1413,2.0758,10.325,1573,2541.51
34219,0.6105,3.796,10.1275,1547,2541.51
34224,-2.9963,2.4277,10.2137,1549,2541.51
34229,-1.0475,-0.6536,11.8118,1545,2541.51
34234,-1.6915,-0.0539,11.6478,1548,2541.51
34239,0.1389,2.4493,10.1694,1599,2542.16
34244,0.4262,3.9061,10.2125,1555,2542.16
34249,-2.9473,1.5119,10.1478,1549,2542.16
34254,-1.2127,-0.8356,12.1326,1554,2542.16
34259,-1.2186,0.9984,11.0983,1545,2542.16
34264,0.3843,3.0203,10.1825,1581,2541.94
34269,-0.4058,3.4417,10.1909,1554,2541.94
34274,-1.567,0.3938,10.726,1545,2541.94
34279,-1.4461,-0.984,12.0919,1555,2541.94
34284,-0.4118,1.816,10.5405,1549,2541.94
34289,0.5626,3.5003,9.9671,1566,2542.16
34294,-2.083,2.8347,10.222,1548,2542.16
34299,-1.0439,-0.3807,11.4874,1541,2542.16
34304,-1.7047,-0.5303,11.9602,1553,2542.16
34309,0.0108,2.2589,10.2388,1605,2542.27
34314,0.5866,3.8618,10.1143,1553,2542.27
34319,-3.1963,2.0004,9.9898,1559,2542.27
34324,-1.1396,-0.7578,12.0057,1544,2542.27
34329,-1.5921,0.4298,11.4227,1549,2542.27
34334,0.3077,2.8216,10.1957,1575,2542.48
34339,0.2107,3.7589,10.2352,1551,2542.48
34344,-2.3691,1.0104,10.2843,1533,2542.48
34349,-1.3096,-1.0319,12.0596,1542,2542.48
34354,-0.8595,1.3479,10.8026,1557,2542.48
34359,0.4681,3.2872,10.1083,1567,2542.48
34364,-1.0511,3.2406,10.2568,1551,2542.48
34369,-1.221,0.0347,11.0397,1556,2542.48
34374,-1.5778,-0.9313,12.062,1551,2542.48
34379,-0.2131,2.0183,10.3789,1575,2542.37
34384,0.5926,3.7362,10.0712,1560,2542.37
34389,-2.7976,2.5426,10.1801,1545,2542.37
34394,-1.0774,-0.5435,11.7651,1559,2542.37
34399,-1.7083,-0.1604,11.7256,1559,2542.37
34404,0.146,2.4493,10.1837,1607,2542.16
34409,0.4741,3.863,10.2053,1563,2542.16
34414,-3.0873,1.5598,10.1406,1559,2542.16
34419,-1.1899,-0.82,12.1398,1545,3830.19
34424,-1.2749,0.9266,11.1211,1547,3830.19
34429,0.4417,3.0574,10.1586,1583,7559.53
34434,-0.1832,3.5087,10.1945,1547,7559.53
34439,-1.7609,0.5171,10.5884,1548,7559.53
34444,-1.4557,-1.0367,12.1194,1561,7559.53
34449,-0.5471,1.725,10.6458,1542,7559.53
34454,0.6321,3.565,10.07,1567,2541.83
34459,-1.8555,2.8958,10.155,1553,2541.83
34464,-1.008,-0.3304,11.3114,1547,2541.83
34469,-1.6903,-0.6847,11.9315,1555,2541.83
34474,-0.0347,2.1823,10.2879,1595,2541.94
34479,0.6093,3.8954,10.2077,1546,2541.94
34484,-3.2166,2.1009,10.1203,1559,2541.94
34489,-1.0953,-0.7015,11.9602,1549,2541.94
34494,-1.64,0.249,11.4563,1547,2541.94
34499,0.2083,2.5869,10.0999,1610,2541.94
34504,0.2358,3.7996,10.2915,1561,2541.94
34509,-2.5474,1.1672,10.3082,1544,2541.94
34514,-1.2665,-0.9278,12.1625,1553,2541.94
34519,-0.9601,1.2617,10.8769,1561,2541.94
34524,0.5231,3.1867,10.1215,1573,2542.37
34529,-0.8583,3.2597,10.2244,1551,2542.37
34534,-1.2989,0.1496,10.9774,1559,2542.37
34539,-1.5622,-0.8894,12.0919,1549,2542.37
34544,-0.2286,1.98,10.4818,1611,2542.16
34549,0.6069,3.6679,10.0616,1553,2542.16
34554,-2.6109,2.6145,10.1119,1547,2542.16
34559,-1.0965,-0.5674,11.6837,1553,2542.16
34564,-1.7394,-0.2502,11.8561,1561,2542.16
34569,0.1496,2.4038,10.1933,1607,2542.16
34574,0.5339,3.9097,10.1909,1561,2542.16
34579,-3.122,1.652,10.1203,1557,2542.16
34584,-1.1648,-0.8978,12.1362,1547,2542.16
34589,-1.4042,0.7685,11.1773,1551,2542.16
34594,0.3747,2.964,10.1825,1588,2541.73
34599,-0.0862,3.5853,10.1694,1549,2541.73
34604,-1.9321,0.7087,10.5165,1545,2541.73
34609,-1.3228,-1.0534,12.1087,1555,2541.73
34614,-0.6105,1.5981,10.6638,1549,2541.73
34619,0.5183,3.4393,10.1287,1573,2541.62
34624,-1.6101,3.0682,10.2077,1553,2541.62
34629,-1.0511,-0.1975,11.2264,1547,2541.62
34634,-1.6544,-0.7482,12.0093,1557,2541.62
34639,-0.0263,2.1069,10.3166,1609,2542.27
34644,0.6189,3.7769,10.1095,1547,2542.27
34649,-3.1568,2.2589,10.1526,1555,2542.27
34654,-1.0858,-0.6512,11.9231,1549,2542.27
34659,-1.6269,0.2083,11.5544,1551,2542.27
34664,0.2155,2.5486,10.1311,1611,2541.3
34669,0.322,3.8391,10.1454,1557,2541.3
34674,-2.7294,1.2689,10.2065,1547,2541.3
34679,-1.2486,-0.8859,12.1817,1553,2541.3
34684,-1.0594,1.2354,10.9726,1557,2541.3
34689,0.4741,3.1891,10.088,1581,2541.83
34694,-0.6033,3.3243,10.2376,1553,2541.83
34699,-1.3707,0.231,10.8062,1544,2541.83
34704,-1.5311,-0.9924,12.1147,1557,2541.83
34709,-0.3735,1.8914,10.5321,1577,2541.19
34714,0.6668,3.6308,10.1023,1546,2541.19
34719,-2.3834,2.7294,10.1933,1549,2541.19
34724,-0.9876,-0.5076,11.5855,1549,2541.19
34729,-1.8004,-0.4274,11.8633,1555,2541.19
34734,0.0347,2.3308,10.3106,1607,2541.51
34739,0.5459,3.9433,10.2017,1559,2541.51
34744,-3.225,1.8723,10.082,1547,2541.51
34749,-1.1325,-0.7374,12.1099,1547,2541.51
34754,-1.5143,0.571,11.3318,1553,2541.51
34759,0.3196,2.7426,10.1227,1573,2541.62
34764,0.0251,3.6631,10.2663,1548,2541.62
34769,-2.0913,0.8859,10.4603,1543,2541.62
34774,-1.3276,-0.9469,12.129,1547,2541.62
34779,-0.6871,1.5048,10.7081,1563,2541.62
34784,0.516,3.3303,10.1023,1576,2541.83
34789,-1.3803,3.0478,10.2328,1548,2541.83
34794,-1.1528,-0.1053,11.1785,1553,2541.83
34799,-1.5909,-0.7566,11.9794,1553,2541.83
34804,-0.0766,2.1284,10.3896,1599,2541.4
34809,0.644,3.7733,10.0796,1555,2541.4
34814,-2.9808,2.3978,10.0832,1549,2541.4
34819,-1.1001,-0.6716,11.8022,1556,2541.4
34824,-1.6616,0.0132,11.6681,1549,2541.4
34829,0.2538,2.5438,10.1227,1580,2542.48
34834,0.4693,3.8942,10.1969,1563,2542.48
34839,-2.8683,1.4078,10.1083,1555,2542.48
34844,-1.2198,-0.9613,12.1458,1547,2542.48
34849,-1.1648,0.9936,11.0552,1547,2542.48
34854,0.4669,3.1388,10.0928,1580,2542.05
34859,-0.3771,3.5195,10.2041,1555,2542.05
34864,-1.5395,0.4166,10.7284,1549,2542.05
34869,-1.4365,-1.0738,12.1159,1561,2542.05
34874,-0.4106,1.7945,10.5668,1553,2542.05
34879,0.5746,3.5159,10.1155,1568,2542.16
34884,-2.1668,2.8623,10.2544,1553,2542.16
34889,-0.9936,-0.3747,11.4754,1547,2542.16
34894,-1.7166,-0.504,11.8896,1555,2542.16
34899,0.0395,2.2541,10.2292,1599,2542.05
34904,0.5231,3.8595,10.2077,1555,2542.05
34909,-3.2896,2.0004,10.1335,1559,2542.05
34914,-1.1265,-0.7266,12.0644,1557,2542.05
34919,-1.5107,0.4824,11.4096,1555,2542.05
34924,0.3184,2.7497,10.0952,1583,2542.05
34929,0.1808,3.7062,10.1682,1557,2542.05
34934,-2.3451,0.9697,10.3418,1545,2542.05
34939,-1.2929,-0.9553,12.1925,1551,2542.05
34944,-0.8116,1.4461,10.8457,1563,2542.05
34949,0.5387,3.3112,10.1179,1564,2542.05
34954,-1.0187,3.1568,10.2472,1556,2542.05
34959,-1.1492,0.0048,11.0421,1557,2542.05
34964,-1.6568,-0.972,11.9722,1549,2542.05
34969,-0.2011,2.0111,10.416,1615,2541.94
34974,0.6596,3.7685,10.1203,1561,2541.94
34979,-2.8503,2.5199,10.1742,1547,2541.94
34984,-1.0379,-0.6081,11.7855,1557,2541.94
34989,-1.7406,-0.1221,11.7436,1563,2541.94
34994,0.1281,2.4122,10.167,1599,2542.05
34999,0.4752,3.9516,10.167,1563,2542.05
35004,-3.0394,1.6017,10.1191,1561,2542.05
35009,-1.2127,-0.8356,12.0871,1547,2542.05
35014,-1.2653,0.8787,11.1414,1549,2542.05
35019,0.3699,2.9664,10.1466,1588,2541.94
35024,-0.3148,3.535,10.2448,1555,2541.94
35029,-1.6568,0.5794,10.6303,1547,2541.94
35034,-1.3743,-0.9589,12.1398,1563,2541.94
35039,-0.498,1.6963,10.5477,1553,2541.94
35044,0.565,3.4512,10.0449,1575,2541.83
35049,-1.9213,2.8695,10.1706,1555,2541.83
35054,-1.0834,-0.3388,11.461,1547,2541.83
35059,-1.6855,-0.5471,11.9447,1557,2541.83
35064,0.0168,2.217,10.2412,1589,2541.51
35069,0.577,3.8726,10.0473,1555,2541.51
35074,-3.1783,2.1129,10.088,1558,2541.51
35079,-1.1253,-0.7865,11.9351,1560,2541.51
35084,-1.5838,0.3256,11.4874,1551,2541.51
35089,0.2861,2.7198,10.143,1613,2542.37
35094,0.2825,3.814,10.1957,1563,2542.37
35099,-2.5187,1.0858,10.2101,1547,2542.37
35104,-1.2546,-0.9708,12.1242,1555,2542.37
35109,-0.9792,1.2689,10.8433,1566,2542.37
35114,0.492,3.2729,10.1406,1583,2541.94
35119,-0.8344,3.2872,10.1861,1557,2541.94
35124,-1.2605,0.1113,10.9846,1563,2541.94
35129,-1.5586,-1.0032,12.0596,1559,2541.94
35134,-0.249,1.9453,10.4291,1615,2541.73
35139,0.5698,3.6655,10.0592,1553,2541.73
35144,-2.6169,2.6887,10.1658,1553,2541.73
35149,-1.0702,-0.5124,11.6693,1556,2541.73
35154,-1.6975,-0.2909,11.7567,1557,2541.73
35159,0.0658,2.3715,10.1909,1611,2541.62
35164,0.4609,3.8978,10.2041,1563,2541.62
35169,-3.1735,1.67,10.1682,1557,2541.62
35174,-1.1636,-0.7865,12.1111,1545,2541.62
35179,-1.3539,0.7685,11.2312,1558,2541.62
35184,0.3831,2.9628,10.1311,1588,2541.51
35189,-0.0215,3.5314,10.1778,1555,2541.51
35194,-1.8938,0.6285,10.4926,1547,2541.51
35199,-1.403,-1.0223,12.1745,1555,2541.51
35204,-0.6309,1.6676,10.6566,1561,2541.51
35209,0.5974,3.4632,10.0975,1584,2541.51
35214,-1.5921,2.9712,10.1981,1555,2541.51
35219,-1.0822,-0.2514,11.2384,1549,2541.51
35224,-1.7154,-0.7649,11.9914,1560,2541.51
35229,-0.085,2.1679,10.3406,1609,2541.62
35234,0.6297,3.8391,10.1478,1553,2541.62
35239,-3.1196,2.2553,10.0832,1555,2541.62
35244,-1.1025,-0.68,11.8405,1549,2541.62
35249,-1.6723,0.0778,11.5293,1555,2541.62
35254,0.1915,2.5402,10.1478,1612,2541.62
35259,0.3292,3.8738,10.2699,1556,2541.62
35264,-2.7378,1.2785,10.1957,1556,2541.62
35269,-1.1971,-0.9074,12.1338,1551,2541.62
35274,-1.0451,1.1384,10.9619,1549,2541.62
35279,0.4298,3.1627,10.1035,1589,2541.62
35284,-0.6524,3.3327,10.2185,1557,2541.62
35289,-1.4186,0.2646,10.7895,1553,2541.62
35294,-1.4605,-0.9421,12.141,1563,2541.62
35299,-0.3017,1.913,10.4758,1556,2541.62
35304,0.5543,3.5602,10.1047,1579,2541.83
35309,-2.3882,2.7126,10.1742,1545,2541.83
35314,-1.0319,-0.5148,11.5748,1553,2541.83
35319,-1.7142,-0.3124,11.8681,1553,2541.83
35324,0.1161,2.3571,10.2316,1610,2542.27
35329,0.5878,3.8511,10.149,1555,2542.27
35334,-3.2633,1.8124,10.0916,1559,2542.27
35339,-1.1684,-0.8452,12.1075,1555,2542.27
35344,-1.421,0.6069,11.303,1556,2542.27
35349,0.3639,2.909,10.155,1578,2542.05
35354,0.0587,3.7206,10.1861,1553,2542.05
35359,-2.1057,0.808,10.4028,1544,2542.05
35364,-1.3036,-1.063,12.1542,1547,2542.05
35369,-0.7219,1.47,10.7595,1563,2542.05
35374,0.5327,3.4046,10.1275,1579,2541.83
35379,-1.3108,3.0777,10.1981,1555,2541.83
35384,-1.0965,-0.1149,11.1785,1561,2541.83
35389,-1.6149,-0.8667,12.0105,1545,2541.83
35394,-0.1185,2.1033,10.3262,1587,2541.4
35399,0.5339,3.7769,10.076,1560,2541.4
35404,-3.0179,2.4074,10.1466,1553,2541.4
35409,-1.0953,-0.6548,11.8345,1557,2541.4
35414,-1.6484,0.018,11.655,1563,2541.4
35419,0.1724,2.5163,10.0987,1607,2541.4
35424,0.3675,3.8571,10.1945,1562,2541.4
35429,-2.9209,1.4102,10.1885,1563,2541.4
35434,-1.1827,-0.8296,12.1829,1549,2541.4
35439,-1.1492,1.0104,11.0504,1553,2541.4
35444,0.4621,3.073,10.1227,1593,2541.3
35449,-0.401,3.4297,10.1789,1545,2541.3
35454,-1.567,0.3615,10.6997,1553,2541.3
35459,-1.4808,-1.0116,12.1314,1563,2541.3
35464,-0.4046,1.8723,10.5955,1548,2541.3
35469,0.6201,3.5949,10.1311,1577,2541.19
35474,-2.1237,2.7653,10.173,1559,2541.19
35479,-1.0187,-0.4202,11.5137,1544,2541.19
35484,-1.7298,-0.5662,11.9303,1549,2541.19
35489,0.0263,2.2218,10.2352,1563,2541.51
35494,0.6273,3.8738,10.143,1530,2541.51
35499,-3.231,1.9884,10.1155,1545,2541.51
35504,-1.1037,-0.7769,12.0033,1532,2541.51
35509,-1.5443,0.4334,11.388,1532,2541.51
35514,0.2334,2.7019,10.0844,1561,2541.08
35519,0.1628,3.7649,10.3082,1545,2541.08
35524,-2.3379,0.9673,10.3322,1519,2541.08
35529,-1.2438,-0.9732,12.147,1527,2541.08
35534,-0.844,1.3779,10.7895,1544,2541.08
35539,0.5171,3.2968,10.0808,1533,2542.16
35544,-1.0582,3.2154,10.2065,1532,2542.16
35549,-1.2318,0.0108,11.0421,1531,2542.16
35554,-1.6065,-0.8643,12.0943,1529,2542.16
35559,-0.1688,2.0542,10.3884,1557,2541.94
35564,0.5986,3.6691,10.058,1533,2541.94
35569,-2.8096,2.4816,10.1227,1529,2541.94
35574,-1.0977,-0.6201,11.7699,1532,2541.94
35579,-1.7262,-0.1077,11.71,1547,2541.94
35584,0.2023,2.4505,10.1945,1563,2541.94
35589,0.4788,3.9025,10.1466,1547,2541.94
35594,-3.073,1.5479,10.1359,1543,2541.94
35599,-1.2234,-0.9134,12.1877,1526,2541.94
35604,-1.3036,0.8942,11.0995,1533,2541.94
35609,0.3819,3.0466,10.1275,1561,2541.83
35614,-0.1688,3.5219,10.2017,1531,2541.83
35619,-1.6879,0.4836,10.5417,1529,2541.83
35624,-1.4257,-1.0726,12.0943,1545,2541.83
35629,-0.5231,1.6867,10.6638,1547,2541.83
35634,0.5698,3.5314,10.1143,1549,2541.73
35639,-1.889,2.9485,10.1299,1542,2541.73
35644,-1.0259,-0.2634,11.3629,1529,2541.73
35649,-1.7394,-0.6823,11.9171,1541,2541.73
35654,-0.018,2.1811,10.2663,1583,2541.73
35659,0.5459,3.802,10.0748,1530,2541.73
35664,-3.2322,2.1811,10.149,1543,2541.73
35669,-1.0606,-0.6752,11.9938,1528,2541.73
35674,-1.5909,0.2873,11.5664,1541,2541.73
35679,0.2334,2.6671,10.0892,1575,2542.37
35684,0.2538,3.784,10.1311,1541,2542.37
35689,-2.5343,1.0822,10.2651,1531,2542.37
35694,-1.2761,-0.929,12.1566,1543,2542.37
35699,-0.8906,1.2582,10.8421,1541,2542.37
35704,0.516,3.2202,10.0736,1567,2542.16
35709,-0.8475,3.2382,10.2005,1543,2542.16
35714,-1.2605,0.1628,10.8876,1533,2542.16
35719,-1.5897,-0.9373,12.0464,1545,2542.16
35724,-0.2466,2.0004,10.4938,1553,2542.48
35729,0.6093,3.6715,10.1011,1530,2542.48
35734,-2.6217,2.5905,10.1586,1527,2542.48
35739,-1.093,-0.5662,11.6646,1532,2542.48
35744,-1.7178,-0.2909,11.7998,1531,2542.48
35749,0.085,2.3942,10.2292,1572,2542.7
35754,0.5531,3.9456,10.1574,1544,2542.7
35759,-3.1771,1.7358,10.1263,1527,2542.7
35764,-1.1277,-0.8487,12.0416,1523,2542.7
35769,-1.3599,0.7254,11.2216,1544,2542.7
35774,0.3328,2.8934,10.1574,1559,2542.59
35779,-0.1113,3.5662,10.2424,1543,2542.59
35784,-1.8591,0.6704,10.5381,1532,2542.59
35789,-1.336,-0.9625,12.1422,1553,2542.59
35794,-0.565,1.6436,10.6362,1545,2542.59
35799,0.5375,3.4309,10.0724,1559,2542.7
35804,-1.6676,3.0071,10.2244,1544,2542.7
35809,-1.0726,-0.2215,11.315,1548,2542.7
35814,-1.6975,-0.7159,11.9794,1545,2542.7
35819,-0.0407,2.1727,10.3286,1600,2542.7
35824,0.6021,3.8391,10.0999,1547,2542.7
35829,-3.1328,2.2505,10.082,1542,2542.7
35834,-1.166,-0.7039,11.9471,1532,2542.7
35839,-1.652,0.2215,11.6047,1547,2542.7
35844,0.2801,2.6312,10.1502,1597,2542.91
35849,0.34,3.8499,10.1682,1557,2542.91
35854,-2.6935,1.1815,10.1897,1553,2542.91
35859,-1.2282,-0.9433,12.1949,1545,2542.91
35864,-1.0582,1.1947,10.9343,1545,2542.91
35869,0.5267,3.2441,10.0748,1581,2543.02
35874,-0.6596,3.3627,10.1706,1549,2543.02
35879,-1.3898,0.2215,10.8637,1543,2543.02
35884,-1.5095,-1.0403,12.1123,1559,2543.02
35889,-0.31,1.8902,10.4291,1549,2543.02
35894,0.5638,3.6392,10.1119,1565,2543.02
35899,-2.5031,2.6803,10.2328,1545,2543.02
35904,-1.0343,-0.4621,11.6382,1545,2543.02
35909,-1.719,-0.3651,11.8142,1549,2543.02
35914,0.1006,2.3415,10.2292,1605,2543.02
35919,0.4932,3.8738,10.1514,1547,2543.02
35924,-3.2034,1.8232,10.137,1561,2543.02
35929,-1.1145,-0.7805,12.0811,1549,2543.02
35934,-1.4078,0.6931,11.2946,1547,2543.02
35939,0.3484,2.8623,10.1023,1577,2542.8
35944,0.0144,3.632,10.2113,1551,2542.8
35949,-2.0243,0.6931,10.4339,1531,2542.8
35954,-1.3599,-0.9936,12.1901,1545,2542.8
35959,-0.6644,1.6532,10.6686,1561,2542.8
35964,0.5938,3.4488,10.0461,1574,2542.59
35969,-1.47,3.0263,10.1813,1547,2542.59
35974,-1.0499,-0.1688,11.2061,1557,2542.59
35979,-1.6951,-0.8212,12.0165,1558,2542.59
35984,-0.097,2.1201,10.4303,1575,2542.7
35989,0.6357,3.8331,10.1131,1561,2542.7
35994,-3.0646,2.3894,10.1311,1545,2542.7
35999,-1.1097,-0.7027,11.8681,1553,2542.7
36004,-1.6975,0.067,11.5927,1559,2542.7
36009,0.182,2.5247,10.1921,1599,2542.8
36014,0.3711,3.8583,10.2065,1560,2542.8
36019,-2.8491,1.3515,10.1562,1561,2542.8
36024,-1.2043,-0.893,12.1314,1544,2542.8
36029,-1.0654,1.1085,10.987,1547,2542.8
36034,0.4238,3.1771,10.1394,1583,2543.13
36039,-0.571,3.3794,10.2053,1549,2543.13
36044,-1.4581,0.2981,10.8158,1547,2543.13
36049,-1.4952,-0.9864,12.068,1560,2543.13
36054,-0.3567,1.8028,10.4603,1543,2543.13
36059,0.6297,3.5913,10.0545,1565,2543.13
36064,-2.3439,2.7126,10.1849,1557,2543.13
36069,-1.1049,-0.4621,11.5748,1545,2543.13
36074,-1.7454,-0.419,11.8705,1555,2543.13
36079,0.0826,2.3379,10.2436,1611,2543.56
36084,0.5495,3.8379,10.1251,1545,2543.56
36089,-3.1867,1.8878,10.1035,1559,2543.56
36094,-1.1504,-0.8547,12.0093,1567,2543.56
36099,-1.5095,0.5722,11.3641,1547,2543.56
36104,0.3831,2.7845,10.155,1607,2542.91
36109,0.1365,3.7529,10.2005,1560,2542.91
36114,-3.0275,1.5526,10.0868,1545,2542.91
36119,-1.2198,-0.8739,12.1206,1548,2542.91
36124,-0.7518,1.4461,10.7188,1559,2542.91
36129,0.4405,3.0335,10.1634,1573,2542.59
36134,-0.2358,3.5865,10.2065,1553,2542.59
36139,-1.7502,0.5183,10.6063,1555,2542.59
36144,-1.4186,-1.0582,12.1494,1549,2542.59
36149,-0.5207,1.6723,10.6147,1599,2542.59
36154,0.5495,3.5051,10.0928,1553,2542.59
36159,-1.8818,2.9712,10.2208,1541,2542.59
36164,-1.0523,-0.2574,11.3928,1555,2542.59
36169,-1.6712,-0.6895,11.9387,1561,2542.59
36174,0.0012,2.1644,10.2472,1607,2542.16
36179,0.5794,3.7948,10.1335,1556,2542.16
36184,-3.2621,2.0949,10.076,1557,2542.16
36189,-1.1073,-0.7063,11.9135,1543,2542.16
36194,-1.5969,0.3124,11.4455,1547,2542.16
36199,0.2514,2.6432,10.1299,1579,2542.05
36204,0.2466,3.7924,10.2089,1549,2542.05
36209,-2.5941,1.1097,10.2651,1542,2542.05
36214,-1.2689,-0.9385,12.1326,1559,2542.05
36219,-0.9409,1.2677,10.9116,1548,2542.05
36224,0.5016,3.2453,10.0987,1574,2541.94
36229,-0.7997,3.2465,10.2029,1557,2541.94
36234,-1.2713,0.152,10.9499,1547,2541.94
36239,-1.5706,-0.9254,12.074,1553,2541.94
36244,-0.2729,2.0087,10.4399,1609,2541.83
36249,0.6105,3.6655,10.1047,1549,2541.83
36254,-2.6181,2.6013,10.1873,1559,2541.83
36259,-1.0367,-0.5854,11.6358,1549,2541.83
36264,-1.7801,-0.3077,11.7795,1549,2541.83
36269,0.1532,2.326,10.1766,1607,2541.83
36274,0.5626,3.9385,10.2005,1559,2541.83
36279,-3.2226,1.7454,10.1119,1547,2541.83
36284,-1.16,-0.8056,12.1494,1553,2541.83
36289,-1.4042,0.7482,11.2085,1559,2541.83
36294,0.3807,2.903,10.1107,1583,2541.73
36299,-0.1245,3.6188,10.2065,1555,2541.73
36304,-1.9465,0.6847,10.483,1555,2541.73
36309,-1.3815,-1.0139,12.0907,1557,2541.73
36314,-0.5974,1.6005,10.6793,1611,2541.73
36319,0.5279,3.4441,10.0832,1547,2541.73
36324,-1.6269,3.0287,10.2197,1547,2541.73
36329,-1.1001,-0.1903,11.3066,1553,2541.73
36334,-1.6807,-0.7039,11.9519,1555,2541.73
36339,-0.0263,2.1368,10.2699,1599,2541.51
36344,0.5842,3.796,10.0604,1555,2541.51
36349,-3.0813,2.2877,10.1359,1549,2541.51
36354,-1.1145,-0.6967,11.9028,1549,2541.51
36359,-1.664,0.1508,11.552,1554,2541.51
36364,0.2502,2.6444,10.1813,1579,2541.4
36369,0.3292,3.8858,10.1921,1553,2541.4
36374,-2.709,1.2989,10.1442,1545,2541.4
36379,-1.2378,-0.9577,12.1613,1545,2541.4
36384,-1.1444,1.1504,11.0097,1561,2541.4
36389,0.4609,3.1879,10.2017,1583,2541.19
36394,-0.6416,3.3866,10.1933,1551,2541.19
36399,-1.4389,0.267,10.7847,1547,2541.19
36404,-1.4952,-1.0391,12.1446,1553,2541.19
36409,-0.3184,1.8878,10.5393,1607,2541.4
36414,0.5459,3.6009,10.0461,1555,2541.4
36419,-2.3679,2.7641,10.24,1548,2541.4
36424,-1.0307,-0.425,11.5915,1545,2541.4
36429,-1.7023,-0.4669,11.8309,1548,2541.4
36434,0.0946,2.2913,10.2388,1587,2541.3
36439,0.5375,3.893,10.173,1557,2541.3
36444,-3.2214,1.8711,10.1095,1551,2541.3
36449,-1.1337,-0.7458,12.0297,1547,2541.3
36454,-1.4281,0.6309,11.3425,1549,2541.3
36459,0.3196,2.8156,10.1095,1578,2541.08
36464,0.0706,3.65,10.2197,1549,2541.08
36469,-2.1249,0.8248,10.3777,1547,2541.08
36474,-1.3779,-0.9577,12.147,1560,2541.08
36479,-0.7362,1.5287,10.7571,1549,2541.08
36484,0.5914,3.4022,10.094,1562,2541.08
36489,-1.2139,3.1065,10.1969,1549,2541.08
36494,-1.172,-0.0611,11.1558,1547,2541.08
36499,-1.6412,-0.8631,12.0404,1553,2541.08
36504,-0.1484,2.1129,10.41,1606,2541.3
36509,0.6464,3.8032,10.0509,1553,2541.3
36514,-2.9664,2.4241,10.1227,1555,2541.3
36519,-1.0977,-0.6584,11.8106,1555,2541.3
36524,-1.6999,-0.0622,11.6502,1548,2541.3
36529,0.1712,2.484,10.137,1578,2540.87
36534,0.3998,3.9085,10.2472,1561,2540.87
36539,-2.9544,1.4341,10.1071,1543,2540.87
36544,-1.1648,-0.8787,12.0979,1545,2540.87
36549,-1.1863,0.9756,11.0744,1561,2540.87
36554,0.419,3.037,10.1167,1573,2540.54
36559,-0.3843,3.4309,10.1646,1549,2540.54
36564,-1.5778,0.4405,10.6841,1560,2540.54
36569,-1.4281,-1.0139,12.141,1547,2540.54
36574,-0.4764,1.7633,10.635,1572,2540.33
36579,0.5722,3.5039,10.1239,1557,2540.33
36584,-2.0674,2.8455,10.167,1548,2540.33
36589,-1.1157,-0.3783,11.4898,1557,2540.33
36594,-1.7131,-0.5183,11.9447,1561,2540.33
36599,0.0634,2.2326,10.1885,1605,2540.76
36604,0.595,3.8918,10.1335,1561,2540.76
36609,-3.2118,2.071,10.0975,1555,2540.76
36614,-1.1468,-0.7542,12.0153,1547,2540.76
36619,-1.5538,0.401,11.4467,1546,2540.76
36624,0.334,2.7473,10.1299,1581,2540.65
36629,0.237,3.7912,10.1993,1553,2540.65
36634,-2.4481,1.002,10.2592,1544,2540.65
36639,-1.2893,-1.0367,12.1949,1561,2540.65
36644,-0.8966,1.3623,10.8625,1553,2540.65
36649,0.4956,3.2932,10.1754,1573,2540.87
36654,-0.911,3.2813,10.1526,1557,2540.87
36659,-1.2031,0.0802,10.9128,1545,2540.87
36664,-1.5897,-0.9936,12.0608,1555,2540.87
36669,-0.2203,1.9944,10.3394,1613,2541.19
36674,0.5914,3.6966,10.1179,1553,2541.19
36679,-2.7485,2.6097,10.2137,1556,2541.19
36684,-1.069,-0.5411,11.7088,1549,2541.19
36689,-1.6987,-0.2059,11.7555,1549,2541.19
36694,0.1018,2.4122,10.1251,1607,2541.08
36699,0.4932,3.8726,10.1418,1557,2541.08
36704,-3.1544,1.6089,10.0832,1548,2541.08
36709,-1.1672,-0.808,12.129,1555,2541.08
36714,-1.3144,0.8571,11.1845,1557,2541.08
36719,0.3879,2.9281,10.1047,1587,2541.08
36724,-0.1508,3.5338,10.2232,1553,2541.08
36729,-1.7992,0.5926,10.5213,1551,2541.08
36734,-1.4018,-0.9924,12.1254,1561,2541.08
36739,-0.5782,1.6221,10.6506,1581,2541.3
36744,0.6165,3.4584,10.0509,1549,2541.3
36749,-1.634,2.9532,10.1909,1545,2541.3
36754,-1.0463,-0.2957,11.3138,1553,2541.3
36759,-1.6568,-0.6943,11.9435,1549,2541.3
36764,-0.0455,2.1775,10.313,1604,2541.51
36769,0.6105,3.8547,10.0975,1555,2541.51
36774,-3.1615,2.2278,10.1502,1553,2541.51
36779,-1.1384,-0.7494,11.9016,1547,2541.51
36784,-1.6388,0.1688,11.564,1549,2541.51
36789,0.2286,2.5714,10.1442,1577,2541.73
36794,0.334,3.8391,10.2448,1554,2541.73
36799,-2.7007,1.2474,10.1933,1548,2541.73
36804,-1.2258,-0.9218,12.1554,1547,2541.73
36809,-1.0307,1.1875,10.9451,1563,2541.73
36814,0.4537,3.1783,10.1526,1577,2541.73
36819,-0.741,3.3555,10.228,1553,2541.73
36824,-1.3695,0.1939,10.8613,1555,2541.73
36829,-1.4904,-0.9589,12.0524,1549,2541.73
36834,-0.3065,1.8771,10.4495,1609,2541.51
36839,0.6093,3.5889,10.1011,1556,2541.51
36844,-2.4421,2.6983,10.1945,1549,2541.51
36849,-1.0726,-0.4693,11.637,1554,2541.51
36854,-1.7298,-0.3268,11.9076,1555,2541.51
36859,0.1173,2.3463,10.2113,1583,2541.4
36864,0.4992,3.8882,10.1287,1560,2541.4
36869,-3.1987,1.7693,10.0676,1554,2541.4
36874,-1.1684,-0.8368,12.0799,1545,2541.4
36879,-1.4365,0.6321,11.2719,1549,2541.4
36884,0.3651,2.9054,10.1742,1588,2541.19
36889,0.0443,3.6583,10.2101,1553,2541.19
36894,-2.0913,0.753,10.4914,1543,2541.19
36899,-1.3288,-1.0666,12.1805,1560,2541.19
36904,-0.6859,1.5083,10.7332,1551,2541.19
36909,0.5303,3.4129,10.1167,1573,2540.76
36914,-1.421,3.0634,10.2675,1557,2540.76
36919,-1.0738,-0.1329,11.1785,1548,2540.76
36924,-1.6424,-0.832,11.9471,1554,2540.76
36929,-0.1377,2.0853,10.313,1611,2540.65
36934,0.5399,3.7996,10.0712,1549,2540.65
36939,-3.1065,2.3727,10.1598,1563,2540.65
36944,-1.0427,-0.5986,11.8657,1558,2540.65
36949,-1.6125,0.0335,11.6083,1545,2540.65
36954,0.2047,2.5127,10.1119,1573,2540.33
36959,0.3519,3.8271,10.246,1564,2540.33
36964,-2.9305,1.4281,10.1766,1545,2540.33
36969,-1.1959,-0.8428,12.1649,1554,2540.33
36974,-1.1169,1.0906,11.0588,1559,2540.33
36979,0.4238,3.0789,10.0556,1577,2540.22
36984,-0.3855,3.4093,10.2029,1549,2540.22
36989,-1.4904,0.3519,10.6973,1560,2540.22
36994,-1.5095,-0.9888,12.1135,1549,2540.22
36999,-0.4357,1.8172,10.5524,1615,2540.44
37004,0.6273,3.6248,10.0712,1557,2540.44
37009,-2.1416,2.8276,10.1861,1549,2540.44
37014,-1.0463,-0.3962,11.4539,1555,2540.44
37019,-1.6951,-0.5004,11.9207,1561,2540.44
37024,0.0347,2.2326,10.2675,1600,2540.65
37029,0.5662,3.8618,10.1394,1549,2540.65
37034,-3.2022,2.0099,10.0545,1559,2540.65
37039,-1.1468,-0.8009,12.0057,1547,2540.65
37044,-1.5167,0.4226,11.4371,1549,2540.65
37049,0.2909,2.7761,10.1382,1582,2540.65
37054,0.1137,3.8092,10.2089,1559,2540.65
37059,-2.3822,1.0247,10.3537,1547,2540.65
37064,-1.2234,-0.9517,12.1829,1560,2540.65
37069,-0.8763,1.3455,10.817,1555,2540.65
37074,0.504,3.2597,10.1634,1577,2540.65
37079,-1.0942,3.2154,10.2077,1557,2540.65
37084,-1.2139,0.0072,11.0875,1547,2540.65
37089,-1.561,-0.8643,12.0129,1556,2540.65
37094,-0.1137,2.0063,10.3837,1611,2540.76
37099,0.6333,3.6739,10.0832,1553,2540.76
37104,-2.8204,2.5271,10.1287,1555,2540.76
37109,-1.0714,-0.5986,11.7639,1555,2540.76
37114,-1.719,-0.1293,11.7352,1553,2540.76
37119,0.1772,2.4553,10.1933,1576,2540.76
37124,0.4776,3.899,10.1861,1559,2540.76
37129,-3.0897,1.5634,10.0185,1549,2540.76
37134,-1.2115,-0.8667,12.1111,1557,2540.76
37139,-1.2821,0.8942,11.1498,1557,2540.76
37144,0.4381,3.0323,10.167,1587,2540.65
37149,-0.1891,3.5123,10.1801,1556,2540.65
37154,-1.8148,0.5555,10.5309,1553,2540.65
37159,-1.385,-1.1001,12.1506,1562,2540.65
37164,-0.5243,1.6939,10.6626,1581,2540.33
37169,0.5495,3.4836,10.0916,1545,2540.33
37174,-1.7334,2.982,10.2077,1549,2540.33
37179,-1.0187,-0.255,11.3198,1549,2540.33
37184,-1.7023,-0.7506,11.977,1548,2540.33
37189,-0.079,2.144,10.2663,1607,2540.65
37194,0.5291,3.8176,10.1335,1553,2540.65
37199,-3.2262,2.1668,10.0987,1547,2540.65
37204,-1.1013,-0.6716,11.9423,1549,2540.65
37209,-1.6113,0.243,11.5305,1555,2540.65
37214,0.2466,2.6288,10.1131,1577,2540.33
37219,0.2598,3.8032,10.2017,1551,2540.33
37224,-2.6659,1.1648,10.2747,1541,2540.33
37229,-1.2318,-0.9134,12.1578,1547,2540.33
37234,-1.0546,1.2522,10.8816,1562,2540.33
37239,0.4908,3.2046,10.0868,1575,2540.22
37244,-0.6967,3.3208,10.2113,1549,2540.22
37249,-1.3671,0.1963,10.8924,1555,2540.22
37254,-1.5455,-0.9661,12.1302,1547,2540.22
37259,-0.3041,1.9597,10.4315,1609,2540.22
37264,0.6345,3.6655,10.0054,1560,2540.22
37269,-2.466,2.6911,10.167,1551,2540.22
37274,-1.0594,-0.5387,11.6071,1560,2540.22
37279,-1.7454,-0.3903,11.8094,1564,2540.22
37284,0.0898,2.3595,10.2292,1607,2540.65
37289,0.5722,3.9433,10.1634,1561,2540.65
37294,-3.1807,1.8507,10.094,1563,2540.65
37299,-1.1265,-0.7769,12.0476,1548,2540.65
37304,-1.4904,0.6309,11.2683,1547,2540.65
37309,0.322,2.8706,10.155,1583,2540.54
37314,0.012,3.6751,10.2364,1548,2540.54
37319,-2.1332,0.7889,10.4471,1547,2540.54
37324,-1.3264,-0.9732,12.1314,1556,2540.54
37329,-0.6692,1.5215,10.7284,1549,2540.54
37334,0.4752,3.383,10.0868,1571,2540.87
37339,-1.4353,3.0754,10.2544,1561,2540.87
37344,-1.1803,-0.1389,11.2061,1549,2540.87
37349,-1.6149,-0.7649,12.05,1548,2540.87
37354,-0.0575,2.1201,10.3058,1582,2541.08
37359,0.6141,3.7469,10.0916,1553,2541.08
37364,-3.0718,2.3523,10.1718,1561,2541.08
37369,-1.1229,-0.6608,11.8657,1556,2541.08
37374,-1.6999,0.085,11.6406,1553,2541.08
37379,0.2646,2.5774,10.1215,1591,2540.44
37384,0.4214,3.8726,10.1825,1561,2540.44
37389,-2.8647,1.3647,10.1287,1549,2540.44
37394,-1.2534,-0.9074,12.1602,1557,2540.44
37399,-1.1624,1.0319,11.054,1565,2540.44
37404,0.4537,3.1161,10.1418,1577,2540.97
37409,-0.4178,3.4405,10.1813,1553,2540.97
37414,-1.5335,0.3567,10.7033,1561,2540.97
37419,-1.4976,-1.0092,12.0859,1554,2540.97
37424,-0.407,1.8399,10.5584,1617,2540.33
37429,0.571,3.5829,10.1263,1559,2540.33
37434,-2.1536,2.8611,10.24,1550,2540.33
37439,-1.0283,-0.3723,11.491,1555,2540.33
37444,-1.6999,-0.5351,11.8812,1560,2540.33
37449,-0.0144,2.2075,10.1754,1610,2540.54
37454,0.5854,3.899,10.1837,1562,2540.54
37459,-3.2693,2.0171,10.1263,1561,2540.54
37464,-1.1432,-0.7302,11.983,1547,2540.54
37469,-1.5359,0.4477,11.4036,1560,2540.54
37474,0.2969,2.7569,10.1131,1584,2540.87
37479,0.1484,3.7158,10.2161,1554,2540.87
37484,-2.3451,0.9242,10.2735,1549,2540.87
37489,-1.3144,-0.9182,12.153,1557,3828.48
37494,-0.7937,1.4102,10.8457,1564,3828.48
37499,0.5435,3.2789,10.088,1579,7557.63
37504,-1.0391,3.128,10.2005,1556,7557.63
37509,-1.2067,0.0359,11.0852,1549,7557.63
37514,-1.5862,-0.8631,12.0488,1557,7557.63
37519,-0.1939,2.0291,10.3801,1607,2541.3
37524,0.6237,3.7146,10.0772,1545,2541.3
37529,-2.8012,2.5235,10.1203,1557,2541.3
37534,-1.0786,-0.6464,11.7579,1547,2541.3
37539,-1.7418,-0.1688,11.7843,1553,2541.3
37544,0.1149,2.4445,10.1754,1611,2541.83
37549,0.5112,3.9792,10.1993,1553,2541.83
37554,-3.0598,1.5694,10.1227,1556,2541.83
37559,-1.1384,-0.8871,12.1075,1553,2541.83
37564,-1.3132,0.8715,11.1175,1549,2541.83
37569,0.3926,2.9856,10.143,1591,2541.08
37574,-0.2382,3.5745,10.2101,1557,2541.08
37579,-1.7526,0.6201,10.5955,1549,2541.08
37584,-1.3934,-1.0223,12.1087,1564,2541.08
37589,-0.4884,1.7166,10.6219,1553,2541.08
37594,0.5375,3.4441,10.0497,1581,2540.01
37599,-1.8304,2.9221,10.1706,1547,2540.01
37604,-1.0523,-0.3029,11.3856,1549,2540.01
37609,-1.6712,-0.5902,11.9686,1556,2540.01
37614,0.0132,2.2134,10.2747,1608,2539.15
37619,0.5842,3.8439,10.1155,1558,2539.15
37624,-3.1963,2.2027,10.1323,1560,2539.15
37629,-1.063,-0.6883,11.9614,1555,2539.15
37634,-1.5862,0.2502,11.485,1555,2539.15
37639,0.2514,2.6647,10.1191,1583,2539.15
37644,0.2969,3.8092,10.2197,1557,2539.15
37649,-2.6432,1.1576,10.234,1543,2539.15
37654,-1.233,-0.9613,12.1769,1547,2539.15
37659,-1.0283,1.2163,10.9152,1565,2539.15
37664,0.4669,3.2154,10.1251,1576,2538.82
37669,-0.6931,3.3399,10.1694,1555,2538.82
37674,-1.3431,0.182,10.9104,1563,2538.82
37679,-1.5131,-1.0355,12.1326,1549,2538.82
37684,-0.3567,1.919,10.5129,1609,2538.61
37689,0.5938,3.6404,10.1167,1561,2538.61
37694,-2.4684,2.7222,10.2041,1551,2538.61
37699,-1.0427,-0.4621,11.5879,1558,2538.61
37704,-1.7059,-0.4345,11.8896,1563,2538.61
37709,0.0479,2.3164,10.2005,1611,2538.39
37714,0.5148,3.8714,10.1766,1561,2538.39
37719,-3.2489,1.8531,10.1394,1563,2538.39
37724,-1.0834,-0.7709,12.0764,1546,2538.39
37729,-1.4449,0.6081,11.2851,1553,2538.39
37734,0.3005,2.7952,10.1107,1591,2538.39
37739,0.018,3.6727,10.2256,1553,2538.39
37744,-2.1045,0.826,10.3621,1549,2538.39
37749,-1.2725,-1.0211,12.147,1561,2538.39
37754,-0.7518,1.5538,10.7907,1555,2538.39
37759,0.5626,3.3543,10.0868,1577,2538.5
37764,-1.2917,3.122,10.2065,1558,2538.5
37769,-1.1349,-0.1018,11.1294,1553,2538.5
37774,-1.6173,-0.82,12.0345,1557,2538.5
37779,-0.1101,2.1021,10.3621,1613,2538.39
37784,0.6428,3.7565,10.094,1547,2538.39
37789,-2.9916,2.4134,10.1574,1555,2538.39
37794,-1.093,-0.6021,11.8381,1554,2538.39
37799,-1.7166,-0.0455,11.6801,1553,2538.39
37804,0.1927,2.4433,10.1526,1611,2538.18
37809,0.4441,3.8966,10.2041,1559,2538.18
37814,-2.9916,1.5048,10.0928,1555,2538.18
37819,-1.1815,-0.8966,12.1206,1555,2538.18
37824,-1.2258,0.9301,11.1223,1557,2538.18
37829,0.3879,3.0251,10.1933,1593,2537.86
37834,-0.3316,3.4931,10.2915,1557,2537.86
37839,-1.6508,0.4908,10.635,1549,2537.86
37844,-1.3946,-1.0355,12.0823,1563,2537.86
37849,-0.4956,1.6927,10.6099,1557,2537.86
37854,0.559,3.4608,10.0652,1582,2537.75
37859,-1.9668,2.8647,10.1957,1553,2537.75
37864,-1.0391,-0.2909,11.4263,1547,2537.75
37869,-1.6939,-0.6189,11.9662,1558,2537.75
37874,-0.0359,2.2326,10.258,1608,2537.53
37879,0.577,3.8427,10.0928,1555,2537.53
37884,-3.2394,2.1141,10.0533,1563,2537.53
37889,-1.1277,-0.741,11.9961,1557,2537.53
37894,-1.5945,0.2945,11.5005,1553,2537.53
37899,0.2646,2.6779,10.1394,1588,2537.43
37904,0.2454,3.7996,10.1945,1565,2537.43
37909,-2.5809,1.1672,10.2376,1548,2537.43
37914,-1.2438,-0.984,12.1745,1547,2537.43
37919,-0.9888,1.2306,10.9331,1565,2537.43
37924,0.4705,3.2537,10.1574,1577,2537.86
37929,-0.747,3.3674,10.2065,1557,2537.86
37934,-1.3228,0.1736,10.8577,1559,2537.86
37939,-1.5083,-0.9912,12.068,1553,2537.86
37944,-0.2933,1.9704,10.5357,1589,2537.32
37949,0.6057,3.6931,10.0808,1557,2537.32
37954,-2.4804,2.6815,10.1897,1553,2537.32
37959,-1.0511,-0.4561,11.5568,1561,2537.32
37964,-1.7526,-0.3759,11.8621,1565,2537.32
37969,0.0718,2.3164,10.155,1621,2537.53
37974,0.5411,3.8798,10.2077,1559,2537.53
37979,-3.2609,1.8268,10.1359,1560,2537.53
37984,-1.1193,-0.7673,12.1183,1548,2537.53
37989,-1.47,0.5854,11.2946,1557,2537.53
37994,0.3172,2.8036,10.1119,1591,2537.43
37999,0.0419,3.6224,10.2364,1557,2537.43
38004,-2.1536,0.8176,10.4495,1549,2537.43
38009,-1.2989,-0.9972,12.147,1561,2537.43
38014,-0.7219,1.5167,10.8122,1561,2537.43
38019,0.5327,3.3375,10.0892,1579,2537.21
38024,-1.2833,3.1232,10.1586,1557,2537.21
38029,-1.1025,-0.0778,11.0887,1549,2537.21
38034,-1.6388,-0.8045,12.0189,1555,2537.21
38039,-0.1293,2.071,10.3705,1611,2537.43
38044,0.6357,3.7565,10.0772,1554,2537.43
38049,-2.9568,2.3882,10.1203,1549,2537.43
38054,-1.057,-0.5997,11.8226,1547,2537.43
38059,-1.7154,-0.0467,11.7124,1555,2537.43
38064,0.1939,2.4588,10.1035,1611,2537.75
38069,0.5004,3.9037,10.228,1557,2537.75
38074,-3.0514,1.5024,10.1275,1555,2537.75
38079,-1.1289,-0.8978,12.1063,1553,2537.75
38084,-1.2414,0.911,11.0935,1551,2537.75
38089,0.3759,3.0011,10.161,1592,2537.86
38094,-0.2813,3.5183,10.2268,1553,2537.86
38099,-1.6999,0.5686,10.58,1549,2537.86
38104,-1.4066,-1.0068,12.068,1563,2537.86
38109,-0.5124,1.6688,10.6326,1553,2537.86
38114,0.5758,3.4776,10.0724,1577,2538.29
38119,-1.9154,2.9006,10.2424,1549,2538.29
38124,-1.0822,-0.316,11.3725,1548,2538.29
38129,-1.7286,-0.6345,11.9231,1557,2538.29
38134,0.0012,2.1644,10.2615,1610,2538.5
38139,0.5722,3.8235,10.0904,1555,2538.5
38144,-3.213,2.1596,10.0652,1561,2538.5
38149,-1.1265,-0.6692,12.0249,1559,2538.5
38154,-1.5886,0.2729,11.5867,1555,2538.5
38159,0.2945,2.6923,10.1191,1583,2538.29
38164,0.2586,3.784,10.1969,1565,2538.29
38169,-2.6181,1.1564,10.252,1547,2538.29
38174,-1.251,-0.9385,12.1625,1555,2538.29
38179,-0.9888,1.2845,10.8828,1564,2538.29
38184,0.4836,3.2118,10.1047,1581,2538.72
38189,-0.7242,3.3914,10.2292,1560,2538.72
38194,-1.3503,0.176,10.8613,1557,2538.72
38199,-1.506,-0.9996,12.0249,1557,2538.72
38204,-0.3364,1.9154,10.4782,1615,2538.39
38209,0.6081,3.6883,10.0137,1557,2538.39
38214,-2.4588,2.6755,10.1754,1547,2538.39
38219,-1.0343,-0.4788,11.5377,1560,2538.39
38224,-1.6891,-0.4381,11.8968,1565,2538.39
38229,0.0563,2.3379,10.1742,1611,2538.29
38234,0.5219,3.8846,10.2328,1563,2538.29
38239,-3.2621,1.8364,10.0832,1560,2538.29
38244,-1.0846,-0.7865,12.0787,1553,2538.29
38249,-1.4593,0.6416,11.2695,1553,2538.29
38254,0.3567,2.8323,10.1849,1575,2538.5
38259,0.0204,3.6452,10.2328,1559,2538.5
38264,-2.1392,0.838,10.4256,1548,2538.5
38269,-1.318,-0.9948,12.1123,1563,2538.5
38274,-0.7027,1.561,10.7871,1563,2538.5
38279,0.559,3.31,10.0556,1583,2538.61
38284,-1.2582,3.067,10.2304,1545,2538.61
38289,-1.0822,-0.1293,11.1294,1549,2538.61
38294,-1.5969,-0.8009,12.0249,1557,2538.61
38299,-0.1377,2.0877,10.3441,1607,2538.82
38304,0.656,3.8164,10.1215,1553,2538.82
38309,-3.0023,2.4469,10.0975,1553,2538.82
38314,-1.0618,-0.5914,11.8573,1549,2538.82
38319,-1.7047,-0.0359,11.7053,1549,2538.82
38324,0.1975,2.5043,10.1658,1611,2538.72
38329,0.3962,3.8547,10.1933,1557,2538.72
38334,-2.9772,1.4521,10.0892,1554,2538.72
38339,-1.1983,-0.905,12.1542,1551,2538.72
38344,-1.1791,0.9493,11.1163,1549,2538.72
38349,0.4058,3.0011,10.1167,1584,2538.93
38354,-0.3304,3.5219,10.1622,1553,2538.93
38359,-1.6712,0.4513,10.6602,1547,2538.93
38364,-1.3958,-0.9589,12.1278,1562,2538.93
38369,-0.4944,1.7023,10.574,1549,2538.93
38374,0.5363,3.5123,10.1083,1567,2539.15
38379,-2.0171,2.9054,10.2208,1549,2539.15
38384,-1.0427,-0.3567,11.3868,1553,2539.15
38389,-1.7071,-0.583,11.91,1557,2539.15
38394,0.018,2.2326,10.2388,1607,2539.47
38399,0.5459,3.8343,10.1885,1553,2539.47
38404,-3.2274,2.059,10.0497,1563,2539.47
38409,-1.1313,-0.7278,12.0404,1558,2539.47
38414,-1.5826,0.3053,11.4383,1551,2539.47
38419,0.2801,2.7342,10.1418,1588,2539.47
38424,0.255,3.7601,10.1406,1564,2539.47
38429,-2.545,1.1468,10.2723,1543,2539.47
38434,-1.2713,-0.9828,12.1697,1549,2539.47
38439,-0.8416,1.3216,10.9403,1563,2539.47
38444,0.4752,3.2789,10.1323,1575,2539.57
38449,-0.8164,3.2992,10.2651,1554,2539.57
38454,-1.2522,0.0491,10.8637,1559,2539.57
38459,-1.5467,-0.978,12.0261,1556,2539.57
38464,-0.2861,1.9465,10.4411,1607,2539.57
38469,0.6153,3.717,10.1323,1561,2539.57
38474,-2.6252,2.6217,10.2005,1549,2539.57
38479,-1.0235,-0.4633,11.6717,1557,2539.57
38484,-1.7382,-0.3328,11.7759,1563,2539.57
38489,0.085,2.3355,10.1921,1609,2540.01
38494,0.516,3.863,10.167,1563,2540.01
38499,-3.2453,1.7406,10.1119,1562,2540.01
38504,-1.1588,-0.7817,12.1278,1550,2540.01
38509,-1.3731,0.7278,11.2599,1554,2540.01
38514,0.346,2.8922,10.1347,1591,2540.11
38519,-0.0611,3.5901,10.1682,1555,2540.11
38524,-1.9537,0.6788,10.4926,1551,2540.11
38529,-1.3372,-0.9948,12.1171,1574,2540.11
38534,-0.6237,1.5706,10.7153,1555,2540.11
38539,0.5339,3.3639,10.0317,1576,2540.22
38544,-1.4976,3.0239,10.2352,1556,2540.22
38549,-1.1001,-0.1915,11.218,1547,2540.22
38554,-1.6604,-0.7422,12.0141,1555,2540.22
38559,-0.0886,2.1249,10.2939,1614,2539.68
38564,0.668,3.8319,10.1478,1551,2539.68
38569,-3.0861,2.2817,10.0712,1555,2539.68
38574,-1.0942,-0.6859,11.898,1554,2539.68
38579,-1.6783,0.0646,11.5377,1557,2539.68
38584,0.249,2.6037,10.173,1579,2539.36
38589,0.3388,3.8714,10.167,1559,2539.36
38594,-2.8311,1.4126,10.1837,1553,2539.36
38599,-1.2175,-0.8894,12.1398,1555,2539.36
38604,-1.1444,1.087,11.0672,1555,2539.36
38609,0.431,3.0849,10.1514,1583,2539.47
38614,-0.5195,3.4345,10.1766,1555,2539.47
38619,-1.5586,0.3675,10.7727,1556,2539.47
38624,-1.4246,-0.9744,12.1183,1561,2539.47
38629,-0.3519,1.7992,10.5596,1579,2539.25
38634,0.5519,3.5518,10.0413,1554,2539.25
38639,-2.1907,2.7869,10.1945,1551,2539.25
38644,-1.0391,-0.3687,11.4874,1550,2539.25
38649,-1.7047,-0.4992,11.9183,1555,2539.25
38654,0.0563,2.2709,10.1933,1609,2539.68
38659,0.5363,3.8678,10.1861,1556,2539.68
38664,-3.2417,1.9632,10.0772,1549,2539.68
38669,-1.1504,-0.7422,12.0488,1549,2539.68
38674,-1.5371,0.4681,11.3425,1555,2539.68
38679,0.328,2.806,10.167,1583,2539.47
38684,0.176,3.7074,10.1239,1553,2539.47
38689,-2.3487,0.9457,10.3046,1545,2539.47
38694,-1.306,-1.0487,12.1554,1549,2539.47
38699,-0.7925,1.4293,10.8673,1561,2539.47
38704,0.5136,3.2896,10.0437,1577,2539.68
38709,-1.0331,3.2106,10.2125,1555,2539.68
38714,-1.2079,-0.0299,11.0157,1563,2539.68
38719,-1.5455,-0.8978,12.0907,1547,2539.68
38724,-0.2227,2.0267,10.3801,1583,2540.44
38729,0.6105,3.7948,10.1119,1564,2540.44
38734,-2.8659,2.5007,10.137,1553,2540.44
38739,-1.0199,-0.5267,11.7448,1561,2540.44
38744,-1.719,-0.1867,11.728,1565,2540.44
38749,0.1113,2.3954,10.2472,1607,2540.33
38754,0.4441,3.9037,10.2161,1563,2540.33
38759,-3.1196,1.5897,10.1143,1563,2540.33
38764,-1.1923,-0.8116,12.1099,1545,2540.33
38769,-1.318,0.8715,11.1618,1549,2540.33
38774,0.3998,2.9473,10.1131,1593,2540.44
38779,-0.17,3.4931,10.2412,1548,2540.44
38784,-1.7777,0.5339,10.6123,1545,2540.44
38789,-1.4317,-0.9852,12.1147,1563,2540.44
38794,-0.5447,1.7657,10.6793,1550,2540.44
38799,0.6009,3.4872,10.0856,1578,2540.76
38804,-1.8028,2.9125,10.228,1559,2540.76
38809,-1.0606,-0.3136,11.3521,1549,2540.76
38814,-1.6999,-0.6369,11.9746,1557,2540.76
38819,-0.0168,2.1991,10.2651,1592,2541.19
38824,0.6416,3.9193,10.1837,1555,2541.19
38829,-3.1591,2.1644,10.0676,1561,2541.19
38834,-1.0977,-0.68,11.9914,1557,2541.19
38839,-1.6364,0.2562,11.4958,1553,2541.19
38844,0.2693,2.7066,10.173,1615,2541.51
38849,0.2705,3.7984,10.1766,1559,2541.51
38854,-2.5989,1.2067,10.2639,1557,2541.51
38859,-1.2534,-0.984,12.0847,1555,2541.51
38864,-0.99,1.221,10.9331,1562,2541.51
38869,0.4381,3.1532,10.0916,1581,2541.62
38874,-0.7925,3.3243,10.2328,1556,2541.62
38879,-1.3551,0.1879,10.9176,1565,2541.62
38884,-1.4868,-0.9134,12.0811,1553,2541.62
38889,-0.2921,1.9142,10.4196,1620,2541.51
38894,0.5818,3.6212,10.0545,1556,2541.51
38899,-2.545,2.6288,10.1227,1549,2541.51
38904,-1.1013,-0.5016,11.6693,1555,2541.51
38909,-1.7083,-0.3304,11.8681,1567,2541.51
38914,0.1353,2.4026,10.1837,1608,2541.62
38919,0.504,3.8654,10.1514,1559,2541.62
38924,-3.1663,1.7334,10.1119,1557,2541.62
38929,-1.1815,-0.8176,12.0752,1547,2541.62
38934,-1.3898,0.7219,11.224,1553,2541.62
38939,0.4034,2.9137,10.1251,1581,2541.4
38944,-0.0108,3.5949,10.2232,1555,2541.4
38949,-1.9872,0.7099,10.4543,1547,2541.4
38954,-1.3659,-1.0283,12.1111,1557,2541.4
38959,-0.6931,1.6017,10.829,1559,2541.4
38964,0.5567,3.4285,10.0604,1578,2541.51
38969,-1.4545,3.0466,10.2747,1553,2541.51
38974,-1.1025,-0.1736,11.1642,1547,2541.51
38979,-1.658,-0.8224,12.0776,1555,2541.51
38984,-0.1401,2.1129,10.3214,1607,2541.3
38989,0.6201,3.8188,10.1586,1548,2541.3
38994,-3.1065,2.3044,10.1406,1558,2541.3
38999,-1.0235,-0.577,11.9423,1545,2541.3
39004,-1.658,0.0634,11.5257,1550,2541.3
39009,0.2155,2.5953,10.1885,1607,2541.19
39014,0.3268,3.8247,10.1885,1553,2541.19
39019,-2.8515,1.4066,10.2795,1550,2541.19
39024,-1.1971,-0.8871,12.1099,1547,2541.19
39029,-1.075,1.2043,11.0014,1546,2541.19
39034,0.4597,3.0945,10.0209,1581,2541.51
39039,-0.5315,3.3651,10.2532,1553,2541.51
39044,-1.4461,0.2765,10.7703,1545,2541.51
39049,-1.4497,-0.9086,12.1015,1560,2541.51
39054,-0.4118,1.822,10.5381,2483,2540.87
39059,0.6488,3.5662,10.0712,1549,2540.87
39064,-2.2733,2.733,10.1478,1547,2540.87
39069,-1.0247,-0.4776,11.5592,1545,2540.87
39074,-1.7633,-0.4788,11.892,1545,2540.87
39079,0.0622,2.3487,10.222,1607,2542.59
39084,0.6237,3.9097,10.1598,1559,2542.59
39089,-3.231,1.907,10.1167,1558,2542.59
39094,-1.1073,-0.8009,12.0847,1546,2542.59
39099,-1.5107,0.4717,11.4012,1553,2542.59
39104,0.3328,2.8264,10.1849,1587,2542.05
39109,0.0814,3.729,10.2316,1555,2542.05
39114,-2.2589,0.9158,10.386,1549,2542.05
39119,-1.2773,-0.9912,12.0752,1547,2542.05
39124,-0.7673,1.476,10.8386,1563,2542.05
39129,0.4812,3.31,10.1095,1583,2542.16
39134,-1.2749,3.1472,10.1945,1553,2542.16
39139,-1.166,-0.097,11.0684,1560,2542.16
39144,-1.5862,-0.8296,12.0799,1553,2542.16
39149,-0.1125,2.0482,10.3106,1615,2541.94
39154,0.6285,3.717,10.0724,1559,2541.94
39159,-2.9904,2.4349,10.0904,1553,2541.94
39164,-1.0774,-0.5614,11.9076,1563,2541.94
39169,-1.6604,-0.0395,11.716,1561,2541.94
39174,0.2119,2.5091,10.1574,1613,2542.7
39179,0.4465,3.8008,10.1622,1565,2542.7
39184,-2.9437,1.4341,10.1406,1567,2542.7
39189,-1.1923,-0.9301,12.1841,1545,2542.7
39194,-1.1552,1.0223,11.1103,1553,2542.7
39199,0.4357,3.1053,10.137,1591,2542.91
39204,-0.3065,3.4907,10.2065,1553,2542.91
39209,-1.5754,0.4046,10.6458,1549,2542.91
39214,-1.4365,-1.0379,12.074,1565,2542.91
39219,-0.4776,1.798,10.5393,1549,2542.91
39224,0.5614,3.5338,10.0963,1583,2542.7
39229,-2.059,2.8742,10.2328,1561,2542.7
39234,-1.0092,-0.3663,11.4191,1547,2542.7
39239,-1.6795,-0.5662,11.9507,1559,2542.7
39244,-0.0048,2.2146,10.2077,1611,2542.8
39249,0.5483,3.8786,10.1909,1553,2542.8
39254,-3.2848,2.0423,10.0377,1563,2542.8
39259,-1.1061,-0.6955,12.0309,1564,2542.8
39264,-1.5706,0.395,11.3665,1557,2542.8
39269,0.2753,2.7043,10.1418,1593,2542.59
39274,0.1341,3.6643,10.2244,1567,2542.59
39279,-2.3894,1.0163,10.3513,1547,2542.59
39284,-1.3084,-0.899,12.0668,1556,2542.59
39289,-0.8511,1.4784,10.7967,1567,2542.59
39294,0.5351,3.2429,10.0748,1581,2542.48
39299,-1.0439,3.1568,10.2675,1546,2542.48
39304,-1.2378,-0.0335,11.0157,1561,2542.48
39309,-1.549,-0.8188,12.0847,1550,2542.48
39314,-0.1844,2.0327,10.4399,1587,2542.27
39319,0.6488,3.6931,10.0604,1561,2542.27
39324,-2.7797,2.4421,10.0856,1551,2542.27
39329,-1.057,-0.6141,11.7807,1559,2542.27
39334,-1.749,-0.1604,11.795,1565,2542.27
39339,0.1425,2.4553,10.1969,1609,2542.7
39344,0.4992,3.9157,10.1622,1563,2542.7
39349,-3.061,1.5814,10.1227,1561,2542.7
39354,-1.1744,-0.9122,12.0716,1553,2542.7
39359,-1.2677,0.8715,11.1318,1555,2542.7
39364,0.4274,2.9616,10.1406,1583,2542.27
39369,-0.2717,3.5422,10.2532,1555,2542.27
39374,-1.7597,0.5842,10.5848,1549,2542.27
39379,-1.3874,-1.0175,12.1039,1562,2542.27
39384,-0.5399,1.6771,10.6171,1547,2542.27
39389,0.5638,3.4093,10.0999,1577,2542.7
39394,-1.8687,2.9185,10.252,1559,2542.7
39399,-1.1121,-0.3053,11.3832,1549,2542.7
39404,-1.7011,-0.583,11.965,1557,2542.7
39409,-0.0215,2.2134,10.2149,1583,2543.02
39414,0.5794,3.8223,10.1909,1553,2543.02
39419,-3.2501,2.0997,10.1131,1558,2543.02
39424,-1.1349,-0.7135,12.0045,1555,2543.02
39429,-1.5778,0.3783,11.485,1555,2543.02
39434,0.328,2.7354,10.1035,1590,2542.48
39439,0.2634,3.7302,10.1406,1563,2542.48
39444,-2.5522,1.075,10.2663,1547,2542.48
39449,-1.2881,-0.9589,12.153,1533,2542.48
39454,-0.9409,1.3695,10.8769,1548,2542.48
39459,0.5315,3.2932,10.0712,1564,2543.13
39464,-0.7925,3.2872,10.1718,1545,2543.13
39469,-1.2821,0.0323,10.9104,1546,2543.13
39474,-1.5167,-0.9876,12.0321,1548,2543.13
39479,-0.3017,1.9764,10.4567,1605,2542.7
39484,0.6069,3.723,10.1323,1533,2542.7
39489,-2.6839,2.6348,10.1658,1543,2542.7
39494,-0.9804,-0.5195,11.637,1547,2542.7
39499,-1.7214,-0.2873,11.7855,1547,2542.7
39504,0.1113,2.3858,10.1694,1594,2542.48
39509,0.4705,3.9361,10.222,1554,2542.48
39514,-3.1795,1.6628,10.1047,1545,2542.48
39519,-1.1612,-0.753,12.1314,1533,2542.48
39524,-1.3719,0.8033,11.2073,1544,2542.48
39529,0.3807,2.8958,10.1311,1567,2542.59
39534,-0.164,3.5398,10.2244,1551,2542.59
39539,-1.8938,0.6608,10.5584,1533,2542.59
39544,-1.3623,-0.9481,12.0787,1545,2542.59
39549,-0.5531,1.6891,10.6183,1554,2542.59
39554,0.5902,3.4034,10.0365,1573,2542.59
39559,-1.6831,2.9281,10.2089,1547,2542.59
39564,-1.1061,-0.2562,11.3282,1545,2542.59
39569,-1.7047,-0.6476,11.9878,1543,2542.59
39574,-0.0359,2.1931,10.2795,1595,2542.7
39579,0.668,3.8666,10.1694,1547,2542.7
39584,-3.1268,2.1799,10.0616,1547,2542.7
39589,-1.0642,-0.6931,11.9112,1543,2542.7
39594,-1.6604,0.2095,11.5532,1546,2542.7
39599,0.261,2.6779,10.1957,1597,2542.7
39604,0.3244,3.8523,10.2101,1549,2542.7
39609,-2.6791,1.2306,10.2675,1551,2542.7
39614,-1.2294,-0.9732,12.0919,1547,2542.7
39619,-1.0008,1.1624,10.9427,1546,2542.7
39624,0.4501,3.1903,10.1059,1576,2542.7
39629,-0.7039,3.3399,10.2328,1553,2542.7
39634,-1.4126,0.2274,10.8409,1543,2542.7
39639,-1.4976,-0.9661,12.0931,1555,2542.7
39644,-0.2909,1.9058,10.4926,1565,2542.7
39649,0.5507,3.6296,10.0616,1543,2542.7
39654,-2.5115,2.6947,10.2161,1543,2542.7
39659,-1.0786,-0.4788,11.6442,1544,2542.7
39664,-1.7071,-0.346,11.819,1545,2542.7
39669,0.1173,2.3727,10.1778,1593,2542.37
39674,0.5315,3.8523,10.1418,1549,2542.37
39679,-3.2262,1.7609,10.1047,1544,2542.37
39684,-1.1839,-0.8296,12.1458,1545,2542.37
39689,-1.4401,0.729,11.2851,1545,2542.37
39694,0.4058,2.9125,10.1083,1565,2541.94
39699,0.0012,3.6188,10.173,1545,2541.94
39704,-2.0327,0.7183,10.4567,1541,2541.94
39709,-1.3575,-1.0654,12.1889,1541,2541.94
39714,-0.7362,1.5838,10.7368,1557,2541.94
39719,0.5698,3.4189,10.1011,1567,2541.19
39724,-1.397,3.0813,10.234,1547,2541.19
39729,-1.0942,-0.1401,11.1725,1553,2541.19
39734,-1.6436,-0.8152,12.0201,1545,2541.19
39739,-0.1257,2.0865,10.3058,1605,2540.97
39744,0.6153,3.808,10.0999,1555,2540.97
39749,-3.0801,2.3176,10.1083,1544,2540.97
39754,-1.0427,-0.5818,11.8082,1555,2540.97
39759,-1.6652,0.0204,11.5544,1549,2540.97
39764,0.1748,2.5474,10.1778,1597,2541.19
39769,0.322,3.8882,10.2508,1557,2541.19
39774,-2.8659,1.385,10.1861,1559,2541.19
39779,-1.1875,-0.8847,12.1721,1541,2541.19
39784,-1.1217,1.0942,11.0289,1543,2541.19
39789,0.4357,3.055,10.0916,1579,2541.3
39794,-0.5315,3.3914,10.2185,1545,2541.3
39799,-1.5574,0.3448,10.7883,1541,2541.3
39804,-1.4856,-0.9457,12.0835,1558,2541.3
39809,-0.3591,1.8771,10.5836,1543,2541.3
39814,0.6404,3.5769,10.0221,1565,2541.62
39819,-2.2458,2.7174,10.2268,1556,2541.62
39824,-1.0127,-0.4764,11.5424,1541,2541.62
39829,-1.749,-0.4788,11.8968,1553,2541.62
39834,0.0694,2.2853,10.1909,1600,2542.05
39839,0.6153,3.9528,10.1287,1550,2542.05
39844,-3.2346,1.9812,10.0521,1559,2542.05
39849,-1.1468,-0.7985,12.0668,1547,2542.05
39854,-1.4796,0.5339,11.3353,1547,2542.05
39859,0.2837,2.8036,10.1873,1587,2542.37
39864,0.0778,3.7014,10.1993,1557,2542.37
39869,-2.2613,0.905,10.3825,1543,2542.37
39874,-1.3108,-0.9864,12.0883,1549,2542.37
39879,-0.7721,1.421,10.7955,1556,2542.37
39884,0.5136,3.3064,10.1203,1563,2542.8
39889,-1.172,3.1951,10.2256,1547,2542.8
39894,-1.1851,-0.0431,11.0971,1559,2542.8
39899,-1.5957,-0.8284,12.0692,1544,2542.8
39904,-0.1197,2.0315,10.3334,1579,2543.02
39909,0.5878,3.7314,10.1191,1548,2543.02
39914,-2.9628,2.4505,10.161,1544,2543.02
39919,-1.1337,-0.5602,11.8716,1553,2543.02
39924,-1.6867,-0.0515,11.7507,1557,2543.02
39929,0.2071,2.5175,10.1538,1592,2543.13
39934,0.4298,3.8331,10.167,1555,2543.13
39939,-2.9497,1.4174,10.1442,1553,2543.13
39944,-1.1815,-0.8511,12.1123,1541,2543.13
39949,-1.2342,1.002,11.1079,1543,2543.13
39954,0.4537,3.0837,10.1598,1578,2542.8
39959,-0.3172,3.4752,10.1885,1547,2542.8
39964,-1.6113,0.4118,10.6123,1542,2542.8
39969,-1.4581,-1.0391,12.0931,1555,2542.8
39974,-0.4537,1.8028,10.5704,1541,2542.8
39979,0.5722,3.5326,10.07,1565,2542.7
39984,-2.0039,2.8695,10.1885,1549,2542.7
39989,-1.0008,-0.3603,11.473,1543,2542.7
39994,-1.6867,-0.5974,11.9531,1545,2542.7
39999,-0.006,2.1931,10.2316,1563,2542.48
40004,0.5878,3.9061,10.1059,1543,2542.48
40009,-3.2334,2.0758,10.0616,1549,2542.48
40014,-1.1205,-0.6847,11.9758,1551,2542.48
40019,-1.5431,0.3962,11.4275,1548,2542.48
40024,0.3316,2.6875,10.1574,1564,2542.48
40029,0.1724,3.7314,10.2687,1555,2542.48
40034,-2.4469,1.0259,10.325,1544,2542.48
40039,-1.2821,-0.9553,12.1817,1549,2542.48
40044,-0.8715,1.3934,10.8314,1555,2542.48
40049,0.5183,3.2884,10.0892,1575,2542.48
40054,-1.0235,3.1795,10.2412,1530,2542.48
40059,-1.2055,0.0132,11.0038,1549,2542.48
40064,-1.5778,-0.8404,12.0728,1549,2542.48
40069,-0.1556,2.071,10.4028,1583,2542.48
40074,0.6464,3.7122,10.0269,1531,2542.48
40079,-2.7928,2.466,10.1095,1532,2542.48
40084,-1.1157,-0.6201,11.7256,1544,2542.48
40089,-1.7083,-0.1413,11.7627,1547,2542.48
40094,0.1939,2.4696,10.2065,1588,2542.8
40099,0.516,3.8618,10.1849,1551,2542.8
40104,-3.0765,1.6197,10.1323,1549,2542.8
40109,-1.1181,-0.8799,12.1913,1541,2542.8
40114,-1.2989,0.8452,11.1067,1543,2542.8
40119,0.4238,2.9676,10.1813,1561,2542.8
40124,-0.2203,3.5374,10.1778,1545,2542.8
40129,-1.7274,0.5638,10.5955,1532,2542.8
40134,-1.3838,-1.0319,12.1266,1547,2542.8
40139,-0.5339,1.7142,10.6075,1551,2542.8
40144,0.5171,3.4524,10.0628,1564,2543.02
40149,-1.8723,2.9173,10.2544,1545,2543.02
40154,-1.087,-0.2909,11.3437,1545,2543.02
40159,-1.6424,-0.6213,11.9961,1545,2543.02
40164,0.006,2.1847,10.3214,1593,2542.91
40169,0.5722,3.8271,10.1574,1533,2542.91
40174,-3.2693,2.1177,10.0449,1544,2542.91
40179,-1.1193,-0.6895,11.9578,1541,2542.91
40184,-1.6233,0.3077,11.5161,1544,2542.91
40189,0.3352,2.7019,10.1502,1595,2542.59
40194,0.2897,3.7541,10.1766,1545,2542.59
40199,-2.5678,1.0738,10.2699,1550,2542.59
40204,-1.2582,-0.984,12.1374,1546,2542.59
40209,-0.929,1.342,10.914,1543,2542.59
40214,0.5507,3.2621,10.1203,1578,2542.48
40219,-0.8523,3.2717,10.1742,1547,2542.48
40224,-1.2869,0.1221,10.8733,1544,2542.48
40229,-1.5658,-0.996,12.0488,1550,2542.48
40234,-0.2442,1.9585,10.5046,1564,2542.37
40239,0.668,3.7074,10.1251,1543,2542.37
40244,-2.6061,2.6444,10.1694,1541,2542.37
40249,-1.0367,-0.5136,11.6765,1541,2542.37
40254,-1.7466,-0.2765,11.8381,1543,2542.37
40259,0.1137,2.3523,10.1873,1591,2542.8
40264,0.5279,3.893,10.1694,1549,2542.8
40269,-3.2058,1.6879,10.0999,1543,2542.8
40274,-1.166,-0.7745,12.0859,1529,2542.8
40279,-1.3743,0.7626,11.2061,1547,2542.8
40284,0.3699,2.9054,10.1418,1566,2542.91
40289,-0.0994,3.6081,10.2484,1545,2542.91
40294,-1.907,0.6584,10.5261,1533,2542.91
40299,-1.3623,-0.9553,12.1075,1533,2542.91
40304,-0.595,1.646,10.6482,1555,2542.91
40309,0.6105,3.4393,10.0975,1565,2542.8
40314,-1.6867,2.9497,10.2041,1548,2542.8
40319,-1.0762,-0.2885,11.3365,1553,2542.8
40324,-1.7059,-0.6823,11.9578,1545,2542.8
40329,-0.0838,2.1787,10.2687,1593,2542.37
40334,0.6536,3.875,10.0987,1551,2542.37
40339,-3.1699,2.1691,10.0808,1545,2542.37
40344,-1.0894,-0.7207,11.8657,1556,2542.37
40349,-1.6592,0.2071,11.5604,1546,2542.37
40354,0.231,2.5845,10.1478,1589,2542.27
40359,0.3388,3.8247,10.1801,1559,2542.27
40364,-2.6671,1.1947,10.234,1554,2542.27
40369,-1.2103,-0.9301,12.135,1543,2542.27
40374,-1.0451,1.1815,10.9379,1540,2542.27
40379,0.4573,3.2322,10.1203,1575,2542.27
40384,-0.6812,3.3543,10.1957,1559,2542.27
40389,-1.4246,0.2346,10.8816,1541,2542.27
40394,-1.4928,-0.9912,12.0943,1557,2542.27
40399,-0.3448,1.8806,10.4555,1531,2542.27
40404,0.5686,3.614,10.0844,1561,2541.73
40409,-2.4445,2.7043,10.1921,1551,2541.73
40414,-1.0953,-0.4836,11.5855,1543,2541.73
40419,-1.7334,-0.3531,11.8764,1549,2541.73
40424,0.1413,2.3463,10.2292,1595,2541.83
40429,0.5375,3.863,10.2161,1545,2541.83
40434,-2.8982,2.4169,10.1023,1555,2541.83
40439,-1.0499,-0.5758,11.7855,1553,2541.83
40444,-1.4437,0.6632,11.2923,1541,2541.83
40449,0.1592,2.4804,10.1454,1565,2541.83
40454,0.419,3.8738,10.1933,1554,2541.83
40459,-2.9963,1.5155,10.167,1541,2541.83
40464,-1.2354,-0.8799,12.1793,1544,2541.83
40469,-1.2258,0.9936,11.0816,1555,2541.83
40474,0.4345,3.0454,10.1622,1562,2542.59
40479,-0.2682,3.4848,10.1562,1547,2542.59
40484,-1.67,0.4429,10.635,1555,2542.59
40489,-1.4461,-1.0546,12.056,1541,2542.59
40494,-0.5076,1.7131,10.5812,1607,2543.34
40499,0.6177,3.5434,10.1047,1549,2543.34
40504,-1.9728,2.8515,10.2161,1548,2543.34
40509,-1.0247,-0.3603,11.3844,1553,2543.34
40514,-1.7131,-0.6357,11.9243,1561,2543.34
40519,0.0275,2.1955,10.2867,1596,2544.64
40524,0.6081,3.881,10.1933,1561,2544.64
40529,-3.201,2.0075,10.0928,1558,2544.64
40534,-1.1001,-0.6967,12.0153,1544,2544.64
40539,-1.5826,0.3938,11.4287,1543,2544.64
40544,0.2957,2.7342,10.1442,1573,2545.93
40549,0.2131,3.7362,10.1742,1547,2545.93
40554,-2.4098,1.0092,10.3322,1543,2545.93
40559,-1.2977,-0.9469,12.0787,1558,2545.93
40564,-0.8272,1.4054,10.8421,1544,2545.93
40569,0.5555,3.2429,10.0521,1564,2546.69
40574,-1.0259,3.1963,10.2244,1557,2546.69
40579,-1.2438,-0.006,11.0445,1541,2546.69
40584,-1.5897,-0.7985,12.0452,1549,2546.69
40589,-0.1784,2.0578,10.392,1599,2547.34
40594,0.6476,3.7385,10.0963,1533,2547.34
40599,-2.8551,2.4098,10.1155,1555,2547.34
40604,-1.0642,-0.6333,11.7938,1551,2547.34
40609,-1.731,-0.0778,11.7723,1547,2547.34
40614,0.1963,2.5139,10.1957,1567,2546.26
40619,0.4477,3.9217,10.161,1557,2546.26
40624,-2.9808,1.5,10.0928,1543,2546.26
40629,-1.2306,-0.929,12.1075,1541,2546.26
40634,-1.2079,0.9218,11.0744,1557,2546.26
40639,0.4238,3.0813,10.1335,1560,2545.28
40644,-0.3615,3.5003,10.1766,1555,2545.28
40649,-1.6484,0.4609,10.7332,1554,2545.28
40654,-1.4365,-0.9996,12.1159,1545,2545.28
40659,-0.4178,1.7705,10.5225,1605,2544.1
40664,0.5638,3.4991,10.0533,1557,2544.1
40669,-2.0842,2.8922,10.2185,1541,2544.1
40674,-1.0846,-0.3795,11.5041,1549,2544.1
40679,-1.7119,-0.5746,11.9447,1565,2544.1
40684,-0.0084,2.223,10.1993,1599,2543.77
40689,0.5339,3.8319,10.1347,1557,2543.77
40694,-3.2334,1.9632,10.0497,1555,2543.77
40699,-1.1468,-0.7039,12.0081,1527,2543.77
40704,-1.5167,0.4836,11.4431,1529,2543.77
40709,0.3508,2.7665,10.1299,1561,2543.13
40714,0.1484,3.7302,10.2161,1532,2543.13
40719,-2.3846,0.9182,10.2843,1529,2543.13
40724,-1.3503,-0.996,12.1506,1547,2543.13
40729,-0.8595,1.3874,10.835,1528,2543.13
40734,0.5052,3.3172,10.0987,1558,2542.91
40739,-1.0283,3.1819,10.2017,1547,2542.91
40744,-1.1839,0.0335,11.0373,1531,2542.91
40749,-1.5909,-0.9206,12.074,1532,2542.91
40754,-0.2047,2.0171,10.4244,1579,2543.02
40759,0.6021,3.7792,10.1311,1533,2543.02
40764,-2.8287,2.4983,10.1083,1549,2543.02
40769,-1.0451,-0.5734,11.7675,1545,2543.02
40774,-1.7047,-0.1401,11.7076,1543,2543.02
40779,0.1317,2.4229,10.1825,1578,2542.7
40784,0.4453,3.9037,10.2544,1553,2542.7
40789,-3.0323,1.585,10.1131,1541,2542.7
40794,-1.1768,-0.8284,12.1446,1549,2542.7
40799,-1.2761,0.8847,11.1199,1553,2542.7
40804,0.4178,2.9473,10.1251,1561,2542.91
40809,-0.2406,3.4596,10.1945,1545,2542.91
40814,-1.7502,0.5171,10.6506,1549,2542.91
40819,-1.4305,-0.9493,12.1027,1545,2542.91
40824,-0.4992,1.7526,10.6171,1575,2542.8
40829,0.6033,3.4836,10.0329,1547,2542.8
40834,-1.919,2.8778,10.2436,1543,2542.8
40839,-1.0953,-0.3364,11.4347,1545,2542.8
40844,-1.7274,-0.5674,11.9566,1553,2542.8
40849,-0.0144,2.2434,10.2843,1591,2542.8
40854,0.6129,3.8966,10.1095,1555,2542.8
40859,-3.1735,2.1033,10.1143,1553,2542.8
40864,-1.1564,-0.7685,11.971,1543,2542.8
40869,-1.6017,0.2933,11.4586,1545,2542.8
40874,0.2526,2.7186,10.161,1573,2542.91
40879,0.2035,3.7996,10.2316,1545,2542.91
40884,-2.5223,1.063,10.2197,1529,2542.91
40889,-1.2761,-1.0163,12.0907,1553,2542.91
40894,-0.9433,1.33,10.8685,1549,2542.91
40899,0.51,3.2585,10.1442,1560,2542.91
40904,-0.9301,3.298,10.1849,1549,2542.91
40909,-1.2689,0.1245,10.9906,1532,2542.91
40914,-1.4952,-0.9146,12.0512,1546,2542.91
40919,-0.2155,1.9644,10.4028,1597,2543.45
40924,0.6105,3.6727,10.0329,1544,2543.45
40929,-2.7246,2.5798,10.1969,1547,2543.45
40934,-1.1061,-0.5399,11.7364,1545,2543.45
40939,-1.7107,-0.2263,11.8094,1541,2543.45
40944,0.1233,2.411,10.1406,1593,2543.45
40949,0.4992,3.887,10.1155,1549,2543.45
40954,-3.1364,1.6149,10.0748,1545,2543.45
40959,-1.1959,-0.8619,12.1015,1544,2543.45
40964,-1.33,0.8499,11.1654,1549,2543.45
40969,0.4334,2.982,10.1706,1573,2543.34
40974,-0.1257,3.5326,10.2244,1545,2543.34
40979,-1.816,0.5447,10.55,1546,2543.34
40984,-1.4234,-1.0606,12.1338,1547,2543.34
40989,-0.5746,1.7142,10.6686,1575,2543.56
40994,0.5543,3.4884,10.1179,1527,2543.56
40999,-1.7142,2.9449,10.2316,1525,2543.56
41004,-1.0391,-0.261,11.3353,1527,2543.56
41009,-1.7107,-0.7302,11.9782,1532,2543.56
41014,-0.067,2.1943,10.2388,1562,2543.77
41019,0.6021,3.8475,10.0784,1544,2543.77
41024,-3.1903,2.1775,10.1119,1533,2543.77
41029,-1.1085,-0.6632,11.9495,1519,2543.77
41034,-1.6305,0.2705,11.4766,1529,2543.77
41039,0.2334,2.6121,10.0856,1548,2543.99
41044,0.2646,3.7984,10.2292,1531,2543.99
41049,-2.6205,1.148,10.2843,1519,2543.99
41054,-1.2665,-0.8775,12.1171,1529,2543.99
41059,-0.9708,1.3012,10.8924,1543,2543.99
41064,0.5303,3.2226,10.1227,1549,2543.56
41069,-0.8104,3.2693,10.2915,1531,2543.56
41074,-1.3216,0.1544,10.9259,1531,2543.56
41079,-1.5419,-0.9266,12.0883,1548,2543.56
41084,-0.2298,1.9585,10.4746,1576,2543.88
41089,0.6488,3.6476,10.1059,1529,2543.88
41094,-2.5391,2.5678,10.0975,1533,2543.88
41099,-1.0894,-0.5531,11.6346,1528,2543.88
41104,-1.7538,-0.2167,11.7902,1529,2543.88
41109,0.1065,2.411,10.1885,1577,2545.61
41114,0.5148,3.9468,10.1837,1544,2545.61
41119,-3.128,1.6951,10.1059,1545,2545.61
41124,-1.154,-0.8691,12.1039,1545,2545.61
41129,-1.3683,0.7446,11.1462,1545,2545.61
41134,0.3603,2.9604,10.1646,1572,2545.5
41139,-0.1425,3.6404,10.2125,1543,2545.5
41144,-1.8842,0.6859,10.5309,1533,2545.5
41149,-1.3575,-1.0116,12.135,1547,2545.5
41154,-0.5543,1.6604,10.6362,1560,2544.21
41159,0.5315,3.4584,10.1215,1532,2544.21
41164,-1.7561,2.9688,10.2065,1543,2544.21
41169,-1.0953,-0.2634,11.3581,1541,2544.21
41174,-1.6508,-0.6716,11.9255,1541,2544.21
41179,-0.0251,2.1596,10.2855,1590,2544.31
41184,0.559,3.8259,10.058,1553,2544.31
41189,-3.1975,2.1931,10.1023,1545,2544.31
41194,-1.1217,-0.6847,11.989,1547,2544.31
41199,-1.6328,0.3005,11.5712,1545,2544.31
41204,0.2682,2.6372,10.0676,1571,2543.77
41209,0.3232,3.802,10.173,1533,2543.77
41214,-2.6264,1.1025,10.2244,1530,2543.77
41219,-1.2785,-0.9194,12.2248,1542,2543.77
41224,-0.9852,1.2761,10.9487,1555,2543.77
41229,0.4992,3.2633,10.1011,1567,2544.1
41234,-0.7578,3.3028,10.1861,1531,2544.1
41239,-1.3144,0.1425,10.8852,1546,2544.1
41244,-1.5514,-1.063,12.0524,1546,2544.1
41249,-0.249,1.9142,10.5177,1589,2543.99
41254,0.6285,3.6859,10.094,1566,2543.99
41259,-2.5989,2.6324,10.2173,1531,2543.99
41264,-1.008,-0.4872,11.6334,1532,2543.99
41269,-1.7406,-0.2969,11.7795,1541,2543.99
41274,0.0982,2.3715,10.1718,1589,2544.21
41279,0.5136,3.8858,10.1658,1547,2544.21
41284,-3.2082,1.6975,10.1394,1549,2544.21
41289,-1.1923,-0.7733,12.0668,1533,2544.21
41294,-1.3886,0.7542,11.2372,1531,2544.21
41299,0.3627,2.897,10.1023,1567,2543.99
41304,-0.1281,3.5901,10.2244,1545,2543.99
41309,-1.9345,0.6572,10.5417,1530,2543.99
41314,-1.3779,-0.9673,12.1865,1547,2543.99
41319,-0.5914,1.6376,10.6638,1544,2543.99
41324,0.5854,3.4417,10.0844,1561,2543.99
41329,-1.6029,2.9509,10.2197,1532,2543.99
41334,-1.0714,-0.255,11.2982,1532,2543.99
41339,-1.6759,-0.7135,11.9542,1533,2543.99
41344,-0.0251,2.1859,10.325,1583,2544.42
41349,0.6177,3.8152,10.0616,1543,2544.42
41354,-3.0957,2.2087,10.1359,1533,2544.42
41359,-1.1145,-0.735,11.9183,1532,2544.42
41364,-1.6723,0.1844,11.5796,1543,2544.42
41369,0.2251,2.6097,10.173,1557,2544.31
41374,0.3352,3.8487,10.2268,1546,2544.31
41379,-2.6791,1.1875,10.1682,1533,2544.31
41384,-1.2462,-0.9553,12.0967,1545,2544.31
41389,-1.0116,1.16,10.89,1559,2544.31
41394,0.4669,3.2082,10.1311,1565,2544.21
41399,-0.7434,3.3471,10.2675,1543,2544.21
41404,-1.3431,0.1867,10.8948,1547,2544.21
41409,-1.4653,-0.984,12.0907,1533,2544.21
41414,-0.2957,1.8974,10.4184,1556,2544.42
