timestamp_ms,ax,ay,az,acs_adc,rpm
11949,1.7561,4.057,10.2185,1320,2857.28
11954,-1.5131,1.5335,11.4934,1310,2857.28
11959,-2.715,-1.4784,12.3637,1309,2857.28
11964,-2.4612,1.8304,9.323,1315,2857.28
11969,1.6592,3.8032,10.07,1309,2857.28
11974,-0.1796,2.1332,11.0468,1319,2857.28
11979,-1.8507,-1.5514,12.4846,1309,2857.28
11984,-3.5674,1.1372,9.8581,1305,2857.28
11989,1.3276,3.3974,9.8222,1311,2857.14
11994,1.3144,2.8599,10.6973,1311,2857.14
11999,-1.2929,-1.0546,12.3888,1300,2857.14
12004,-4.2437,0.4441,10.653,1307,2857.14
12009,0.753,2.9916,9.5589,1303,2857.01
12014,1.9058,3.5398,10.5129,1305,2857.01
12019,-1.3372,-0.103,12.2296,1319,2857.01
12024,-4.0546,-0.3926,11.3988,1303,2857.01
12029,-0.1077,2.6097,9.2296,1309,2857.28
12034,1.8687,3.9863,10.2651,1309,2857.28
12039,-1.6795,0.7961,11.8693,1309,2857.28
12044,-3.5338,-1.0391,12.0165,1305,2857.28
12049,-1.1971,2.2769,9.1387,1305,2857.28
12054,1.7729,3.9971,10.1754,1317,2857.28
12059,-1.4688,1.5443,11.5065,1304,2857.28
12064,-2.7641,-1.5155,12.3277,1309,2857.28
12069,-2.4636,1.7921,9.3506,1308,2857.14
12074,1.5802,3.7062,10.0652,1309,2857.14
12079,-0.1903,2.1512,11.151,1321,2857.14
12084,-1.9166,-1.5814,12.5624,1320,2857.14
12089,-3.6164,1.1875,9.8976,1305,2857.14
12094,1.3252,3.3734,9.8258,1309,2857.14
12099,1.3276,2.8934,10.7428,1308,2857.14
12104,-1.2953,-1.0068,12.4068,1307,2857.14
12109,-4.1204,0.4058,10.6422,1299,2857.14
12114,0.7949,2.9856,9.5074,1304,2857.14
12119,1.8962,3.5494,10.4387,1305,2857.14
12124,-1.2198,-0.0838,12.2272,1304,2857.14
12129,-4.0713,-0.3974,11.3772,1305,2857.14
12134,-0.0084,2.5965,9.1877,1310,2857.28
12139,1.8184,3.9576,10.2472,1309,2857.28
12144,-1.6771,0.8404,11.9519,1308,2857.28
12149,-3.5877,-1.0582,11.9902,1300,2857.28
12154,-1.1839,2.3236,9.1219,1305,2857.42
12159,1.6975,4.0666,10.1885,1319,2857.42
12164,-1.5143,1.5419,11.5424,1307,2857.42
12169,-2.7701,-1.5048,12.3182,1308,2857.42
12174,-2.4385,1.834,9.2883,1315,2857.42
12179,1.6305,3.8259,10.1131,1317,2857.42
12184,-0.1341,2.0997,11.0744,1319,2857.42
12189,-1.8794,-1.5742,12.4714,1305,2857.42
12194,-3.5973,1.1851,9.8881,1309,2857.42
12199,1.3396,3.3782,9.9072,1316,2857.28
12204,1.2857,2.8012,10.6662,1316,2857.28
12209,-1.2582,-1.081,12.4439,1308,2857.28
12214,-4.1743,0.4405,10.5704,1315,2857.28
12219,0.8308,2.9688,9.5146,1309,2857.42
12231,0.0,-29.9981,0.1556,1310,2857.42
12234,-4.1372,-0.3256,11.3617,1305,2857.42
12239,-0.0084,2.6492,9.3027,1308,2857.42
12244,1.8411,3.9851,10.2891,1311,2857.42
12249,-1.719,0.8128,11.9207,1317,2857.42
12254,-3.5374,-1.0451,12.0153,1311,2857.42
12259,-1.1241,2.2924,9.1075,1309,2857.42
12264,1.7933,4.0175,10.173,1319,2857.42
12269,-1.4964,1.4617,11.5017,1309,2857.42
12274,-2.7701,-1.4952,12.3385,1316,2857.42
12279,-2.393,1.8375,9.2859,1308,2857.82
12284,1.6364,3.7373,10.0592,1317,2857.82
12289,-0.2789,2.0889,11.0852,1319,2857.82
12294,-1.9609,-1.5479,12.5109,1307,2857.82
12299,-3.5614,1.227,9.8737,1305,2857.82
12304,1.3001,3.4225,9.8342,1315,2857.69
12309,1.2294,2.8287,10.805,1307,2857.69
12314,-1.3767,-1.0666,12.4463,1309,2857.69
12319,-4.1934,0.4788,10.6171,1307,2857.69
12324,0.8499,3.0323,9.5469,1307,2857.82
12329,1.913,3.5279,10.5477,1317,2857.82
12334,-1.2582,-0.1712,12.2787,1309,2857.82
12339,-4.0773,-0.3579,11.4048,1309,2857.82
12344,0.0718,2.6372,9.238,1309,2857.82
12349,1.8435,3.9229,10.2819,1315,2857.82
12354,-1.6604,0.7207,11.91,1316,2857.82
12359,-3.6452,-1.0367,12.0033,1309,2857.82
12364,-1.081,2.3056,9.1626,1307,2857.96
12369,1.6975,4.0402,10.2352,1319,2857.96
12374,-1.5933,1.4521,11.5329,1311,2857.96
12379,-2.8299,-1.421,12.3661,1311,2857.96
12384,-2.3427,1.8651,9.3063,1309,2857.82
12389,1.6496,3.8044,10.0796,1311,2857.82
12394,-0.2933,2.0746,11.145,1321,2857.82
12399,-1.9106,-1.5251,12.4498,1304,2857.82
12404,-3.4465,1.3048,9.8318,1307,2857.82
12409,1.4162,3.4213,9.9048,1311,2858.1
12414,1.2151,2.739,10.7452,1312,2858.1
12419,-1.2785,-1.1552,12.4056,1305,2858.1
12424,-4.148,0.5064,10.5117,1308,2858.1
12429,0.8691,2.964,9.5289,1305,2858.23
12434,1.8292,3.4309,10.4818,1311,2858.23
12439,-1.2546,-0.1784,12.3756,1311,2858.23
12444,-4.1539,-0.2598,11.2779,1316,2858.23
12449,0.1425,2.6803,9.3063,1309,2858.23
12454,1.81,3.9337,10.2999,1309,2858.23
12459,-1.7214,0.7183,12.0249,1319,2858.23
12464,-3.6595,-0.9697,11.9171,1311,2858.23
12469,-0.9601,2.3475,9.1351,1309,2858.1
12474,1.7789,3.9887,10.1694,1321,2858.1
12479,-1.6005,1.3922,11.5867,1310,2858.1
12484,-2.8754,-1.4856,12.3265,1312,2858.1
12489,-2.2266,1.8806,9.232,1317,2858.1
12494,1.6352,3.7589,10.064,1319,2858.1
12499,-0.4034,2.0219,11.1761,1319,2858.1
12504,-2.0171,-1.5981,12.4726,1307,2858.1
12509,-3.4548,1.3264,9.7217,1307,2858.1
12514,1.4341,3.4453,9.9036,1315,2857.96
12519,1.0247,2.7306,10.8433,1316,2857.96
12524,-1.4018,-1.1049,12.4642,1311,2857.96
12529,-4.0701,0.6141,10.5213,1315,2857.96
12534,0.9661,3.0849,9.5313,1304,2858.23
12539,1.8364,3.468,10.574,1309,2858.23
12544,-1.2342,-0.2418,12.2882,1317,2858.23
12549,-4.1168,-0.2047,11.2504,1309,2858.23
12554,0.1652,2.7007,9.2512,1311,2858.37
12559,1.8387,3.869,10.331,1311,2858.37
12564,-1.6592,0.6452,11.9806,1309,2858.37
12569,-3.7002,-1.0032,11.9135,1307,2858.37
12574,-0.9385,2.3655,9.1063,1305,2858.37
12579,1.737,4.0199,10.252,1319,2858.37
12584,-1.6807,1.3276,11.5556,1311,2858.37
12589,-2.9341,-1.4353,12.2978,1309,2858.37
12594,-2.2218,1.9704,9.2739,1315,2858.23
12599,1.6628,3.8391,10.1263,1315,2858.23
12604,-0.5363,1.986,11.1558,1319,2858.23
12609,-2.0626,-1.5538,12.4762,1304,2858.23
12614,-3.4141,1.397,9.7624,1304,2858.23
12619,1.4664,3.4656,9.9407,1317,2858.1
12624,1.0235,2.6456,10.8254,1316,2858.1
12629,-1.3827,-1.2151,12.4953,1309,2858.1
12634,-4.0881,0.6033,10.4136,1317,2858.1
12639,0.9565,3.0167,9.6163,1309,2858.5
12644,1.7968,3.3639,10.5309,1311,2858.5
12649,-1.2857,-0.3926,12.2906,1310,2858.5
12654,-4.1635,-0.1437,11.2611,1309,2858.5
12659,0.2514,2.7402,9.3111,1309,2858.1
12664,1.816,3.9229,10.2999,1317,2858.1
12669,-1.7154,0.6213,12.0009,1309,2858.1
12674,-3.7421,-0.8715,11.8549,1309,2858.1
12679,-0.8021,2.4026,9.159,1307,2857.96
12684,1.7573,4.0354,10.2185,1318,2857.96
12689,-1.7083,1.3467,11.6286,1306,2857.96
12694,-2.9257,-1.3898,12.2404,1309,2857.96
12699,-2.0734,1.9776,9.244,1311,2857.42
12704,1.6831,3.8128,10.082,1310,2857.42
12709,-0.662,1.9058,11.1869,1317,2857.42
12714,-2.1272,-1.6723,12.4343,1305,2857.42
12719,-3.2944,1.3695,9.6857,1309,2857.42
12724,1.4497,3.4632,9.9683,1316,2858.1
12729,0.8475,2.6588,10.8673,1311,2858.1
12734,-1.4341,-1.2186,12.4044,1307,2858.1
12739,-4.045,0.7087,10.4327,1317,2858.1
12744,1.0511,3.1256,9.6702,1305,2857.82
12749,1.7813,3.3866,10.477,1309,2857.82
12754,-1.245,-0.3651,12.3014,1310,2857.82
12759,-4.1539,-0.1149,11.1857,1309,2857.82
12764,0.3053,2.7569,9.3182,1311,2857.96
12769,1.8687,3.8247,10.2915,1311,2857.96
12774,-1.6269,0.5543,11.9842,1311,2857.96
12779,-3.729,-0.8978,11.8585,1310,2857.96
12784,-0.7649,2.3703,9.0788,1309,2858.23
12789,1.7478,3.9684,10.2496,1316,2858.23
12794,-1.7657,1.2965,11.6143,1311,2858.23
12799,-3.0514,-1.3527,12.3158,1309,2858.23
12804,-2.0566,2.0375,9.2703,1316,2858.37
12809,1.6652,3.8571,10.2005,1316,2858.37
12814,-0.759,1.8986,11.1869,1316,2858.37
12819,-2.2015,-1.549,12.4953,1307,2858.37
12824,-3.2621,1.4473,9.6367,1315,2858.37
12829,1.5479,3.5542,9.912,1316,2858.5
12834,0.8667,2.5283,10.8517,1312,2858.5
12839,-1.4341,-1.245,12.4702,1309,2858.5
12844,-4.0199,0.723,10.3681,1315,2858.5
12849,1.063,3.0885,9.59,1306,2858.37
12854,1.7178,3.3016,10.5632,1309,2858.37
12859,-1.2438,-0.4609,12.2966,1309,2858.37
12864,-4.2198,-0.1113,11.1282,1309,2858.37
12869,0.31,2.7174,9.2883,1315,2858.5
12874,1.81,3.8391,10.4208,1311,2858.5
12879,-1.6712,0.4549,12.0428,1307,2858.5
12884,-3.8104,-0.7398,11.819,1312,2858.5
12889,-0.6919,2.4433,9.1159,1308,2858.37
12894,1.8016,4.057,10.252,1312,2858.37
12899,-1.8304,1.227,11.6765,1311,2858.37
12904,-3.0203,-1.2893,12.2535,1308,2858.37
12909,-1.9285,2.0734,9.2141,1311,2858.23
12914,1.7394,3.8487,10.1574,1317,2858.23
12919,-0.7542,1.816,11.2683,1315,2858.23
12924,-2.2087,-1.6029,12.3972,1308,2858.23
12929,-3.1687,1.4724,9.6235,1309,2858.23
12934,1.5239,3.4919,9.9611,1319,2858.37
12939,0.6895,2.5486,10.89,1316,2858.37
12944,-1.5502,-1.3491,12.4582,1306,2858.37
12949,-3.9863,0.7829,10.3717,1319,2858.37
12954,1.1301,3.1508,9.6774,1308,2858.78
12959,1.6939,3.2669,10.6123,1307,2858.78
12964,-1.2402,-0.5267,12.2823,1307,2858.78
12969,-4.1527,0.0479,11.0576,1310,2858.78
12974,0.4848,2.8192,9.3302,1315,2859.05
12979,1.9393,3.7709,10.3418,1311,2859.05
12984,-1.5598,0.4082,12.0871,1309,2859.05
12989,-3.8116,-0.7733,11.7675,1315,2859.05
12994,-0.5363,2.4265,9.1111,1307,2859.46
12999,1.7621,3.9385,10.2556,1312,2859.46
13004,-1.8375,1.1396,11.6813,1308,2859.46
13009,-3.1867,-1.3276,12.2356,1309,2859.46
13014,-1.8316,2.1081,9.183,1311,2859.32
13019,1.6795,3.869,10.1993,1311,2859.32
13024,-0.9625,1.7813,11.309,1311,2859.32
13029,-2.3691,-1.549,12.4534,1309,2859.32
13034,-3.0394,1.5706,9.6007,1307,2859.46
13039,1.5802,3.5757,9.9922,1317,2859.46
13044,0.6512,2.4265,10.9032,1318,2859.46
13049,-1.5778,-1.33,12.4235,1307,2859.46
13054,-3.9289,0.8487,10.1706,1319,2859.46
13059,1.1959,3.1699,9.7085,1306,2859.46
13064,1.6676,3.1292,10.5943,1309,2859.46
13069,-1.221,-0.6369,12.3613,1305,2859.46
13074,-4.1887,0.0275,10.9547,1307,2859.46
13079,0.4812,2.7821,9.3913,1319,2859.73
13084,1.8172,3.7338,10.4459,1311,2859.73
13089,-1.579,0.2921,12.1314,1307,2859.73
13094,-3.9349,-0.668,11.6526,1315,2859.73
13099,-0.4369,2.4995,9.1207,1307,2859.87
13104,1.8244,4.0546,10.2903,1309,2859.87
13109,-1.8639,1.0894,11.7436,1307,2859.87
13114,-3.2238,-1.2055,12.1494,1309,2859.87
13119,-1.6544,2.138,9.1435,1307,2859.73
13124,1.7909,3.9253,10.1885,1316,2859.73
13129,-1.0786,1.6676,11.2815,1308,2859.73
13134,-2.4122,-1.5981,12.4367,1311,2859.73
13139,-2.9149,1.5538,9.5229,1311,2859.05
13144,1.5933,3.5781,9.997,1316,2859.05
13149,0.3663,2.3523,10.9415,1311,2859.05
13154,-1.6927,-1.4629,12.4044,1307,2859.05
13159,-3.8343,0.9649,10.1742,1318,2859.05
13164,1.1995,3.2322,9.6857,1309,2860.0
13169,1.4748,3.1568,10.6781,1307,2860.0
13174,-1.3156,-0.7159,12.3732,1309,2860.0
13179,-4.1791,0.1891,10.969,1311,2860.0
13184,0.6812,2.8395,9.3745,1315,2859.73
13189,1.9309,3.7098,10.386,1308,2859.73
13194,-1.5311,0.176,12.1578,1305,2859.73
13199,-3.9552,-0.5567,11.6191,1317,2859.73
13204,-0.2729,2.5139,9.0992,1309,2859.73
13209,1.8639,3.9612,10.2843,1310,2859.73
13214,-1.8579,1.0139,11.7567,1310,2859.73
13219,-3.3172,-1.2186,12.1159,1311,2859.73
13224,-1.5383,2.1632,9.1423,1311,2859.87
13229,1.67,3.9109,10.2256,1316,2859.87
13234,-1.3168,1.6328,11.4251,1309,2859.87
13239,-2.6025,-1.5706,12.408,1315,2859.87
13244,-2.7976,1.7298,9.4691,1315,2859.87
13249,1.6472,3.6464,9.9982,1309,2859.87
13254,0.2837,2.2757,11.0349,1309,2859.87
13259,-1.7418,-1.4485,12.4355,1307,2859.87
13264,-3.7589,1.0415,10.076,1317,2859.87
13269,1.3264,3.2417,9.809,1305,2859.73
13274,1.5048,2.9999,10.6805,1309,2859.73
13279,-1.2414,-0.8368,12.3277,1309,2859.73
13284,-4.203,0.249,10.7428,1309,2859.73
13289,0.7183,2.9018,9.4523,1309,2859.87
13294,1.9309,3.6296,10.4375,1309,2859.87
13299,-1.4664,0.0862,12.1566,1305,2859.87
13304,-4.0689,-0.4729,11.5257,1317,2859.87
13309,-0.2227,2.5618,9.1937,1309,2860.0
13314,1.8316,3.9816,10.3382,1309,2860.0
13319,-1.9118,0.8882,11.8944,1308,2860.0
13324,-3.4441,-1.1013,12.0524,1311,2860.0
13329,-1.336,2.2505,9.1494,1309,2859.87
13334,1.7861,3.9768,10.1766,1316,2859.87
13339,-1.385,1.5443,11.4335,1307,2859.87
13344,-2.5845,-1.5179,12.3972,1317,2859.87
13349,-2.6205,1.7561,9.3506,1310,2859.59
13354,1.6963,3.6392,10.0736,1308,2859.59
13359,0.0156,2.1452,11.0253,1312,2859.59
13364,-1.8603,-1.5838,12.4786,1307,2859.59
13369,-3.6835,1.1564,9.9395,1319,2859.59
13374,1.385,3.3387,9.8055,1277,2859.87
13379,1.2845,2.9245,10.7548,1305,2859.87
13384,-1.3467,-0.9541,12.3888,1309,2859.87
13389,-4.1456,0.4142,10.6901,1307,2859.87
13394,0.8212,2.9185,9.5134,1317,2859.59
13399,1.8962,3.5901,10.4423,1311,2859.59
13404,-1.4365,-0.0036,12.1673,1297,2859.59
13409,-3.9995,-0.3651,11.5185,1317,2859.59
13414,-0.0431,2.6205,9.1614,1309,2859.32
13419,1.8627,3.948,10.3681,1310,2859.32
13424,-1.816,0.7817,11.8525,1315,2859.32
13429,-3.4979,-1.0738,12.0141,1312,2859.32
13434,-1.1983,2.2529,9.0237,1311,2859.73
13439,1.7394,3.9516,10.2316,1309,2859.73
13444,-1.5538,1.4629,11.461,1309,2859.73
13449,-2.7617,-1.4688,12.3984,1319,2859.73
13454,-2.5187,1.8471,9.3063,1311,2859.32
13459,1.6951,3.7397,10.1239,1311,2859.32
13464,-0.1472,2.1201,11.0349,1319,2859.32
13469,-1.968,-1.5071,12.4654,1308,2859.32
13474,-3.5805,1.2043,9.9204,1317,2859.32
13479,1.4629,3.3854,9.8545,1305,2860.82
13484,1.2857,2.7988,10.7691,1309,2860.82
13489,-1.3611,-1.057,12.4008,1315,2860.82
13494,-4.1288,0.4549,10.6135,1307,2860.82
13499,0.9194,2.9485,9.4559,1305,2860.28
13504,1.8818,3.5255,10.4447,1311,2860.28
13509,-1.3587,-0.1951,12.2607,1306,2860.28
13514,-4.142,-0.3041,11.3617,1309,2860.28
13519,0.0239,2.6564,9.2536,1301,2860.14
13524,1.8148,3.9612,10.2939,1309,2860.14
13529,-1.8531,0.7003,11.9231,1309,2860.14
13534,-3.6368,-0.9313,11.9734,1311,2860.14
13539,-1.0343,2.3367,9.1159,1305,2860.14
13544,1.804,4.0067,10.2017,1318,2860.14
13549,-1.646,1.4042,11.5927,1305,2860.14
13554,-2.8443,-1.4198,12.3313,1320,2860.14
13559,-2.2793,1.9237,9.2979,1307,2859.87
13564,1.7561,3.7721,10.0245,1308,2859.87
13569,-0.3759,2.0099,11.1318,1315,2859.87
13574,-2.0387,-1.5933,12.4463,1308,2859.87
13579,-3.4213,1.3348,9.7899,1307,2859.87
13584,1.4808,3.3806,9.8833,1304,2860.0
13589,1.0906,2.727,10.8613,1307,2860.0
13594,-1.4748,-1.148,12.4211,1307,2860.0
13599,-4.1096,0.6117,10.4603,1304,2860.0
13604,1.0008,3.0239,9.5433,1305,2860.28
13609,1.7957,3.4872,10.5644,1315,2860.28
13614,-1.3491,-0.2789,12.3026,1302,2860.28
13619,-4.1563,-0.1329,11.2073,1307,2860.28
13624,0.2753,2.7294,9.2835,1306,2859.87
13629,1.9082,3.863,10.404,1307,2859.87
13634,-1.743,0.6117,11.977,1311,2859.87
13639,-3.6727,-0.8882,11.819,1308,2859.87
13644,-0.8212,2.3511,9.0752,1307,2859.87
13649,1.7849,3.9851,10.2891,1317,2859.87
13654,-1.7406,1.2677,11.5628,1309,2859.87
13659,-2.9592,-1.3862,12.2691,1311,2859.87
13664,-2.1751,1.9261,9.268,1307,2859.87
13669,1.6676,3.8642,10.1418,1306,2859.87
13674,-0.6093,1.9022,11.1199,1317,2859.87
13679,-2.1703,-1.5742,12.4558,1304,2859.87
13684,-3.3459,1.3719,9.7181,1308,2859.87
13689,1.5347,3.5015,9.9838,1303,2860.41
13694,0.9948,2.6312,10.8481,1308,2860.41
13699,-1.4664,-1.1791,12.4427,1309,2860.41
13704,-4.0701,0.674,10.4782,1305,2860.41
13709,1.093,3.1005,9.5457,1299,2860.96
13714,1.7885,3.3124,10.5093,1315,2860.96
13719,-1.3048,-0.3926,12.2116,1307,2860.96
13724,-4.1408,-0.1341,11.169,1307,2860.96
13729,0.3496,2.6935,9.2644,1307,2861.23
13734,1.9094,3.8475,10.4028,1309,2861.23
13739,-1.7071,0.4776,12.0728,1311,2861.23
13744,-3.8391,-0.8045,11.8728,1307,2861.23
13749,-0.7075,2.393,9.0525,1304,2861.23
13754,1.8196,4.0115,10.2615,1317,2861.23
13759,-1.8423,1.2079,11.6717,1307,2861.23
13764,-3.0849,-1.3036,12.2679,1310,2861.23
13769,-1.9225,2.0638,9.2237,1309,2861.23
13774,1.8112,3.9385,10.143,1311,2861.23
13779,-0.8224,1.8064,11.321,1308,2861.23
13784,-2.2494,-1.5826,12.4091,1304,2861.23
13789,-3.0981,1.5191,9.5708,1305,2861.23
13794,1.6269,3.4919,9.9132,1310,2861.23
13799,0.7374,2.49,10.9607,1311,2861.23
13804,-1.561,-1.4257,12.3924,1306,2861.23
13809,-3.9708,0.8332,10.2951,1307,2861.23
13814,1.1552,3.122,9.6343,1306,2861.5
13819,1.6855,3.237,10.6769,1308,2861.5
13824,-1.3204,-0.644,12.3002,1309,2861.5
13829,-4.1875,0.085,11.0157,1305,2861.5
13834,0.4908,2.812,9.3877,1309,2861.91
13839,1.9453,3.79,10.4303,1309,2861.91
13844,-1.6436,0.316,12.0656,1311,2861.91
13849,-3.9421,-0.6416,11.649,1307,2861.91
13854,-0.4238,2.5438,9.1506,1305,2862.19
13859,1.8735,4.0043,10.2783,1317,2862.19
13864,-1.8435,1.0702,11.7711,1307,2862.19
13869,-3.2394,-1.2462,12.147,1304,2862.19
13874,-1.67,2.1261,9.1877,1311,2862.05
13879,1.7609,3.8164,10.2113,1315,2862.05
13884,-1.0714,1.6544,11.3401,1311,2862.05
13889,-2.4936,-1.6161,12.3852,1305,2862.05
13894,-2.9544,1.6197,9.4966,1308,2862.05
13899,1.6376,3.5817,10.0353,1315,2861.78
13904,0.4238,2.3619,10.9283,1312,2861.78
13909,-1.743,-1.3934,12.4738,1303,2861.78
13914,-3.8523,1.0211,10.1754,1315,2861.78
13919,1.3132,3.2681,9.7444,1303,2861.37
13924,1.6305,3.0658,10.6434,1309,2861.37
13929,-1.3384,-0.7338,12.4044,1302,2861.37
13934,-4.2162,0.1628,10.89,1305,2861.37
13939,0.6608,2.8838,9.402,1302,2861.5
13944,1.9225,3.6847,10.4208,1309,2861.5
13949,-1.5682,0.1724,12.1709,1302,2861.5
13954,-4.0079,-0.5794,11.6023,1310,2861.5
13959,-0.2418,2.4983,9.0932,1305,2861.37
13964,1.8172,3.978,10.3585,1307,2861.37
13969,-1.9489,0.9266,11.8585,1301,2861.37
13974,-3.4213,-1.1301,12.1171,1306,2861.37
13979,-1.4593,2.1859,9.1147,1306,2861.91
13984,1.8268,4.0067,10.2065,1312,2861.91
13989,-1.3791,1.6089,11.4575,1305,2861.91
13994,-2.6157,-1.5251,12.3649,1305,2861.91
13999,-2.6995,1.7502,9.3625,1307,2861.64
14004,1.7585,3.729,10.0114,1307,2861.64
14009,0.1317,2.1931,11.0121,1304,2861.64
14014,-1.8842,-1.5012,12.4439,1303,2861.64
14019,-3.6859,1.0834,10.0221,1316,2861.64
14024,1.3838,3.3303,9.7995,1307,2861.5
14029,1.3958,2.9281,10.7524,1304,2861.5
14034,-1.3683,-0.9254,12.3888,1305,2861.5
14039,-4.2174,0.3938,10.7404,1310,2861.5
14044,0.7973,2.9233,9.4535,1311,2861.23
14049,1.8675,3.6069,10.5082,1300,2861.23
14054,-1.5095,-0.0419,12.2188,1305,2861.23
14059,-4.0953,-0.3376,11.4982,1311,2861.23
14064,-0.0072,2.6564,9.1913,1305,2861.09
14069,1.8747,3.9516,10.3262,1306,2861.09
14074,-1.8771,0.8212,11.8369,1311,2861.09
14079,-3.5195,-0.9888,12.0261,1309,2861.09
14084,-1.1995,2.2913,9.098,1307,2861.09
14089,1.7765,3.9564,10.1813,1304,2861.09
14094,-1.5646,1.4413,11.4886,1305,2861.09
14099,-2.7653,-1.5095,12.3014,1311,2861.09
14104,-2.5079,1.8208,9.3996,1309,2861.37
14109,1.6544,3.6943,10.094,1304,2861.37
14114,-0.1616,2.0973,11.0564,1309,2861.37
14119,-2.0099,-1.5622,12.5109,1305,2861.37
14124,-3.559,1.2665,9.924,1315,2861.37
14129,1.4617,3.4046,9.918,1300,2861.78
14134,1.2617,2.8299,10.7763,1307,2861.78
14139,-1.4365,-1.0307,12.4487,1309,2861.78
14144,-4.1144,0.5207,10.6159,1307,2861.78
14149,0.9637,3.0155,9.5421,1305,2861.78
14154,1.907,3.4776,10.495,1306,2861.78
14159,-1.3862,-0.1951,12.2679,1303,2861.78
14164,-4.1228,-0.3388,11.3138,1316,2861.78
14169,0.1472,2.6217,9.1794,1299,2862.19
14174,1.8687,3.8882,10.3549,1305,2862.19
14179,-1.8232,0.65,12.0117,1309,2862.19
14184,-3.7218,-1.0092,11.9088,1304,2862.19
14189,-0.9828,2.3547,9.0836,1305,2862.46
14194,1.7789,3.9875,10.2484,1308,2862.46
14199,-1.7406,1.3276,11.5389,1303,2862.46
14204,-2.9688,-1.4377,12.2942,1311,2862.46
14209,-2.217,1.9932,9.3266,1305,2862.46
14214,1.7909,3.8355,10.1502,1305,2862.46
14219,-0.4776,1.9309,11.1869,1312,2862.46
14224,-2.0758,-1.567,12.4666,1297,2862.46
14229,-3.3555,1.3779,9.7121,1309,2862.46
14234,1.5814,3.4309,9.9407,1301,2862.32
14239,0.99,2.5869,10.8804,1305,2862.32
14244,-1.5,-1.227,12.4798,1303,2862.32
14249,-4.0953,0.6895,10.4363,1303,2862.32
14254,1.0451,3.0514,9.5684,1299,2862.19
14259,1.7789,3.3315,10.5824,1309,2862.19
14264,-1.3623,-0.3903,12.2906,1305,2862.19
14269,-4.2126,-0.0706,11.2061,1307,2862.19
14274,0.3711,2.7952,9.2919,1301,2861.78
14279,1.8878,3.9109,10.4363,1307,2861.78
14284,-1.7514,0.4944,12.0165,1306,2861.78
14289,-3.7685,-0.723,11.8214,1304,2861.78
14294,-0.6249,2.4277,9.0824,1304,2861.78
14299,1.889,4.0354,10.2951,1311,2861.78
14304,-1.8387,1.1899,11.6478,1306,2861.78
14309,-3.0646,-1.3539,12.2835,1309,2861.78
14314,-1.9405,2.0051,9.2392,1305,2861.5
14319,1.7645,3.8367,10.1658,1293,2861.5
14324,-0.8045,1.7538,11.2623,1311,2861.5
14329,-2.332,-1.5981,12.3768,1300,2861.5
14334,-3.1711,1.4772,9.6199,1304,2861.5
14339,1.5467,3.5195,9.9754,1307,2861.37
14344,0.6656,2.5606,10.9714,1307,2861.37
14349,-1.6424,-1.2989,12.4822,1304,2861.37
14354,-3.9792,0.8356,10.3106,1304,2861.37
14359,1.2258,3.1639,9.6786,1301,2861.91
14364,1.7897,3.2382,10.5991,1307,2861.91
14369,-1.3096,-0.5519,12.2727,1307,2861.91
14374,-4.2078,0.0335,11.0265,1305,2861.91
14379,0.5124,2.7916,9.3218,1301,2862.05
14384,1.9453,3.7924,10.3908,1307,2862.05
14389,-1.5766,0.3136,12.1087,1305,2862.05
14394,-3.9217,-0.6776,11.6789,1302,2862.05
14399,-0.492,2.4588,9.0932,1301,2862.19
14404,1.8052,3.978,10.2699,1311,2862.19
14409,-1.8974,1.0223,11.7651,1301,2862.19
14414,-3.3459,-1.2414,12.1829,1305,2862.19
14419,-1.7023,2.2039,9.1997,1307,2862.19
14424,1.8124,3.9421,10.2747,1309,2862.19
14429,-1.1169,1.743,11.382,1307,2862.19
14434,-2.4684,-1.5239,12.3517,1301,2862.19
14439,-2.9197,1.6676,9.5158,1304,2862.19
14444,1.6819,3.5949,9.9886,1311,2862.46
14449,0.4238,2.3008,10.9487,1307,2862.46
14454,-1.6975,-1.4509,12.4367,1303,2862.46
14459,-3.881,0.9852,10.0987,1311,2862.46
14464,1.2833,3.2394,9.7181,1306,2862.46
14469,1.5538,3.0011,10.6865,1305,2862.46
14474,-1.3384,-0.8116,12.378,1307,2862.46
14479,-4.2413,0.2227,10.9068,1306,2862.46
14484,0.6823,2.8323,9.4296,1309,2862.32
14489,1.8723,3.6619,10.5082,1311,2862.32
14494,-1.634,0.1413,12.1769,1305,2862.32
14499,-4.0282,-0.4238,11.5712,1308,2862.32
14504,-0.1544,2.5726,9.1482,1304,2862.19
14509,1.913,3.9935,10.3346,1309,2862.19
14514,-1.913,0.929,11.8298,1304,2862.19
14519,-3.4058,-1.1037,12.0799,1304,2862.19
14524,-1.3659,2.1847,9.0441,1309,2861.91
14529,1.8076,3.9696,10.2376,1311,2861.91
14534,-1.3288,1.5071,11.4287,1309,2861.91
14539,-2.63,-1.5335,12.3265,1307,2861.91
14544,-2.6923,1.6855,9.3482,1309,2861.5
14549,1.6891,3.6811,10.082,1311,2861.5
14554,0.0778,2.2039,11.0552,1311,2861.5
14559,-1.8794,-1.5119,12.4223,1303,2861.5
14564,-3.7182,1.1456,10.0042,1320,2861.5
14569,1.4413,3.3243,9.8366,1304,2861.91
14574,1.4066,2.9401,10.7452,1305,2861.91
14579,-1.4317,-0.8631,12.3756,1304,2861.91
14584,-4.1647,0.4525,10.7045,1305,2861.91
14589,0.8547,2.9856,9.4667,1306,2861.64
14594,2.0123,3.5769,10.5309,1308,2861.64
14599,-1.4329,-0.0347,12.1781,1305,2861.64
14604,-4.0941,-0.4154,11.4395,1311,2861.64
14609,-0.0251,2.5774,9.1746,1305,2861.64
14614,1.8555,3.9049,10.2819,1320,2861.64
14619,-1.919,0.759,11.8776,1305,2861.64
14624,-3.6129,-0.9924,12.0213,1305,2861.64
14629,-1.16,2.3008,9.0728,1303,2861.78
14634,1.7813,4.0055,10.2568,1311,2861.78
14639,-1.6041,1.4629,11.576,1293,2861.78
14644,-2.8431,-1.4174,12.3684,1309,2861.78
14649,-2.4505,1.9225,9.3314,1305,2861.78
14654,1.8112,3.729,10.094,1306,2861.78
14659,-0.2095,2.0482,11.1498,1307,2861.78
14664,-1.962,-1.5323,12.4235,1304,2861.78
14669,-3.4632,1.306,9.8521,1309,2861.78
14674,1.5191,3.3279,9.833,1303,2861.64
14679,1.2378,2.7438,10.8433,1301,2861.64
14684,-1.3922,-1.1384,12.4139,1307,2861.64
14689,-4.1228,0.504,10.5872,1304,2861.64
14694,0.9337,3.0035,9.5457,1305,2861.5
14699,1.8447,3.4596,10.5728,1305,2861.5
14704,-1.4425,-0.2598,12.2727,1303,2861.5
14709,-4.1922,-0.1796,11.2803,1311,2861.5
14714,0.1808,2.745,9.2907,1307,2861.5
14719,1.8783,3.9277,10.4004,1305,2861.5
14724,-1.8411,0.6776,11.9423,1311,2861.5
14729,-3.6715,-0.9218,11.8513,1307,2861.5
14734,-0.8763,2.3703,9.0561,1306,2861.78
14739,1.8639,4.0067,10.2484,1309,2861.78
14744,-1.7011,1.3096,11.5544,1306,2861.78
14749,-2.9149,-1.4533,12.2918,1316,2861.78
14754,-2.2015,1.8914,9.2249,1308,2861.91
14759,1.7394,3.7194,10.1466,1303,2861.91
14764,-0.5064,1.8675,11.1678,1311,2861.91
14769,-2.1847,-1.5718,12.4391,1301,2861.91
14774,-3.3902,1.409,9.6917,1315,2861.91
14779,1.5562,3.486,9.9467,1303,2861.91
14784,0.9445,2.6504,10.8745,1304,2861.91
14789,-1.5574,-1.1779,12.4762,1306,2861.91
14794,-4.0845,0.7123,10.3753,1301,2861.91
14799,1.136,3.1268,9.5888,1302,2861.37
14804,1.8914,3.3615,10.5572,1308,2861.37
14809,-1.324,-0.3627,12.2906,1306,2861.37
14814,-4.1372,-0.1137,11.224,1308,2861.37
14819,0.3855,2.7438,9.3122,1301,2860.96
14824,1.8962,3.8008,10.416,1307,2860.96
14829,-1.7023,0.4585,11.9997,1309,2860.96
14834,-3.8164,-0.8296,11.8309,1307,2860.96
14839,-0.7278,2.3774,9.0704,1307,2860.68
14844,1.798,4.0247,10.2544,1309,2860.68
14849,-1.8591,1.1768,11.6801,1302,2860.68
14854,-3.1292,-1.2869,12.2763,1315,2860.68
14859,-1.9261,2.0722,9.1566,1305,2860.82
14864,1.8076,3.8918,10.1598,1305,2860.82
14869,-0.8559,1.8028,11.2599,1311,2860.82
14874,-2.3104,-1.4784,12.4127,1305,2860.82
14879,-3.1627,1.5024,9.5972,1305,2860.82
14884,1.6604,3.5458,9.9371,1301,2860.41
14889,0.7853,2.4876,10.9774,1303,2860.41
14894,-1.5455,-1.3252,12.378,1307,2860.41
14899,-3.9983,0.7997,10.2915,1304,2860.41
14904,1.1217,3.1005,9.6247,1301,2861.09
14909,1.6951,3.2334,10.635,1312,2861.09
14914,-1.3922,-0.5962,12.2954,1299,2861.09
14919,-4.2784,0.0192,11.0816,1305,2861.09
14924,0.4872,2.806,9.3541,1304,2861.09
14929,1.901,3.808,10.4639,1309,2861.09
14934,-1.7454,0.3627,12.0261,1311,2861.09
14939,-3.9049,-0.5926,11.7184,1309,2861.09
14944,-0.4717,2.5139,9.1243,1306,2861.23
14949,1.9142,4.045,10.2819,1311,2861.23
14954,-1.8794,1.1085,11.7184,1305,2861.23
14959,-3.1879,-1.2665,12.1494,1310,2861.23
14964,-1.6795,2.0614,9.1614,1306,2861.37
14969,1.828,3.8415,10.1323,1306,2861.37
14974,-1.1025,1.6544,11.2958,1316,2861.37
14979,-2.4493,-1.6328,12.3996,1301,2861.37
14984,-3.0155,1.6077,9.5541,1302,2861.37
14989,1.6185,3.5518,10.0173,1309,2861.23
14994,0.425,2.4289,10.9966,1305,2861.23
14999,-1.7777,-1.3815,12.4702,1300,2861.23
15004,-3.9025,1.0247,10.1837,1304,2861.23
15009,1.3144,3.2286,9.7648,1303,2861.37
15014,1.6759,3.14,10.6326,1307,2861.37
15019,-1.3408,-0.7003,12.3756,1305,2861.37
15024,-4.197,0.1772,10.9451,1307,2861.37
15029,0.6943,2.8503,9.4104,1305,2861.64
15034,1.9477,3.6619,10.4351,1307,2861.64
15039,-1.5395,0.1437,12.1721,1307,2861.64
15044,-3.9708,-0.6333,11.5867,1309,2861.64
15049,-0.2981,2.4983,9.0824,1304,2861.64
15054,1.8172,3.9373,10.2819,1317,2861.64
15059,-1.9597,0.9577,11.7962,1305,2861.64
15064,-3.4285,-1.1899,12.1099,1307,2861.64
15069,-1.5012,2.2314,9.0944,1307,2861.37
15074,1.7681,3.9708,10.24,1309,2861.37
15079,-1.3515,1.6125,11.4407,1315,2861.37
15084,-2.545,-1.4832,12.3505,1303,2861.37
15089,-2.7414,1.7286,9.3422,1301,2861.37
15094,1.7609,3.6835,10.0257,1309,2861.09
15099,0.2286,2.2302,11.072,1307,2861.09
15104,-1.7837,-1.4868,12.4786,1302,2861.09
15109,-3.7158,1.0211,10.0389,1309,2861.09
15114,1.3958,3.2549,9.7396,1304,2861.37
15119,1.4521,2.9353,10.7021,1305,2861.37
15124,-1.3779,-0.9206,12.3912,1307,2861.37
15129,-4.2114,0.2825,10.8098,1303,2861.37
15134,0.7554,2.891,9.4391,1309,2861.23
15139,1.8723,3.6404,10.5393,1308,2861.23
15144,-1.5263,0.012,12.1123,1306,2861.23
15149,-4.0534,-0.3759,11.5173,1309,2861.23
15154,-0.0455,2.6097,9.1363,1305,2861.37
15159,1.9285,3.9911,10.3573,1305,2861.37
15164,-1.913,0.8535,11.8465,1305,2861.37
15169,-3.4656,-1.0403,12.0632,1303,2861.37
15174,-1.239,2.2673,9.0656,1309,2861.37
15179,1.8519,3.9504,10.2292,1311,2861.37
15184,-1.4593,1.4688,11.4251,1308,2861.37
15189,-2.6659,-1.5203,12.3505,1305,2861.37
15194,-2.5462,1.7753,9.3865,1306,2861.64
15199,1.7442,3.6404,10.0832,1311,2861.64
15204,-0.103,2.0734,11.1259,1315,2861.64
15209,-1.986,-1.5227,12.4415,1302,2861.64
15214,-3.638,1.2067,9.985,1311,2861.64
15219,1.4269,3.3519,9.8294,1303,2861.5
15224,1.2797,2.8635,10.7679,1307,2861.5
15229,-1.4162,-0.9792,12.3996,1301,2861.5
15234,-4.1348,0.5363,10.6123,1303,2861.5
15239,0.9337,3.0203,9.4858,1309,2861.23
15244,1.9908,3.535,10.5524,1309,2861.23
15249,-1.4653,-0.1233,12.226,1305,2861.23
15254,-4.0618,-0.3328,11.3617,1311,2861.23
15259,0.073,2.6384,9.2213,1304,2861.09
15264,1.8711,3.8678,10.3274,1307,2861.09
15269,-1.8699,0.6955,11.9758,1303,2861.09
15274,-3.6607,-0.9409,11.9052,1315,2861.09
15279,-1.0463,2.3152,9.1399,1302,2860.68
15284,1.7669,4.0223,10.2843,1311,2860.68
15289,-1.7262,1.4102,11.5831,1302,2860.68
15294,-2.8766,-1.3922,12.2559,1308,2860.68
15299,-2.326,1.9453,9.2919,1309,2862.19
15304,1.7992,3.796,10.0772,1309,2862.19
15309,-0.3519,2.0063,11.1737,1305,2862.19
15314,-2.0638,-1.5227,12.4427,1301,2862.19
15319,-3.4536,1.3348,9.8282,1311,2862.19
15324,1.5335,3.4309,9.9347,1308,2861.78
15329,1.1109,2.6935,10.8541,1303,2861.78
15334,-1.4126,-1.1492,12.39,1306,2861.78
15339,-4.1324,0.5842,10.3956,1305,2861.78
15344,1.0307,3.0119,9.584,1309,2861.64
15349,1.7861,3.3662,10.5548,1307,2861.64
15354,-1.421,-0.3328,12.2404,1301,2861.64
15359,-4.2198,-0.1221,11.2719,1311,2861.64
15364,0.2741,2.7593,9.3099,1309,2861.64
15369,1.8615,3.8846,10.325,1309,2861.64
15374,-1.8196,0.5471,11.9961,1308,2861.64
15379,-3.7505,-0.8116,11.8728,1306,2861.64
15384,-0.7614,2.3846,9.0465,1305,2861.91
15389,1.9142,4.0019,10.2915,1310,2861.91
15394,-1.8352,1.2258,11.5712,1305,2861.91
15399,-2.9928,-1.3874,12.2906,1311,2861.91
15404,-2.0602,1.962,9.1614,1305,2861.37
15409,1.8004,3.808,10.1766,1307,2861.37
15414,-0.7506,1.8364,11.2001,1315,2861.37
15419,-2.2613,-1.6245,12.4163,1305,2861.37
15424,-3.2741,1.4018,9.6546,1315,2861.37
15429,1.5778,3.474,9.973,1311,2862.19
15434,0.7781,2.5774,10.9212,1305,2862.19
15439,-1.6125,-1.245,12.4427,1307,2862.19
15444,-4.0306,0.7889,10.3669,1305,2862.19
15449,1.2043,3.1472,9.6247,1301,2861.5
15454,1.9884,3.8343,10.4136,1309,2861.5
15459,-1.7454,0.4298,12.0452,1304,2861.5
15464,-3.8044,-0.7697,11.8226,1306,2861.5
15469,0.4992,2.7557,9.2703,1301,2861.09
15474,1.8304,3.9516,10.3178,1304,2861.09
15479,-1.9046,1.1313,11.7148,1307,2861.09
15484,-3.1975,-1.2893,12.141,1307,2861.09
15489,-1.901,2.0782,9.1877,1301,2861.64
15494,1.7957,3.8463,10.2029,1307,2861.64
15499,-0.9613,1.7561,11.309,1303,2861.64
15504,-2.3427,-1.5359,12.3445,1317,2861.64
15509,-3.0933,1.5945,9.6079,1305,2861.23
15514,1.6544,3.5183,10.0149,1303,2861.23
15519,0.6692,2.4732,10.9487,1311,2861.23
15524,-1.555,-1.3467,12.39,1303,2861.23
15529,-3.8918,0.8882,10.2687,1309,2861.23
15534,1.2426,3.1532,9.6977,1301,2860.96
15539,1.6879,3.1891,10.6255,1303,2860.96
15544,-1.2917,-0.6416,12.3146,1307,2860.96
15549,-4.2509,0.0778,10.9834,1302,2860.96
15554,0.51,2.7916,9.3577,1304,2860.96
15559,1.8794,3.7505,10.4447,1316,2860.96
15564,-1.6604,0.2993,12.0835,1302,2860.96
15569,-3.9959,-0.5997,11.7196,1304,2860.96
15574,-0.4776,2.5307,9.1818,1302,2861.09
15579,1.8651,4.0318,10.2999,1304,2861.09
15584,-1.901,1.0606,11.7412,1311,2861.09
15589,-3.2884,-1.1923,12.1338,1304,2861.09
15594,-1.6233,2.162,9.147,1293,2860.68
15599,1.8818,3.8822,10.1789,1311,2860.68
15604,-1.1827,1.6723,11.3641,1305,2860.68
15609,-2.4289,-1.549,12.3756,1311,2860.68
15614,-2.9173,1.5957,9.5014,1305,2860.0
15619,1.7071,3.5961,10.0137,1303,2860.0
15624,0.4094,2.3715,11.0085,1319,2860.0
15629,-1.7202,-1.4868,12.4127,1302,2860.0
15634,-3.9109,1.0032,10.1251,1304,2860.0
15639,1.3324,3.2298,9.7911,1305,2859.73
15644,1.5742,3.1029,10.6877,1305,2859.73
15649,-1.3838,-0.7326,12.3577,1305,2859.73
15654,-4.2054,0.2526,10.9164,1292,2859.73
15659,0.7027,2.891,9.4068,1292,2859.73
15664,1.9561,3.6739,10.4471,1309,2859.73
15669,-1.5933,0.1867,12.1326,1307,2859.73
15674,-3.9373,-0.5483,11.5784,1303,2859.73
15679,-0.2251,2.5534,9.1758,1305,2859.59
15684,1.8711,3.9756,10.3896,1307,2859.59
15689,-1.9046,0.9505,11.7615,1309,2859.59
15694,-3.3986,-1.2246,12.0165,1303,2859.59
15699,-1.4784,2.1763,9.0812,1301,2860.0
15704,1.8196,3.9061,10.24,1311,2860.0
15709,-1.403,1.5718,11.3964,1303,2860.0
15714,-2.6013,-1.4676,12.3672,1309,2860.0
15719,-2.8012,1.7466,9.4631,1303,2860.0
15724,1.7059,3.6655,10.0904,1307,2860.0
15729,0.1736,2.2446,11.0205,1316,2860.0
15734,-1.7549,-1.4126,12.4115,1301,2860.0
15739,-3.7709,1.0678,10.0413,1301,2860.0
15744,1.391,3.2633,9.7396,1308,2859.87
15749,1.5119,2.9425,10.7727,1307,2859.87
15754,-1.3838,-0.8583,12.3684,1303,2859.87
15759,-4.221,0.3208,10.8505,1301,2859.87
15764,0.7697,2.8671,9.4164,1304,2860.41
15769,1.8902,3.5769,10.5141,1305,2860.41
15774,-1.5287,-0.0084,12.1194,1307,2860.41
15779,-4.057,-0.4549,11.5113,1303,2860.41
15784,-0.146,2.5917,9.2476,1307,2860.28
15789,1.9046,3.9828,10.3334,1309,2860.28
15794,-1.9477,0.8607,11.8728,1307,2860.28
15799,-3.4967,-1.0738,12.0716,1306,2860.28
15804,-1.2929,2.2553,9.1482,1305,2860.41
15809,1.9249,3.9624,10.1562,1311,2860.41
15814,-1.5179,1.5371,11.4658,1305,2860.41
15819,-2.6624,-1.5131,12.3337,1304,2860.41
15824,-2.5953,1.731,9.3984,1309,2860.96
15829,1.7454,3.6943,10.0628,1307,2860.96
15834,0.0036,2.1596,11.1079,1317,2860.96
15839,-1.9225,-1.5562,12.4127,1301,2860.96
15844,-3.6476,1.16,9.9395,1307,2860.96
15849,1.4257,3.3076,9.8593,1307,2861.23
15854,1.3096,2.885,10.7643,1309,2861.23
15859,-1.4617,-0.9996,12.4247,1303,2861.23
15864,-4.1647,0.4848,10.7045,1307,2861.23
15869,0.9146,2.9856,9.5696,1301,2861.09
15874,1.9166,3.5578,10.5345,1305,2861.09
15879,-1.482,-0.0706,12.2152,1302,2861.09
15884,-4.0725,-0.3268,11.412,1307,2861.09
15889,0.0431,2.6839,9.2296,1307,2860.55
15894,1.9297,3.8966,10.3537,1304,2860.55
15899,-1.8375,0.6979,11.8693,1305,2860.55
15904,-3.5913,-1.0211,11.9782,1311,2860.55
15909,-1.069,2.2757,9.1399,1293,2860.14
15914,1.8483,3.8894,10.1885,1305,2860.14
15919,-1.646,1.3982,11.4826,1303,2860.14
15924,-2.8563,-1.4641,12.3098,1305,2860.14
15929,-2.411,1.901,9.3039,1306,2860.0
15934,1.7358,3.7158,10.137,1309,2860.0
15939,-0.2885,2.0207,11.145,1299,2860.0
15944,-1.9692,-1.561,12.4451,1302,2860.0
15949,-3.5267,1.2677,9.7971,1301,2860.28
15954,1.555,3.3794,9.8653,1307,2860.28
15959,1.2222,2.733,10.8098,1307,2860.28
15964,-1.4162,-1.0558,12.3661,1299,2860.28
15969,-4.1073,0.5519,10.5884,1300,2860.28
15974,0.9649,3.0155,9.566,1302,2860.68
15979,1.8304,3.4237,10.5776,1311,2860.68
15984,-1.4317,-0.2083,12.2248,1299,2860.68
15989,-4.1468,-0.2753,11.3042,1303,2860.68
15994,0.164,2.63,9.244,1309,2860.55
15999,1.907,3.9169,10.4148,1307,2860.55
16004,-1.8375,0.6416,11.9782,1303,2860.55
16009,-3.7457,-0.9146,11.9411,1309,2860.55
16014,-0.9098,2.3691,9.1075,1302,2860.41
16019,1.8735,4.0211,10.2723,1303,2860.41
16024,-1.81,1.3336,11.5736,1302,2860.41
16029,-2.9497,-1.336,12.3445,1299,2860.41
16034,-2.1811,1.9417,9.2177,1307,2860.55
16039,1.8364,3.8188,10.1586,1310,2860.55
16044,-0.5351,1.9082,11.1701,1305,2860.55
16049,-2.1392,-1.5706,12.4199,1307,2860.55
16054,-3.377,1.3491,9.7133,1304,2859.59
16059,1.5742,3.4309,9.8964,1304,2859.59
16064,1.0151,2.648,10.8146,1311,2859.59
16069,-1.5538,-1.2462,12.396,1301,2859.59
16074,-4.1168,0.6249,10.4279,1312,2859.59
16079,1.0762,3.0993,9.6666,1301,2860.82
16084,1.8112,3.4046,10.6087,1303,2860.82
16089,-1.4449,-0.3448,12.2224,1301,2860.82
16094,-4.197,-0.0694,11.2468,1303,2860.82
16099,0.346,2.7689,9.2883,1299,2860.14
16104,1.9728,3.8607,10.3477,1305,2860.14
16109,-1.7992,0.4896,11.983,1298,2860.14
16114,-3.7541,-0.7961,11.8585,1311,2860.14
16119,-0.7326,2.4086,9.1028,1303,2860.28
16124,1.8783,3.9492,10.2484,1305,2860.28
16129,-1.7957,1.1887,11.6274,1303,2860.28
16134,-3.0514,-1.3431,12.1961,1301,2860.28
16139,-1.9692,2.0039,9.2057,1302,2860.41
16144,1.7825,3.8056,10.1598,1317,2860.41
16149,-0.7829,1.8579,11.2755,1302,2860.41
16154,-2.2374,-1.579,12.4127,1307,2860.41
16159,-3.237,1.4605,9.6822,1305,2860.41
16164,1.5826,3.5075,9.9838,1295,2860.41
16169,0.826,2.5594,10.9068,1301,2860.41
16174,-1.5838,-1.2629,12.4439,1301,2860.41
16179,-3.9947,0.7865,10.3178,1310,2860.41
16184,1.1396,3.1328,9.6271,1303,2860.14
16189,1.7358,3.2178,10.6027,1304,2860.14
16194,-1.3408,-0.4669,12.2846,1305,2860.14
16199,-4.1851,-0.0646,11.0804,1305,2860.14
16204,0.4381,2.7593,9.3302,1307,2860.14
16209,1.8663,3.7781,10.4064,1303,2860.14
16214,-1.7131,0.4357,11.977,1301,2860.14
16219,-3.893,-0.7554,11.7902,1309,2860.14
16224,-0.5926,2.4948,9.1423,1291,2860.14
16229,1.8723,3.9851,10.343,1304,2860.14
16234,-1.8842,1.1253,11.6993,1307,2860.14
16239,-3.2022,-1.245,12.2535,1305,2860.14
16244,-1.8806,2.0746,9.2261,1303,2860.14
16249,1.8735,3.8738,10.1837,1308,2860.14
16254,-0.9649,1.7382,11.1953,1294,2860.14
16259,-2.32,-1.5706,12.4068,1315,2860.14
16264,-3.1137,1.5251,9.5565,1309,2860.55
16269,1.6951,3.5578,9.9635,1302,2860.55
16274,0.6177,2.399,10.9319,1309,2860.55
16279,-1.6544,-1.4138,12.4175,1304,2860.55
16284,-3.9983,0.8787,10.2161,1319,2860.55
16289,1.2486,3.158,9.7241,1289,2860.55
16294,1.6688,3.1939,10.6757,1301,2860.55
16299,-1.4317,-0.644,12.3457,1305,2860.55
16304,-4.2725,0.1221,11.06,1303,2860.55
16309,0.5914,2.8084,9.3446,1300,2860.96
16314,1.9405,3.7924,10.4854,1305,2860.96
16319,-1.6795,0.3029,12.0392,1301,2860.96
16324,-3.9169,-0.5986,11.7064,1307,2860.96
16329,-0.3807,2.4995,9.1111,1305,2860.68
16334,1.9453,3.9696,10.2831,1301,2860.68
16339,-1.9345,1.0068,11.7483,1305,2860.68
16344,-3.237,-1.1887,12.0931,1304,2860.68
16349,-1.6424,2.1021,9.1327,1301,2861.64
16354,1.8232,3.8702,10.1598,1305,2861.64
16359,-1.2474,1.6568,11.315,1304,2861.64
16364,-2.4852,-1.5778,12.4223,1315,2861.64
16369,-2.9185,1.6664,9.5373,1302,2861.37
16374,1.6544,3.5889,10.0209,1303,2861.37
16379,0.3244,2.3212,11.0373,1308,2861.37
16384,-1.7502,-1.4198,12.4223,1303,2861.37
16389,-3.8235,1.0116,10.0892,1308,2861.37
16394,1.342,3.2382,9.7372,1299,2861.37
16399,1.6149,3.0861,10.7188,1300,2861.37
16404,-1.3252,-0.7626,12.317,1301,2861.37
16409,-4.1815,0.2562,10.8541,1301,2861.37
16414,0.6871,2.8192,9.4236,1298,2861.23
16419,1.913,3.6428,10.4435,1305,2861.23
16424,-1.5179,0.0563,12.0596,1303,2861.23
16429,-3.9911,-0.5806,11.5329,1303,2861.23
16434,-0.1963,2.5295,9.177,1299,2860.96
16439,1.8579,3.954,10.337,1303,2860.96
16444,-1.9429,0.9098,11.7831,1308,2860.96
16449,-3.4512,-1.1037,12.1194,1305,2860.96
16454,-1.421,2.2218,9.1626,1301,2860.96
16459,1.8364,3.9253,10.1873,1305,2860.96
16464,-1.3815,1.549,11.3976,1305,2860.96
16469,-2.624,-1.5215,12.4008,1309,2860.96
16474,-2.715,1.7849,9.4128,1303,2860.82
16479,1.7585,3.6919,10.0353,1304,2860.82
16484,0.1628,2.1979,11.0205,1311,2860.82
16489,-1.822,-1.5347,12.4127,1300,2860.82
16494,-3.7433,1.0882,9.9623,1304,2860.82
16499,1.4186,3.2765,9.7971,1309,2860.68
16504,1.4006,2.9269,10.7476,1304,2860.68
16509,-1.4473,-0.9385,12.3289,1303,2860.68
16514,-4.1875,0.3436,10.7643,1303,2860.68
16519,0.8308,2.9365,9.5134,1298,2860.82
16524,1.8591,3.6344,10.5093,1307,2860.82
16529,-1.5814,0.0227,12.1805,1304,2860.82
16534,-4.0857,-0.3208,11.4802,1304,2860.82
16539,-0.0096,2.6839,9.1494,1301,2860.41
16544,1.9333,3.9516,10.3549,1305,2860.41
16549,-1.9537,0.814,11.8609,1304,2860.41
16554,-3.5075,-1.0427,12.0285,1303,2860.41
16559,-1.1504,2.2649,9.0489,1301,2860.55
16564,1.8854,3.9648,10.2496,1312,2860.55
16569,-1.5969,1.4593,11.4467,1301,2860.55
16574,-2.7246,-1.506,12.3206,1304,2860.55
16579,-2.5163,1.7909,9.3577,1303,2860.28
16584,1.7346,3.7421,10.1622,1307,2860.28
16589,-0.2382,2.077,11.145,1309,2860.28
16594,-1.9525,-1.4724,12.4295,1299,2860.28
16599,-3.5961,1.2127,9.9012,1303,2860.28
16604,1.4617,3.3543,9.8701,1305,2860.0
16609,1.2989,2.8467,10.8409,1304,2860.0
16614,-1.4425,-1.0127,12.3672,1303,2860.0
16619,-4.1049,0.5004,10.6578,1301,2860.0
16624,0.9373,3.0071,9.4906,1303,2860.0
16629,1.889,3.4716,10.5405,1299,2860.0
16634,-1.4341,-0.1939,12.1302,1303,2860.0
16639,-4.142,-0.3591,11.3772,1301,2860.0
16644,0.1161,2.6456,9.2416,1286,2859.87
16649,1.9094,3.887,10.3848,1305,2859.87
16654,-1.8902,0.6931,11.8728,1303,2859.87
16659,-3.6631,-0.9828,11.9866,1303,2859.87
16664,-1.0953,2.3296,9.1207,1301,2860.14
16669,1.8459,3.9947,10.2424,1307,2860.14
16674,-1.731,1.342,11.5772,1304,2860.14
16679,-2.8886,-1.4006,12.3265,1302,2860.14
16684,-2.3104,1.8914,9.3075,1306,2860.28
16689,1.828,3.7948,10.088,1309,2860.28
16694,-0.3256,2.0363,11.163,1307,2860.28
16699,-2.0267,-1.5359,12.3984,1293,2860.28
16704,-3.4129,1.3408,9.7959,1301,2860.28
16709,1.5598,3.3519,9.8785,1305,2860.14
16714,1.1217,2.7162,10.817,1307,2860.14
16719,-1.4928,-1.1744,12.3816,1301,2860.14
16724,-4.1252,0.5698,10.4746,1309,2860.14
16729,0.9912,2.9951,9.5732,1295,2860.28
16734,1.8076,3.4572,10.5249,1301,2860.28
16739,-1.4617,-0.2466,12.2775,1305,2860.28
16744,-4.1707,-0.1508,11.2695,1302,2860.28
16749,0.2454,2.7198,9.2572,1303,2860.28
16754,1.9309,3.9205,10.3573,1303,2860.28
16759,-1.8842,0.6428,11.989,1297,2860.28
16764,-3.6691,-0.8535,11.9243,1306,2860.28
16769,-0.8248,2.4026,9.1327,1301,2860.14
16774,1.8914,3.9468,10.2711,1295,2860.14
16779,-1.7538,1.2546,11.5317,1301,2860.14
16784,-2.9425,-1.4126,12.2451,1302,2860.14
16789,-2.1332,1.9273,9.2213,1303,2859.32
16794,1.7813,3.7577,10.1754,1305,2859.32
16799,-0.662,1.9118,11.2288,1304,2859.32
16804,-2.1596,-1.5921,12.463,1301,2859.32
16809,-3.4034,1.4078,9.7671,1302,2860.14
16814,1.579,3.4884,9.9599,1308,2860.14
16819,0.9565,2.6695,10.8505,1305,2860.14
16824,-1.5048,-1.1827,12.3768,1297,2860.14
16829,-4.0522,0.6871,10.4555,1306,2860.14
16834,1.1444,3.0777,9.6007,1301,2859.59
16839,1.8447,3.3591,10.5644,1303,2859.59
16844,-1.3623,-0.3436,12.1961,1303,2859.59
16849,-4.1731,-0.1077,11.1773,1303,2859.59
16854,0.3496,2.7007,9.2584,1304,2859.59
16859,1.9261,3.8343,10.416,1305,2859.59
16864,-1.7885,0.4908,11.9602,1303,2859.59
16869,-3.8068,-0.8452,11.8597,1307,2859.59
16874,-0.7602,2.3798,9.1303,1303,2859.59
16879,1.8148,4.0007,10.3058,1303,2859.59
16884,-1.8926,1.2318,11.6191,1293,2859.59
16889,-3.1101,-1.2821,12.2272,1302,2859.59
16894,-2.0039,2.0722,9.25,1305,2859.73
16899,1.8088,3.9049,10.1347,1307,2859.73
16904,-0.7841,1.8555,11.2767,1302,2859.73
16909,-2.1739,-1.549,12.4786,1305,2859.73
16914,-3.2178,1.4114,9.6762,1303,2859.59
16919,1.6783,3.4824,9.9084,1306,2859.59
16924,0.8835,2.5391,10.89,1307,2859.59
16929,-1.5694,-1.312,12.3337,1299,2859.59
16934,-4.0031,0.7506,10.3406,1307,2859.59
16939,1.1672,3.0825,9.6893,1299,2860.0
16944,1.6759,3.2825,10.647,1303,2860.0
16949,-1.4269,-0.5363,12.2368,1299,2860.0
16954,-4.2222,0.0215,11.1342,1301,2860.0
16959,0.4298,2.7761,9.2907,1303,2859.73
16964,1.9154,3.8463,10.4555,1301,2859.73
16969,-1.7717,0.4752,12.0141,1299,2859.73
16974,-3.8032,-0.6764,11.7914,1304,2859.73
16979,-0.5698,2.4505,9.1004,1297,2860.0
16984,1.9357,4.0079,10.2939,1305,2860.0
16989,-1.8842,1.1528,11.7041,1301,2860.0
16994,-3.1436,-1.3096,12.1673,1301,2860.0
16999,-1.7873,2.0399,9.2273,1299,2860.14
17004,1.8435,3.8415,10.1897,1299,2860.14
17009,-0.9888,1.7418,11.297,1295,2860.14
17014,-2.3547,-1.5706,12.3625,1304,2860.14
17019,-3.1089,1.5886,9.6079,1301,2860.14
17024,1.5766,3.5075,9.9527,1303,2860.14
17029,0.5818,2.4684,10.9642,1299,2860.14
17034,-1.6783,-1.3503,12.4259,1298,2860.14
17039,-3.9875,0.8475,10.2915,1309,2860.14
17044,1.2474,3.1496,9.73,1298,2860.28
17049,1.7502,3.1975,10.6662,1302,2860.28
17054,-1.391,-0.5782,12.3242,1295,2860.28
17059,-4.1994,0.1137,11.0277,1301,2860.28
17064,0.5818,2.8072,9.3781,1303,2860.68
17069,1.9776,3.6895,10.4136,1301,2860.68
17074,-1.6197,0.2167,12.038,1295,2860.68
17079,-3.978,-0.6788,11.6741,1308,2860.68
17084,-0.419,2.4828,9.1315,1303,2860.82
17089,1.8423,3.978,10.3406,1301,2860.82
17094,-1.9525,1.0475,11.7472,1301,2860.82
17099,-3.3327,-1.2127,12.1566,1301,2860.82
17104,-1.6149,2.1476,9.1243,1299,2860.82
17109,1.8615,3.9301,10.2268,1309,2860.82
17114,-1.2031,1.6604,11.4215,1301,2860.82
17119,-2.46,-1.4928,12.3589,1307,2860.82
17124,-2.9221,1.6723,9.432,1303,2861.23
17129,1.7442,3.6284,10.0533,1295,2861.23
17134,0.3974,2.2948,11.0253,1306,2861.23
17139,-1.7178,-1.4329,12.4415,1298,2861.23
17144,-3.8774,0.9541,10.0652,1308,2861.23
17149,1.3527,3.2046,9.7683,1292,2861.37
17154,1.5562,3.0442,10.7248,1297,2861.37
17159,-1.403,-0.8284,12.3265,1301,2861.37
17164,-4.2377,0.2502,10.8745,1300,2861.37
17169,0.6979,2.8395,9.3901,1295,2861.23
17174,1.9178,3.6524,10.489,1303,2861.23
17179,-1.6532,0.1508,12.1135,1298,2861.23
17184,-4.0103,-0.4561,11.6382,1317,2861.23
17189,-0.2047,2.5618,9.171,1299,2860.96
17194,1.9561,3.9863,10.3418,1300,2860.96
17199,-1.9417,0.9002,11.8405,1304,2860.96
17204,-3.3447,-1.1325,12.0943,1302,2860.96
17209,-1.3791,2.1895,9.1159,1295,2860.96
17214,1.8639,3.9492,10.2125,1301,2860.96
17219,-1.3922,1.5263,11.3796,1292,2860.96
17224,-2.624,-1.5323,12.3984,1307,2860.96
17229,-2.7102,1.7514,9.3984,1299,2860.96
17234,1.6975,3.5949,10.0449,1299,2860.96
17239,0.0718,2.2278,11.0935,1306,2860.96
17244,-1.8747,-1.5167,12.4151,1295,2860.96
17249,-3.7445,1.1217,10.0413,1304,2860.96
17254,1.409,3.3004,9.7911,1294,2861.23
17259,1.4904,2.9676,10.7871,1301,2861.23
17264,-1.4018,-0.844,12.3565,1300,2861.23
17269,-4.1671,0.3915,10.7548,1295,2861.23
17274,0.8739,2.9149,9.4451,1295,2861.37
17279,1.9429,3.6105,10.5237,1303,2861.37
17284,-1.4688,-0.0407,12.1554,1301,2861.37
17289,-4.051,-0.4405,11.4826,1299,2861.37
17294,-0.0551,2.5618,9.1698,1295,2861.5
17299,1.8794,3.9325,10.3406,1301,2861.5
17304,-1.9285,0.8212,11.9076,1305,2861.5
17309,-3.6057,-1.0391,12.0117,1303,2861.5
17314,-1.2234,2.2948,9.1506,1289,2861.78
17319,1.8423,3.9588,10.2544,1301,2861.78
17324,-1.5838,1.4629,11.5041,1301,2861.78
17329,-2.794,-1.4521,12.3182,1303,2861.78
17334,-2.4576,1.8747,9.3482,1304,2861.91
17339,1.8579,3.7529,10.1406,1299,2861.91
17344,-0.1269,2.0794,11.1163,1307,2861.91
17349,-1.9417,-1.4952,12.4271,1293,2861.91
17354,-3.5889,1.2462,9.8785,1299,2861.91
17359,1.5323,3.3399,9.8474,1297,2861.64
17364,1.2641,2.7629,10.7571,1295,2861.64
17369,-1.4784,-1.087,12.402,1300,2861.64
17374,-4.1803,0.5219,10.5824,1297,2861.64
17379,0.9744,2.9808,9.5684,1291,2861.78
17384,1.8076,3.4991,10.5608,1305,2861.78
17389,-1.5155,-0.1796,12.2475,1299,2861.78
17394,-4.1671,-0.2526,11.2839,1299,2861.78
17399,0.1341,2.6432,9.2045,1299,2861.64
17404,1.9237,3.9037,10.3453,1293,2861.64
17409,-1.9166,0.6512,11.9171,1301,2861.64
17414,-3.6631,-0.8918,11.977,1299,2861.64
17419,-0.9254,2.3475,9.104,1291,2861.5
17424,1.9585,3.9744,10.2556,1306,2861.5
17429,-1.7166,1.3144,11.5353,1293,2861.5
17434,-2.891,-1.4401,12.2308,1299,2861.5
17439,-2.1859,1.9106,9.2356,1299,2860.96
17444,1.8232,3.7565,10.1323,1301,2860.96
17449,-0.6117,1.8926,11.1606,1297,2860.96
17454,-2.1057,-1.5526,12.4558,1290,2860.96
17459,-3.4213,1.3503,9.7276,1291,2860.96
17464,1.5502,3.4333,9.8821,1299,2860.82
17469,1.0044,2.7054,10.8517,1301,2860.82
17474,-1.5287,-1.1408,12.4211,1293,2860.82
17479,-4.1001,0.6345,10.5369,1302,2860.82
17484,1.1073,3.0754,9.6355,1294,2860.14
17489,1.8567,3.3818,10.6494,1293,2860.14
17494,-1.421,-0.3328,12.129,1299,2860.14
17499,-4.1252,-0.158,11.1761,1299,2860.14
17504,0.3388,2.6779,9.3039,1301,2859.73
17509,1.9501,3.8571,10.3825,1299,2859.73
17514,-1.8124,0.5375,11.995,1297,2859.73
17519,-3.7517,-0.8224,11.8298,1293,2859.73
17524,-0.7829,2.4157,9.1111,1294,2859.73
17529,1.828,3.9708,10.2771,1302,2859.73
17534,-1.8723,1.2031,11.5843,1295,2859.73
17539,-3.0957,-1.3396,12.232,1293,2859.73
17544,-2.0842,2.0231,9.2524,1303,2860.0
17549,1.8316,3.8259,10.1454,1303,2860.0
17554,-0.7266,1.8759,11.2192,1303,2860.0
17559,-2.2063,-1.5359,12.3936,1291,2860.0
17564,-3.2346,1.4736,9.7013,1297,2860.0
17569,1.6352,3.4596,9.9683,1300,2860.28
17574,0.8918,2.5833,10.8888,1301,2860.28
17579,-1.555,-1.2617,12.4175,1295,2860.28
17584,-4.0462,0.7338,10.3645,1304,2860.28
17589,1.1456,3.1065,9.6642,1292,2860.55
17594,1.743,3.2645,10.6123,1293,2860.55
17599,-1.4257,-0.4573,12.3277,1285,2860.55
17604,-4.2114,-0.0108,11.1282,1301,2860.55
17609,0.419,2.7521,9.3302,1299,2861.09
17614,1.9154,3.8032,10.3813,1293,2861.09
17619,-1.828,0.3962,12.0045,1295,2861.09
17624,-3.8355,-0.7458,11.8106,1305,2861.09
17629,-0.595,2.4636,9.1626,1285,2861.37
17634,1.9142,3.9708,10.3262,1301,2861.37
17639,-1.9597,1.2019,11.6442,1293,2861.37
17644,-3.1795,-1.3036,12.1829,1299,2861.37
17649,-1.8423,2.0554,9.1925,1298,2861.5
17654,1.8663,3.8607,10.173,1304,2861.5
17659,-1.008,1.7466,11.2934,1294,2861.5
17664,-2.3463,-1.5467,12.4439,1301,2861.5
17669,-3.0801,1.5359,9.5349,1300,2861.5
17674,1.664,3.5063,9.9898,1303,2861.5
17679,0.5602,2.4229,10.981,1301,2861.5
17684,-1.6532,-1.3599,12.4199,1295,2861.5
17689,-3.9421,0.8571,10.2089,1305,2861.5
17694,1.2797,3.1939,9.7133,1294,2862.05
17699,1.6807,3.1424,10.6997,1293,2862.05
17704,-1.3731,-0.6165,12.3313,1293,2862.05
17709,-4.2042,0.1041,10.9559,1295,2862.05
17714,0.6488,2.8395,9.3362,1301,2861.78
17719,1.9225,3.729,10.4854,1299,2861.78
17724,-1.6676,0.2753,12.0692,1295,2861.78
17729,-3.9229,-0.6261,11.6538,1304,2861.78
17734,-0.3759,2.551,9.1614,1301,2861.78
17739,1.8759,3.9648,10.3693,1299,2861.78
17744,-1.9728,1.0116,11.6897,1299,2861.78
17749,-3.3603,-1.1708,12.1961,1295,2861.78
17754,-1.5455,2.1428,9.1087,1298,2861.91
17759,1.8483,3.8906,10.1861,1291,2861.91
17764,-1.2582,1.5945,11.3808,1295,2861.91
17769,-2.5247,-1.5167,12.3876,1302,2861.91
17774,-2.8503,1.6855,9.4631,1300,2862.05
17779,1.7585,3.6452,10.0149,1295,2862.05
17784,0.3412,2.308,11.0361,1297,2862.05
17789,-1.7657,-1.4114,12.4451,1293,2862.05
17794,-3.7996,1.0487,10.0796,1303,2862.05
17799,1.3683,3.2813,9.7528,1307,2861.91
17804,1.5586,3.0347,10.7141,1293,2861.91
17809,-1.4425,-0.814,12.3182,1299,2861.91
17814,-4.1767,0.3124,10.8278,1301,2861.91
17819,0.7266,2.8754,9.4439,1303,2862.05
17824,1.9261,3.6332,10.4303,1299,2862.05
17829,-1.5826,0.0503,12.1099,1292,2862.05
17834,-4.0498,-0.4501,11.5329,1303,2862.05
17839,-0.1628,2.5534,9.2285,1294,2861.91
17844,1.9477,3.948,10.398,1299,2861.91
17849,-1.9788,0.9098,11.8465,1298,2861.91
17854,-3.4895,-1.0331,12.0811,1298,2861.91
17859,-1.2965,2.2745,9.1387,1293,2862.46
17864,1.8998,3.9947,10.2041,1301,2862.46
17869,-1.494,1.5143,11.4156,1290,2862.46
17874,-2.6959,-1.549,12.3002,1306,2862.46
17879,-2.5642,1.7693,9.3937,1301,2862.32
17884,1.719,3.6667,10.1478,1291,2862.32
17889,-0.0227,2.1249,11.0528,1302,2862.32
17894,-1.9237,-1.5766,12.4475,1297,2862.32
17899,-3.6547,1.1791,9.8689,1301,2862.32
17904,1.4904,3.3088,9.8402,1293,2862.73
17909,1.342,2.8539,10.7488,1294,2862.73
17914,-1.4664,-0.9565,12.402,1291,2862.73
17919,-4.1647,0.5028,10.6757,1295,2862.73
17924,0.9361,2.9916,9.5241,1292,2862.46
17929,1.9022,3.5362,10.5141,1299,2862.46
17934,-1.5095,-0.1125,12.232,1297,2862.46
17939,-4.124,-0.3089,11.3904,1298,2862.46
17944,0.1077,2.6839,9.2069,1285,2862.19
17949,1.9237,3.8666,10.3453,1275,2862.19
17954,-1.8914,0.7147,11.91,1301,2862.19
17959,-3.6859,-0.9996,11.9614,1299,2862.19
17964,-1.0092,2.3224,9.1387,1291,2862.46
17969,1.8914,3.9792,10.2244,1301,2862.46
17974,-1.7454,1.3156,11.5113,1291,2862.46
17979,-2.897,-1.397,12.3026,1302,2862.46
17984,-2.2817,1.9118,9.2967,1295,2862.87
17989,1.8316,3.7757,10.1538,1309,2862.87
17994,-0.4082,1.9788,11.1594,1304,2862.87
17999,-2.1045,-1.5419,12.4702,1289,2862.87
18004,-3.4201,1.3551,9.7899,1291,2862.87
18009,1.5886,3.4237,9.8557,1293,2863.01
18014,1.081,2.6863,10.8601,1295,2863.01
18019,-1.5155,-1.1205,12.4032,1291,2863.01
18024,-4.0917,0.6177,10.4746,1290,2863.01
18029,1.0487,3.067,9.5385,1287,2862.87
18034,1.7968,3.383,10.6482,1295,2862.87
18039,-1.4365,-0.3723,12.1769,1294,2862.87
18044,-4.1875,-0.1592,11.1773,1293,2862.87
18049,0.2921,2.6911,9.2524,1293,2862.87
18054,1.9369,3.8439,10.4782,1291,2862.87
18059,-1.8519,0.4872,11.9507,1292,2862.87
18064,-3.7757,-0.8045,11.8549,1289,2862.87
18069,-0.7374,2.393,9.1111,1288,2863.01
18074,1.9585,4.0402,10.2663,1301,2863.01
18079,-1.8783,1.2438,11.6238,1287,2863.01
18084,-3.0837,-1.3144,12.1841,1288,2863.01
18089,-2.0063,2.0063,9.1889,1290,2863.28
18094,1.8711,3.8188,10.1622,1293,2863.28
18099,-0.7985,1.8052,11.2719,1293,2863.28
18104,-2.2625,-1.585,12.4199,1275,2863.28
18109,-3.158,1.4916,9.6139,1286,2863.28
18114,1.6556,3.462,9.9252,1293,2862.87
18119,0.7697,2.5343,10.9882,1290,2862.87
18124,-1.6484,-1.3587,12.4283,1278,2862.87
18129,-4.0474,0.8499,10.3178,1289,2862.87
18134,1.2031,3.1256,9.6822,1279,2863.28
18139,1.7669,3.2872,10.6913,1273,2863.28
18144,-1.421,-0.5447,12.3553,1285,2863.28
18149,-4.1875,0.0862,11.0181,1279,2863.28
18154,0.5842,2.812,9.3278,1287,2863.01
18159,1.9585,3.8211,10.4004,1285,2863.01
18164,-1.7382,0.3436,12.074,1277,2863.01
18169,-3.8666,-0.6428,11.7472,1279,2863.01
18174,-0.419,2.4565,9.1435,1275,2863.28
18179,1.9034,3.9552,10.2604,1277,2863.28
18184,-1.968,1.0606,11.7328,1274,2863.28
18189,-3.2801,-1.2402,12.1769,1274,2863.28
18194,-1.6879,2.1213,9.1231,1273,2863.83
18199,1.8304,3.8882,10.1873,1276,2863.83
18204,-1.1851,1.658,11.3784,1275,2863.83
18209,-2.4804,-1.5347,12.408,1277,2863.83
18214,-2.9042,1.664,9.4475,1276,2863.83
18219,1.7597,3.626,10.0545,1273,2863.83
18224,0.3795,2.3284,10.999,1279,2863.83
18229,-1.7454,-1.3563,12.4091,1271,2863.83
18234,-3.8439,1.0283,10.0796,1286,2863.83
18239,1.3647,3.2286,9.7336,1267,2863.96
18244,1.5957,3.0095,10.7033,1271,2863.96
18249,-1.3623,-0.7877,12.3325,1271,2863.96
18254,-4.2341,0.2227,10.7715,1273,2863.96
18259,0.7721,2.8539,9.3865,1266,2863.96
18264,1.9453,3.5841,10.5058,1271,2863.96
18269,-1.5562,0.0622,12.1709,1267,2863.96
18274,-4.057,-0.4932,11.6023,1276,2863.96
18279,-0.1927,2.5582,9.165,1270,2863.55
18284,1.919,3.9552,10.3106,1273,2863.55
18289,-1.9501,0.8224,11.807,1273,2863.55
18294,-3.5063,-1.0523,12.1099,1268,2863.55
18299,-1.324,2.2087,9.1494,1271,2863.28
18304,1.9106,3.9923,10.2987,1279,2863.28
18309,-1.5131,1.4976,11.4144,1267,2863.28
18314,-2.6971,-1.494,12.3194,1286,2863.28
18319,-2.569,1.7741,9.329,1275,2863.14
18324,1.7909,3.6799,10.0449,1269,2863.14
18329,-0.0742,2.1272,11.0217,1269,2863.14
18334,-1.9201,-1.561,12.463,1267,2863.14
18339,-3.6069,1.1372,9.9108,1271,2863.14
18344,1.4784,3.3148,9.8318,1262,2862.87
18349,1.2965,2.8671,10.8014,1259,2862.87
18354,-1.4976,-1.0104,12.3613,1266,2862.87
18359,-4.1827,0.4824,10.6877,1258,2862.87
18364,0.9445,2.9999,9.4727,1259,2863.01
18369,1.9154,3.5961,10.5357,1260,2863.01
18374,-1.5311,-0.097,12.1793,1259,2863.01
18379,-4.1025,-0.2741,11.388,1263,2863.01
18384,0.1544,2.6647,9.1674,1255,2863.14
18389,1.9405,3.9145,10.3968,1258,2863.14
18394,-1.9213,0.68,11.977,1261,2863.14
18399,-3.6452,-0.929,11.9135,1259,2863.14
18404,-0.9625,2.2877,9.0477,1258,2863.28
18409,1.8615,3.8966,10.2556,1261,2863.28
18414,-1.7226,1.318,11.6059,1259,2863.28
18419,-2.9221,-1.4437,12.305,1257,2863.28
18424,-2.2685,1.9716,9.3027,1252,2863.28
18429,1.7885,3.7924,10.1586,1245,2863.28
18434,-0.4788,1.9812,11.2013,1246,2863.28
18439,-2.1703,-1.5024,12.408,1244,2863.28
18444,-3.4465,1.403,9.8246,1244,2863.28
18449,1.6448,3.4488,9.9252,1243,2862.87
18454,1.081,2.6971,10.8362,1245,2862.87
18459,-1.4988,-1.1217,12.4355,1242,2862.87
18464,-4.0713,0.6931,10.4555,1247,2862.87
18469,1.0882,3.0215,9.5744,1237,2862.87
18474,1.8435,3.3435,10.5465,1245,2862.87
18479,-1.4138,-0.3723,12.2775,1245,2862.87
18484,-4.2162,-0.1532,11.1797,1247,2862.87
18489,0.3328,2.7007,9.3302,1241,2863.01
18494,1.9082,3.7924,10.4758,1247,2863.01
18499,-1.8531,0.4741,12.0716,1255,2863.01
18504,-3.8367,-0.7709,11.801,1251,2863.01
18509,-0.6943,2.4732,9.1028,1243,2862.87
18514,1.9321,3.978,10.2101,1255,2862.87
18519,-1.8794,1.2151,11.6334,1247,2862.87
18524,-3.0969,-1.245,12.2703,1253,2862.87
18529,-1.913,2.0638,9.2213,1247,2862.73
18534,1.8663,3.8475,10.1538,1255,2862.73
18539,-0.8535,1.7669,11.2037,1256,2862.73
18544,-2.2793,-1.5981,12.4427,1246,2862.73
18549,-3.1184,1.4473,9.6271,1244,2862.73
18554,1.6628,3.5051,9.9623,1253,2863.14
18559,0.7183,2.4505,10.9223,1253,2863.14
18564,-1.6723,-1.3623,12.3732,1251,2863.14
18569,-4.0019,0.8511,10.3046,1257,2863.14
18574,1.172,3.1484,9.681,1253,2863.14
18579,1.6424,3.2214,10.6877,1255,2863.14
18584,-1.4437,-0.5662,12.3469,1257,2863.14
18589,-4.2138,0.0922,11.0241,1260,2863.14
18594,0.5878,2.8479,9.3266,1267,2863.14
18599,1.9585,3.7876,10.4423,1265,2863.14
18604,-1.7071,0.2682,12.0811,1257,2863.14
18609,-3.869,-0.6393,11.7304,1245,2863.14
18614,-0.395,2.4481,9.1135,1261,2863.14
18619,1.9609,3.9816,10.3011,1263,2863.14
18624,-1.9668,0.9708,11.649,1263,2863.14
18629,-3.2693,-1.2402,12.1338,1259,2863.14
18634,-1.6281,2.1249,9.147,1267,2863.28
18639,1.8016,3.8618,10.2532,1270,2863.28
18644,-1.227,1.646,11.3593,1268,2863.28
18649,-2.5343,-1.5514,12.3134,1262,2863.28
18654,-2.909,1.6628,9.5253,1262,2863.14
18659,1.7274,3.6152,10.0317,1272,2863.14
18664,0.3663,2.3487,11.0564,1269,2863.14
18669,-1.7837,-1.397,12.3876,1267,2863.14
18674,-3.8044,1.0499,10.1119,1279,2863.14
18679,1.3946,3.2573,9.6893,1263,2863.83
18684,1.6233,3.043,10.6961,1271,2863.83
18689,-1.3587,-0.7817,12.287,1269,2863.83
18694,-4.1958,0.2334,10.7679,1271,2863.83
18699,0.7614,2.8431,9.3913,1272,2863.42
18704,1.9453,3.5985,10.5093,1275,2863.42
18709,-1.6137,0.0287,12.2032,1267,2863.42
18714,-4.1096,-0.4609,11.5604,1287,2863.42
18719,-0.146,2.551,9.2033,1273,2863.55
18724,1.9022,3.9708,10.3334,1271,2863.55
18729,-2.0063,0.8799,11.8657,1272,2863.55
18734,-3.5123,-1.0116,12.0512,1271,2863.55
18739,-1.257,2.2721,9.147,1269,2863.55
18744,1.9357,3.9612,10.2532,1285,2863.55
18749,-1.5299,1.5119,11.4814,1268,2863.55
18754,-2.648,-1.4629,12.3313,1273,2863.55
18759,-2.5355,1.7825,9.3865,1269,2863.55
18764,1.8232,3.6715,10.0485,1268,2863.55
18769,-0.0946,2.1129,11.1127,1273,2863.55
18774,-2.0004,-1.573,12.4534,1269,2863.55
18779,-3.6224,1.1612,9.8809,1279,2863.55
18784,1.4365,3.3447,9.8773,1269,2863.83
18789,1.2091,2.8431,10.8134,1267,2863.83
18794,-1.5143,-1.0259,12.3565,1269,2863.83
18799,-4.2234,0.5231,10.6279,1268,2863.83
18804,0.9864,3.0239,9.5325,1273,2863.96
18809,1.8962,3.5458,10.5489,1271,2863.96
18814,-1.4904,-0.1221,12.226,1268,2863.96
18819,-4.13,-0.2538,11.3689,1273,2863.96
18824,0.2071,2.7198,9.1889,1269,2863.42
18829,1.992,3.9121,10.3238,1269,2863.42
18834,-1.8771,0.6752,11.8609,1270,2863.42
18839,-3.6919,-0.9278,11.9566,1273,2863.42
18844,-0.9385,2.3415,9.0273,1269,2864.78
18849,1.913,3.9588,10.3094,1273,2864.78
18854,-1.8004,1.2749,11.5544,1270,2864.78
18859,-2.9868,-1.4066,12.2846,1279,2864.78
18864,-2.2146,1.9333,9.2859,1277,2864.24
18869,1.7849,3.8032,10.1837,1271,2864.24
18874,-0.6105,1.9142,11.2216,1287,2864.24
18879,-2.1943,-1.47,12.4343,1274,2864.24
18884,-3.3842,1.4066,9.7636,1276,2864.24
18889,1.6209,3.4931,9.9539,1273,2864.51
18894,0.9912,2.6193,10.9367,1279,2864.51
18899,-1.5299,-1.1911,12.4331,1277,2864.51
18904,-4.033,0.7003,10.3884,1277,2864.51
18909,1.1863,3.0347,9.5648,1271,2864.24
18914,1.8663,3.2932,10.5824,1279,2864.24
18919,-1.3791,-0.4585,12.2643,1277,2864.24
18924,-4.1671,-0.0563,11.1809,1276,2864.24
18929,0.3915,2.7186,9.2859,1273,2864.1
18934,1.9118,3.8104,10.4471,1277,2864.1
18939,-1.8256,0.4058,12.0201,1279,2864.1
18944,-3.8798,-0.7302,11.7807,1274,2864.1
18949,-0.6165,2.3978,9.1231,1269,2863.83
18954,1.9106,3.9851,10.3154,1285,2863.83
18959,-1.9393,1.1229,11.7783,1273,2863.83
18964,-3.1448,-1.2043,12.2236,1279,2863.83
18969,-1.8112,2.1237,9.1518,1273,2863.42
18974,1.9273,3.9085,10.1634,1279,2863.42
18979,-0.9792,1.7454,11.2982,1280,2863.42
18984,-2.3523,-1.6269,12.3816,1271,2863.42
18989,-3.0418,1.5155,9.5445,1273,2863.42
18994,1.6771,3.5326,10.0269,1273,2863.14
18999,0.5734,2.3978,10.9738,1275,2863.14
19004,-1.7166,-1.4138,12.4498,1271,2863.14
19009,-3.9337,0.9146,10.2232,1277,2863.14
19014,1.2677,3.14,9.6702,1274,2863.28
19019,1.6328,3.1424,10.6207,1270,2863.28
19024,-1.4425,-0.6812,12.3421,1271,2863.28
19029,-4.2377,0.1951,10.9798,1269,2863.28
19034,0.6285,2.8934,9.4595,1276,2863.01
19039,2.0195,3.7242,10.4555,1274,2863.01
19044,-1.6568,0.2562,12.0895,1273,2863.01
19049,-3.9492,-0.5207,11.6215,1275,2863.01
19054,-0.2717,2.5438,9.171,1267,2863.28
19059,1.919,3.9277,10.2711,1270,2863.28
19064,-1.962,0.9553,11.7938,1270,2863.28
19069,-3.3974,-1.1971,12.0931,1268,2863.28
19074,-1.4653,2.1548,9.1231,1275,2863.14
19079,1.8555,3.899,10.1885,1269,2863.14
19084,-1.3503,1.5526,11.3784,1277,2863.14
19089,-2.6468,-1.4904,12.3158,1269,2863.14
19094,-2.7904,1.7334,9.4236,1274,2863.42
19099,1.7394,3.6404,10.0568,1275,2863.42
19104,0.1281,2.2637,11.1055,1279,2863.42
19109,-1.8735,-1.4401,12.4917,1267,2863.42
19114,-3.7182,1.1384,10.0197,1275,2863.42
19119,1.4545,3.3136,9.7324,1269,2863.55
19124,1.4605,2.958,10.7536,1267,2863.55
19129,-1.409,-0.8344,12.3481,1267,2863.55
19134,-4.1635,0.3065,10.7308,1268,2863.55
19139,0.8236,2.9102,9.4212,1275,2863.14
19144,1.9082,3.6009,10.4842,1272,2863.14
19149,-1.573,0.0084,12.1625,1269,2863.14
19154,-4.1216,-0.3974,11.4922,1275,2863.14
19159,-0.0634,2.5786,9.2129,1269,2863.14
19164,1.9381,3.978,10.3944,1273,2863.14
19169,-1.962,0.8045,11.8597,1260,2863.14
19174,-3.5482,-0.9469,12.074,1271,2863.14
19179,-1.1468,2.3308,9.1638,1267,2863.01
19184,1.9237,4.027,10.234,1275,2863.01
19189,-1.6293,1.409,11.4168,1264,2863.01
19194,-2.7785,-1.415,12.2547,1275,2863.01
19199,-2.411,1.8316,9.2919,1271,2863.14
19204,1.8735,3.6931,10.0676,1269,2863.14
19209,-0.2023,2.0614,11.1546,1271,2863.14
19214,-2.0147,-1.5742,12.4391,1269,2863.14
19219,-3.5398,1.2342,9.8881,1279,2863.14
19224,1.5012,3.3543,9.8629,1273,2863.01
19229,1.1947,2.7833,10.7943,1275,2863.01
19234,-1.5203,-1.0918,12.3996,1274,2863.01
19239,-4.1503,0.589,10.5812,1287,2863.01
19244,1.0092,3.0227,9.5565,1278,2862.73
19249,1.8866,3.5111,10.5979,1277,2862.73
19254,-1.5048,-0.2502,12.2846,1272,2862.73
19259,-4.1336,-0.176,11.2911,1278,2862.73
19264,0.255,2.6815,9.2225,1279,2862.73
19269,1.9872,3.9253,10.3142,1275,2862.73
19274,-1.889,0.6345,11.9507,1287,2862.73
19279,-3.6727,-0.8882,11.874,1278,2862.73
19284,-0.8571,2.3703,9.0908,1277,2862.6
19289,1.8842,3.9037,10.2496,1275,2862.6
19294,-1.804,1.2486,11.6083,1273,2862.6
19299,-3.0167,-1.3862,12.2463,1293,2862.6
19304,-2.1548,1.9788,9.2632,1278,2862.6
19309,1.8136,3.7553,10.2029,1272,2862.6
19314,-0.6249,1.8938,11.224,1289,2862.6
19319,-2.2314,-1.5479,12.3996,1277,2862.6
19324,-3.3016,1.4341,9.7408,1289,2862.6
19329,1.6532,3.4536,9.9467,1278,2862.6
19334,0.9589,2.63,10.8697,1277,2862.6
19339,-1.5407,-1.1971,12.3613,1279,2862.6
19344,-4.0151,0.6943,10.3597,1279,2862.6
19349,1.1791,3.0909,9.6127,1275,2862.32
19354,1.8064,3.286,10.635,1289,2862.32
19359,-1.4138,-0.4453,12.2583,1287,2862.32
19364,-4.2042,-0.073,11.1259,1287,2862.32
19369,0.3687,2.7485,9.3577,1273,2862.05
19374,1.8986,3.8176,10.4076,1289,2862.05
19379,-1.8447,0.4082,11.9854,1291,2862.05
19384,-3.8654,-0.7446,11.8393,1291,2862.05
19389,-0.6381,2.4888,9.1207,1274,2862.19
19394,1.9106,4.0378,10.3346,1288,2862.19
19399,-1.9441,1.1911,11.6574,1277,2862.19
19404,-3.1244,-1.239,12.2559,1289,2862.19
19409,-1.8639,2.0662,9.1842,1277,2862.05
19414,1.9082,3.9073,10.1969,1277,2862.05
19419,-0.905,1.7238,11.2132,1292,2862.05
19424,-2.3296,-1.5778,12.4391,1278,2862.05
19429,-3.0658,1.5443,9.5732,1276,2862.05
19434,1.6664,3.486,9.9814,1287,2862.32
19439,0.5854,2.405,10.9223,1279,2862.32
19444,-1.652,-1.3623,12.4187,1277,2862.32
19449,-3.9289,0.8966,10.2807,1283,2862.32
19454,1.2558,3.1137,9.6618,1275,2862.46
19459,1.634,3.2262,10.6722,1288,2862.46
19464,-1.4341,-0.6632,12.323,1289,2862.46
19469,-4.1982,0.1508,11.0337,1287,2862.46
19474,0.6093,2.8323,9.3733,1287,2862.19
19479,2.0087,3.7601,10.4256,1291,2862.19
19484,-1.6819,0.2418,12.1075,1288,2862.19
19489,-3.9121,-0.559,11.655,1287,2862.19
19494,-0.3508,2.5343,9.1004,1275,2862.32
19499,1.9082,3.9756,10.3513,1293,2862.32
19504,-1.9884,0.9637,11.7783,1289,2862.32
19509,-3.2813,-1.1839,12.1386,1291,2862.32
19514,-1.6005,2.1524,9.098,1289,2862.05
19519,1.7945,3.8834,10.2208,1287,2862.05
19524,-1.2617,1.6484,11.4156,1293,2862.05
19529,-2.5558,-1.5263,12.3206,1285,2862.05
19534,-2.8467,1.7059,9.4966,1289,2862.05
19539,1.6807,3.6033,10.0353,1292,2861.78
19544,0.2957,2.2972,11.0133,1295,2861.78
19549,-1.7681,-1.4066,12.3888,1288,2861.78
19554,-3.7984,1.0331,10.0592,1298,2861.78
19559,1.397,3.2525,9.7791,1274,2861.78
19564,1.5742,3.0215,10.7607,1292,2861.78
19569,-1.3527,-0.8164,12.3265,1291,2861.78
19574,-4.1934,0.2885,10.8565,1289,2861.78
19579,0.7159,2.879,9.4607,1291,2861.64
19584,1.8723,3.6224,10.4543,1293,2861.64
19589,-1.6424,0.0383,12.0859,1279,2861.64
19594,-3.9959,-0.4884,11.5113,1290,2861.64
19599,-0.1808,2.5857,9.1734,1285,2861.5
19604,1.8806,3.9672,10.3298,1291,2861.5
19609,-1.9944,0.9469,11.8776,1285,2861.5
19614,-3.456,-1.087,12.05,1291,2861.5
19619,-1.3024,2.2637,9.1255,1288,2861.09
19624,1.919,3.9804,10.24,1293,2861.09
19629,-1.488,1.5071,11.4551,1289,2861.09
19634,-2.6228,-1.4964,12.3505,1289,2861.09
19639,-2.5941,1.7753,9.4296,1291,2861.37
19644,1.7502,3.6847,10.0604,1299,2861.37
19649,0.0108,2.1536,11.0923,1295,2861.37
19654,-1.9213,-1.5036,12.4403,1287,2861.37
19659,-3.6416,1.1648,9.9228,1297,2861.37
19664,1.4437,3.3028,9.8007,1288,2861.64
19669,1.3264,2.8778,10.7727,1288,2861.64
19674,-1.4653,-0.9756,12.3684,1287,2861.64
19679,-4.2138,0.431,10.6805,1291,2861.64
19684,0.8631,2.9892,9.511,1293,2861.78
19689,1.9297,3.5733,10.5716,1291,2861.78
19694,-1.5359,-0.0898,12.1602,1287,2861.78
19699,-4.0977,-0.2945,11.4132,1295,2861.78
19704,0.0778,2.648,9.1842,1287,2862.19
19709,1.962,3.9325,10.3944,1289,2862.19
19714,-1.9908,0.729,11.9207,1289,2862.19
19719,-3.5494,-0.9804,12.062,1289,2862.19
19724,-1.0989,2.3068,9.1147,1289,2862.32
19729,1.8818,3.9828,10.2161,1292,2862.32
19734,-1.6987,1.3934,11.5341,1285,2862.32
19739,-2.8587,-1.4006,12.2487,1293,2862.32
19744,-2.3846,1.8699,9.2656,1291,2862.32
19749,1.7633,3.7433,10.1849,1285,2862.32
19754,-0.3627,2.0016,11.1857,1273,2862.32
19759,-2.0961,-1.5083,12.4271,1284,2862.32
19764,-3.4907,1.3396,9.8833,1294,2862.32
19769,1.5431,3.3974,9.8952,1288,2862.6
19774,1.148,2.7641,10.8888,1287,2862.6
19779,-1.4892,-1.087,12.3014,1285,2862.6
19784,-4.0941,0.6153,10.5213,1275,2862.6
19789,1.0918,3.0155,9.5816,1290,2862.46
19794,1.8651,3.4034,10.5417,1289,2862.46
19799,-1.4772,-0.316,12.226,1285,2862.46
19804,-4.1707,-0.1891,11.2911,1294,2862.46
19809,0.2538,2.6983,9.2165,1289,2862.6
19814,1.9465,3.8523,10.3896,1276,2862.6
19819,-1.9178,0.5686,12.0189,1290,2862.6
19824,-3.7972,-0.8404,11.8812,1291,2862.6
19829,-0.8116,2.399,9.1279,1293,2862.05
19834,1.9094,4.0342,10.2376,1291,2862.05
19839,-1.8723,1.2917,11.6622,1286,2862.05
19844,-3.0394,-1.3264,12.2428,1288,2862.05
19849,-2.053,1.9884,9.2308,1293,2861.09
19854,1.8399,3.8128,10.1191,1287,2861.09
19859,-0.68,1.8591,11.2504,1294,2861.09
19864,-2.1668,-1.573,12.372,1289,2861.09
19869,-3.2346,1.4664,9.6738,1291,2861.09
19874,1.6484,3.4788,9.9419,1269,2862.46
19879,0.8212,2.5762,10.896,1293,2862.46
19884,-1.5371,-1.3001,12.4032,1291,2862.46
19889,-4.0127,0.7745,10.3441,1287,2862.46
19894,1.1241,3.1041,9.6881,1285,2861.64
19899,1.7909,3.3363,10.6195,1293,2861.64
19904,-1.4653,-0.48,12.2368,1288,2861.64
19909,-4.215,-0.0084,11.1055,1291,2861.64
19914,0.5243,2.7725,9.3829,1285,2860.96
19919,1.98,3.8104,10.3717,1289,2860.96
19924,-1.8268,0.4118,11.9902,1295,2860.96
19929,-3.8499,-0.6907,11.7543,1288,2860.96
19934,-0.5543,2.4768,9.1602,1286,2861.78
19939,1.8986,3.9552,10.3741,1291,2861.78
19944,-1.9513,1.0894,11.6957,1288,2861.78
19949,-3.1424,-1.2893,12.1566,1299,2861.78
19954,-1.8483,2.0291,9.153,1291,2861.23
19959,1.8196,3.79,10.2029,1287,2861.23
19964,-0.9948,1.6951,11.2875,1300,2861.23
19969,-2.3822,-1.6101,12.4127,1285,2861.23
19974,-3.0394,1.5622,9.5828,1277,2861.23
19979,1.6819,3.5338,10.0078,1287,2862.05
19984,0.5782,2.4026,10.9247,1291,2862.05
19989,-1.6496,-1.3384,12.4044,1293,2862.05
19994,-3.9037,0.9014,10.2185,1289,2862.05
19999,1.2809,3.1687,9.6822,1285,2861.64
20004,1.7238,3.1975,10.7248,1295,2861.64
20009,-1.3838,-0.6081,12.2835,1291,2861.64
20014,-4.1887,0.1401,11.0085,1293,2861.64
20019,0.5938,2.7976,9.335,1289,2861.37
20024,1.9848,3.7397,10.4758,1291,2861.37
20029,-1.7202,0.1532,12.0309,1300,2861.37
20034,-3.9636,-0.6237,11.6849,1291,2861.37
20039,-0.3879,2.4409,9.1698,1285,2861.64
20044,1.9213,3.9899,10.3346,1301,2861.64
20049,-2.0171,0.972,11.7376,1287,2861.64
20054,-3.3435,-1.1851,12.1673,1287,2861.64
20059,-1.5682,2.1464,9.1363,1290,2861.64
20064,1.9405,3.9648,10.2232,1288,2861.64
20069,-1.2617,1.6185,11.4,1299,2861.64
20074,-2.4936,-1.4964,12.4187,1286,2861.64
20079,-2.8395,1.7023,9.4978,1279,2861.64
20084,1.7645,3.6607,10.0066,1285,2860.96
20089,0.3244,2.2901,11.0313,1291,2860.96
20094,-1.731,-1.5024,12.3637,1289,2860.96
20099,-3.8331,1.0068,10.0856,1290,2860.96
20104,1.391,3.2286,9.7707,1289,2860.96
20109,1.5227,3.0203,10.7069,1291,2860.96
20114,-1.3922,-0.8835,12.3804,1285,2860.96
20119,-4.2282,0.249,10.8709,1291,2860.96
20124,0.7362,2.8742,9.4116,1295,2860.96
20129,1.9213,3.7086,10.4986,1289,2860.96
20134,-1.6592,0.1197,12.1554,1291,2860.96
20139,-4.0498,-0.4477,11.5389,1290,2860.96
20144,-0.1389,2.5833,9.1806,1289,2861.5
20149,1.8771,4.0019,10.343,1299,2861.5
20154,-2.0231,0.9182,11.8094,1286,2861.5
20159,-3.4405,-1.0882,12.0584,1288,2861.5
20164,-1.336,2.2194,9.1375,1291,2861.09
20169,1.8639,3.8966,10.2256,1291,2861.09
20174,-1.4353,1.5383,11.4467,1289,2861.09
20179,-2.6671,-1.5371,12.299,1285,2861.09
20184,-2.6205,1.7131,9.3984,1291,2861.09
20189,1.7095,3.6512,10.1203,1295,2861.64
20194,-0.0443,2.156,11.0624,1293,2861.64
20199,-1.9297,-1.4748,12.4463,1285,2861.64
20204,-3.6703,1.1779,9.9491,1289,2861.64
20209,1.4724,3.2968,9.8653,1289,2861.78
20214,1.3695,2.9353,10.8302,1289,2861.78
20219,-1.4293,-0.8535,12.3924,1286,2861.78
20224,-4.1611,0.419,10.6961,1288,2861.78
20229,0.8954,2.9401,9.4918,1293,2861.5
20234,1.9249,3.5171,10.5524,1279,2861.5
20239,-1.5467,-0.0826,12.1398,1289,2861.5
20244,-4.0821,-0.3639,11.4395,1299,2861.5
20249,0.012,2.5953,9.1985,1279,2861.78
20254,1.889,3.9169,10.3801,1289,2861.78
20259,-1.9872,0.7805,11.8477,1287,2861.78
20264,-3.5805,-0.9541,12.0572,1289,2861.78
20269,-1.1025,2.3032,9.0728,1280,2860.82
20274,1.9142,4.0115,10.3549,1293,2860.82
20279,-1.6999,1.3838,11.5209,1287,2860.82
20284,-2.8299,-1.4174,12.2595,1290,2860.82
20289,-2.4373,1.9381,9.3099,1288,2862.19
20294,1.8926,3.8176,10.1466,1293,2862.19
20299,-0.3017,2.0602,11.1043,1291,2862.19
20304,-2.0063,-1.5167,12.402,1287,2862.19
20309,-3.4943,1.3001,9.8258,1293,2862.19
20314,1.5479,3.3519,9.8126,1289,2861.37
20319,1.1444,2.721,10.7847,1287,2861.37
20324,-1.4377,-1.1576,12.3469,1288,2861.37
20329,-4.1707,0.5219,10.568,1291,2861.37
20334,0.9948,2.9628,9.6175,1293,2860.96
20339,1.8459,3.4848,10.5632,1290,2860.96
20344,-1.506,-0.243,12.208,1289,2860.96
20349,-4.1683,-0.182,11.3234,1298,2860.96
20354,0.2789,2.6899,9.2799,1288,2860.96
20359,1.9644,3.8786,10.3789,1288,2860.96
20364,-1.9417,0.6345,11.9399,1291,2860.96
20369,-3.6631,-0.844,11.9243,1288,2860.96
20374,-0.832,2.3511,9.1387,1287,2861.23
20379,1.9106,3.9792,10.234,1293,2861.23
20384,-1.7861,1.3012,11.552,1290,2861.23
20389,-2.9413,-1.4114,12.1697,1294,2861.23
20394,-2.1368,1.9381,9.2775,1292,2861.64
20399,1.7789,3.7278,10.1191,1275,2861.64
20404,-0.589,1.8998,11.2671,1291,2861.64
20409,-2.2134,-1.5526,12.3792,1287,2861.64
20414,-3.3208,1.4269,9.7636,1293,2861.64
20419,1.1277,3.1077,9.5828,1288,2862.05
20424,0.9553,2.6959,10.8804,1287,2862.05
20429,-1.4688,-0.3352,12.2523,1289,2862.05
20434,-4.1887,-0.0934,11.1989,1291,2862.05
20439,1.1432,3.0574,9.6426,1291,2862.32
20444,1.9501,3.8367,10.4172,1291,2862.32
20449,-1.7968,0.4824,11.9902,1287,2862.32
20454,-3.796,-0.8176,11.8357,1291,2862.32
20459,-0.7063,2.387,9.0968,1291,2861.91
20464,1.8818,3.96,10.2831,1288,2861.91
20469,-1.9237,1.1732,11.6179,1285,2861.91
20474,-3.1855,-1.318,12.202,1289,2861.91
20479,-2.0063,2.0877,9.2165,1287,2861.09
20484,1.8639,3.881,10.2448,1293,2861.09
20489,-0.8942,1.8328,11.2192,1285,2861.09
20494,-2.2505,-1.5143,12.4127,1294,2861.09
20499,-3.1999,1.506,9.645,1291,2860.55
20504,1.6927,3.5698,10.0197,1287,2860.55
20509,0.8009,2.5007,10.8637,1293,2860.55
20514,-1.555,-1.312,12.4032,1287,2860.55
20519,-3.9863,0.7638,10.2771,1294,2860.55
20524,1.2222,3.0706,9.6678,1288,2860.14
20529,1.7035,3.2094,10.5716,1285,2860.14
20534,-1.4066,-0.5255,12.3265,1289,2860.14
20539,-4.215,-0.0084,11.0911,1288,2860.14
20544,0.4441,2.7557,9.3266,1289,2860.0
20549,1.8639,3.8128,10.4567,1292,2860.0
20554,-1.7921,0.3771,12.056,1287,2860.0
20559,-3.8654,-0.6345,11.7029,1287,2860.0
20564,-0.4705,2.5163,9.1542,1285,2860.0
20569,1.9417,4.045,10.3106,1288,2860.0
20574,-1.9752,1.1217,11.6047,1289,2860.0
20579,-3.1568,-1.2091,12.1997,1289,2860.0
20584,-1.7286,2.0746,9.2189,1286,2860.28
20589,1.8854,3.8535,10.1945,1277,2860.28
20594,-1.1325,1.6544,11.2492,1285,2860.28
20599,-2.3571,-1.6173,12.3553,1295,2860.28
20604,-3.0442,1.5119,9.5984,1291,2859.87
20609,1.6328,3.4656,10.0054,1287,2859.87
20614,0.5219,2.3966,10.9223,1293,2859.87
20619,-1.6783,-1.3982,12.3397,1285,2859.87
20624,-3.887,0.8775,10.1933,1291,2859.87
20629,1.3288,3.1663,9.7037,1277,2860.96
20634,1.6568,3.1951,10.6662,1287,2860.96
20639,-1.4605,-0.5662,12.4271,1288,2860.96
20644,-4.1635,0.1963,11.1749,1289,2860.96
20649,0.6117,2.897,9.4942,1287,2861.37
20654,1.9477,3.7661,10.4902,1291,2861.37
20659,-1.6388,0.2466,11.8908,1288,2861.37
20664,-3.9325,-0.6057,11.4586,1290,2861.37
20669,-0.3436,2.49,9.171,1287,2861.23
20674,1.9249,3.9193,10.416,1288,2861.23
20679,-2.0219,0.9732,11.7519,1291,2861.23
20684,-3.3758,-1.2234,12.1362,1293,2861.23
20689,-1.5694,2.1919,9.1782,1277,2861.64
20694,1.822,3.9193,10.0688,1291,2861.64
20699,-1.2677,1.6293,11.2707,1286,2861.64
20704,-2.5343,-1.4892,12.3313,1297,2861.64
20709,-2.7964,1.7873,9.5696,1285,2861.64
20714,1.7777,3.6607,10.1287,1287,2861.64
20719,0.3256,2.3056,10.9714,1289,2861.64
20724,-1.7262,-1.4234,12.4391,1287,2861.64
20729,-3.7781,0.9984,10.0293,1289,2861.64
20734,1.4269,3.2346,9.7408,1291,2861.23
20739,1.5574,2.9916,10.6889,1289,2861.23
20744,-1.4234,-0.8092,12.3553,1287,2861.23
20749,-4.2449,0.2286,10.8745,1287,2861.23
20754,0.7673,2.8826,9.5146,1279,2861.37
20759,1.8567,3.6105,10.4758,1291,2861.37
20764,-1.6771,0.0347,12.0895,1293,2861.37
20769,-4.0091,-0.4764,11.4682,1292,2861.37
20774,-0.1317,2.6037,9.2296,1293,2860.55
20779,1.8878,3.9576,10.3226,1290,2860.55
20784,-1.9992,0.9313,11.8501,1294,2860.55
20789,-3.4058,-1.0558,12.0979,1291,2860.55
20794,-1.2773,2.2051,9.1399,1289,2860.41
20799,1.9201,3.9792,10.2436,1299,2860.41
20804,-1.4377,1.4341,11.3413,1291,2860.41
20809,-2.6324,-1.5155,12.2224,1291,2860.41
20814,-2.5809,1.6963,9.3865,1295,2860.28
20819,1.743,3.6452,10.1861,1290,2860.28
20824,0.0048,2.1261,10.969,1303,2860.28
20829,-1.9465,-1.4892,12.3792,1287,2860.28
20834,-3.7338,1.2019,9.9323,1287,2860.28
20839,1.4569,3.3651,9.8725,1292,2860.41
20844,1.3599,2.9233,10.7871,1289,2860.41
20849,-1.4988,-0.917,12.3792,1289,2860.41
20854,-4.1803,0.4477,10.7787,1291,2860.41
20859,0.9445,2.9999,9.5553,1287,2860.68
20864,1.9573,3.6368,10.4842,1291,2860.68
20869,-1.5658,-0.0204,12.0596,1291,2860.68
20874,-4.0091,-0.3663,11.4982,1292,2860.68
20879,0.0826,2.6336,9.238,1289,2860.82
20884,1.9261,3.9121,10.2987,1293,2860.82
20889,-1.9872,0.7027,11.8633,1290,2860.82
20894,-3.6152,-1.0666,11.9471,1299,2860.82
20899,-1.1217,2.2769,9.0932,1285,2860.68
20904,1.8687,3.9528,10.2879,1291,2860.68
20909,-1.6963,1.4114,11.4395,1289,2860.68
20914,-2.8335,-1.4078,12.2811,1293,2860.68
20919,-2.3894,1.9106,9.4176,1279,2860.82
20924,1.8555,3.8247,10.0963,1294,2860.82
20929,-0.1987,2.0722,11.1055,1290,2860.82
20934,-1.9848,-1.5036,12.3792,1277,2860.82
20939,-3.4716,1.2462,9.93,1289,2860.82
20944,1.5514,3.3854,9.9228,1299,2860.55
20949,1.251,2.7725,10.7823,1291,2860.55
20954,-1.5155,-1.0642,12.3517,1277,2860.55
20959,-4.1276,0.4908,10.5632,1293,2860.55
20964,0.984,2.9556,9.5433,1287,2860.82
20969,1.822,3.4249,10.5034,1291,2860.82
20974,-1.549,-0.2418,12.2009,1279,2860.82
20979,-4.1456,-0.2837,11.3306,1290,2860.82
20984,0.1879,2.6635,9.317,1293,2860.68
20989,1.8567,3.948,10.392,1288,2860.68
20994,-1.9453,0.6632,11.9483,1287,2860.68
20999,-3.6883,-0.905,11.892,1295,2860.68
21004,-0.8847,2.3523,9.1459,1286,2860.82
21009,1.9345,4.0079,10.2795,1287,2860.82
21014,-1.7741,1.3324,11.5616,1287,2860.82
21019,-2.9221,-1.4257,12.2679,1287,2860.82
21024,-2.1871,1.9561,9.3374,1285,2860.82
21029,1.804,3.7517,10.1502,1293,2860.82
21034,-0.4681,1.9489,11.1294,1288,2860.82
21039,-2.1296,-1.5909,12.396,1288,2860.82
21044,-3.4477,1.342,9.8055,1291,2861.23
21049,1.5909,3.4153,9.9802,1291,2861.23
21054,0.984,2.6432,10.805,1291,2861.23
21059,-1.5802,-1.136,12.4151,1285,2861.23
21064,-4.0929,0.6536,10.4722,1299,2861.23
21069,1.1253,3.1137,9.6582,1285,2860.96
21074,1.822,3.3639,10.5177,1285,2860.96
21079,-1.4461,-0.2957,12.2416,1279,2860.96
21084,-4.1827,-0.1161,11.2061,1289,2860.96
21089,0.3519,2.7461,9.3218,1293,2860.96
21094,1.9525,3.8499,10.3705,1288,2860.96
21099,-1.8747,0.5303,11.9255,1277,2860.96
21104,-3.7625,-0.826,11.825,1300,2860.96
21109,-0.6967,2.3882,9.147,1287,2860.96
21114,1.8986,3.9696,10.3094,1292,2860.96
21119,-1.9142,1.1971,11.5748,1288,2860.96
21124,-3.1173,-1.3276,12.2392,1287,2860.96
21129,-2.0231,2.0255,9.2488,1279,2861.09
21134,1.8423,3.7984,10.2185,1293,2861.09
21139,-0.7985,1.8064,11.2001,1277,2861.09
21144,-2.2302,-1.5119,12.3972,1295,2861.09
21149,-3.1999,1.4952,9.6786,1287,2861.09
21154,1.6628,3.5123,9.9898,1287,2861.09
21159,0.8464,2.4876,10.8553,1277,2861.09
21164,-1.6053,-1.2605,12.4187,1285,2861.09
21169,-3.9995,0.7434,10.3106,1293,2861.09
21174,1.2294,3.0837,9.7205,1285,2861.37
21179,1.7214,3.2681,10.6231,1286,2861.37
21184,-1.4222,-0.5471,12.299,1287,2861.37
21189,-4.2138,-0.0108,11.0935,1285,2861.37
21194,0.4501,2.7749,9.4499,1293,2861.09
21199,1.8435,3.8295,10.4399,1287,2861.09
21204,-1.8244,0.3974,12.0225,1272,2861.09
21209,-3.8607,-0.6788,11.6969,1294,2861.09
21214,-0.516,2.5187,9.1961,1289,2861.09
21219,1.9201,4.027,10.2807,1285,2861.09
21224,-1.919,1.0798,11.6382,1292,2861.09
21229,-3.1544,-1.2426,12.1721,1290,2861.09
21234,-1.743,2.1105,9.2656,1287,2860.96
21239,1.907,3.8523,10.1789,1288,2860.96
21244,-1.0139,1.6652,11.2396,1288,2860.96
21249,-2.3475,-1.6257,12.3481,1297,2860.96
21254,-3.0179,1.5431,9.5948,1291,2860.82
21259,1.6783,3.5446,10.0114,1285,2860.82
21264,0.5806,2.3559,10.9176,1293,2860.82
21269,-1.743,-1.3862,12.3912,1284,2860.82
21274,-3.9313,0.9697,10.2352,1293,2860.82
21279,1.2869,3.2118,9.7097,1275,2860.55
21284,1.6616,3.1484,10.635,1271,2860.55
21289,-1.4353,-0.6644,12.2463,1288,2860.55
21294,-4.2066,0.2011,10.993,1285,2860.55
21299,0.6416,2.8862,9.3793,1285,2860.68
21304,2.0171,3.7457,10.4615,1289,2860.68
21309,-1.7095,0.231,12.0584,1286,2860.68
21314,-3.9397,-0.6081,11.625,1289,2860.68
21319,-0.334,2.5259,9.1351,1277,2860.82
21324,1.8543,3.9385,10.2927,1288,2860.82
21329,-2.0255,0.9589,11.6873,1289,2860.82
21334,-3.3184,-1.2306,12.0895,1289,2860.82
21339,-1.5586,2.1715,9.2009,1279,2860.82
21344,1.8328,3.8918,10.2663,1290,2860.82
21349,-1.2893,1.6472,11.3653,1287,2860.82
21354,-2.5462,-1.4928,12.3002,1291,2860.82
21359,-2.8299,1.7202,9.4499,1288,2860.82
21364,1.7825,3.6356,10.0796,1279,2860.82
21369,0.3855,2.296,10.9547,1293,2860.82
21374,-1.7933,-1.4138,12.4235,1286,2860.82
21379,-3.7888,0.9625,10.0916,1291,2860.82
21384,1.4401,3.2813,9.8282,1289,2860.82
21389,1.5431,3.0095,10.635,1287,2860.82
21394,-1.3994,-0.7877,12.2942,1287,2860.82
21399,-4.2377,0.2143,10.8086,1286,2860.82
21404,0.729,2.897,9.4739,1278,2861.09
21409,1.8196,3.6368,10.4854,1289,2861.09
21414,-1.6759,0.085,12.1302,1289,2861.09
21419,-4.033,-0.492,11.5784,1290,2861.09
21424,-0.1604,2.5738,9.1925,1285,2861.23
21429,1.9094,3.9959,10.331,1287,2861.23
21434,-2.0387,0.9002,11.7735,1293,2861.23
21439,-3.4656,-1.0774,12.0847,1290,2861.23
21444,-1.3156,2.2434,9.183,1286,2861.37
21449,1.9273,3.978,10.2364,1295,2861.37
21454,-1.476,1.4928,11.376,1287,2861.37
21459,-2.6217,-1.4844,12.2978,1290,2861.37
21464,-2.6073,1.7705,9.3913,1279,2861.37
21469,1.7968,3.6931,10.1263,1287,2861.37
21474,0.0371,2.1428,11.0564,1304,2861.37
21479,-1.9213,-1.5036,12.4175,1279,2861.37
21484,-3.711,1.1133,10.0269,1293,2861.37
21489,1.4605,3.292,9.8138,1288,2861.37
21494,1.3587,2.9365,10.7308,1289,2861.37
21499,-1.5239,-0.9553,12.3349,1277,2861.37
21504,-4.1647,0.48,10.7224,1288,2861.37
21509,0.899,2.9664,9.4751,1287,2861.5
21514,1.9237,3.5614,10.5082,1289,2861.5
21519,-1.5874,-0.0407,12.1278,1303,2861.5
21524,-4.0845,-0.3663,11.4048,1291,2861.5
21529,0.0646,2.6468,9.2261,1291,2861.23
21534,1.9345,3.9229,10.3561,1279,2861.23
21539,-1.9597,0.7266,11.8453,1289,2861.23
21544,-3.5865,-1.0427,11.9303,1287,2861.23
21549,-1.0403,2.3068,9.1614,1277,2861.5
21554,1.8519,3.9337,10.2448,1291,2861.5
21559,-1.6723,1.3671,11.4323,1275,2861.5
21564,-2.7904,-1.506,12.2392,1289,2861.5
21569,-2.3906,1.9357,9.3697,1279,2861.78
21574,1.804,3.7302,10.1825,1289,2861.78
21579,-0.2658,2.0387,11.0325,1287,2861.78
21584,-2.0171,-1.549,12.3948,1285,2861.78
21589,-3.5051,1.3168,9.9216,1276,2861.78
21594,1.5562,3.3854,9.912,1290,2862.6
21599,1.2617,2.7809,10.7105,1291,2862.6
21604,-1.5012,-0.9984,12.4008,1279,2862.6
21609,-4.1575,0.559,10.5261,1289,2862.6
21614,1.0534,3.0083,9.6522,1285,2863.01
21619,1.822,3.4201,10.4854,1279,2863.01
21624,-1.488,-0.2478,12.2511,1291,2863.01
21629,-4.1659,-0.2071,11.2958,1289,2863.01
21634,0.2454,2.7054,9.323,1289,2862.87
21639,1.8878,3.8738,10.3394,1289,2862.87
21644,-1.913,0.6369,11.9303,1287,2862.87
21649,-3.7445,-0.8787,11.9124,1291,2862.87
21654,-0.8021,2.3858,9.1602,1285,2862.73
21659,1.9201,3.9947,10.2831,1286,2862.73
21664,-1.8459,1.2498,11.5221,1285,2862.73
21669,-2.958,-1.3431,12.2631,1286,2862.73
21674,-2.0758,2.0016,9.3158,1287,2862.73
21679,1.8675,3.8439,10.1682,1291,2862.73
21684,-0.6668,1.901,11.133,1288,2862.73
21689,-2.1464,-1.5862,12.4187,1289,2862.73
21694,-3.2753,1.4365,9.6905,1287,2862.46
21699,1.6209,3.4584,9.9814,1289,2862.46
21704,0.8918,2.5726,10.8362,1291,2862.46
21709,-1.6101,-1.2486,12.3409,1279,2862.46
21714,-4.0618,0.7626,10.3896,1299,2862.46
21719,1.2007,3.0945,9.6726,1279,2862.46
21724,1.7765,3.3315,10.5896,1285,2862.46
21729,-1.4509,-0.4465,12.2547,1287,2862.46
21734,-4.1875,0.0311,11.1223,1289,2862.46
21739,0.4932,2.7378,9.3757,1289,2862.46
21744,1.9477,3.8439,10.4818,1279,2862.46
21749,-1.7741,0.4046,11.9698,1277,2862.46
21754,-3.8583,-0.6991,11.7579,1293,2862.46
21759,-0.5279,2.4409,9.1734,1287,2862.32
21764,1.9225,3.9995,10.3274,1291,2862.32
21769,-1.9273,1.087,11.558,1287,2862.32
21774,-3.1627,-1.2797,12.153,1279,2862.32
21779,-1.8028,2.0518,9.232,1274,2862.46
21784,1.8459,3.8678,10.1933,1293,2862.46
21789,-1.002,1.7119,11.2623,1285,2862.46
21794,-2.3882,-1.5754,12.3661,1295,2862.46
21799,-3.0394,1.5778,9.6079,1285,2862.32
21804,1.7142,3.5733,10.0832,1279,2862.32
21809,0.6393,2.4253,10.9104,1288,2862.32
21814,-1.6999,-1.3551,12.3661,1278,2862.32
21819,-3.9085,0.9457,10.2197,1293,2862.32
21824,1.2881,3.1879,9.7229,1287,2862.19
21829,1.652,3.2058,10.6159,1287,2862.19
21834,-1.4437,-0.6225,12.3086,1289,2862.19
21839,-4.2401,0.1293,10.9906,1285,2862.19
21844,0.5986,2.8264,9.4188,1288,2862.46
21849,1.9333,3.6966,10.4232,1288,2862.46
21854,-1.7262,0.2191,12.0919,1284,2862.46
21859,-3.9804,-0.6045,11.5831,1289,2862.46
21864,-0.3448,2.4768,9.1997,1275,2862.19
21869,1.9201,3.9828,10.3262,1289,2862.19
21874,-2.0135,0.9661,11.7579,1287,2862.19
21879,-3.3315,-1.1851,12.0871,1289,2862.19
21884,-1.506,2.1488,9.2045,1287,2862.19
21889,1.895,3.8978,10.2232,1288,2862.19
21894,-1.3156,1.6089,11.3665,1285,2862.19
21899,-2.5259,-1.5083,12.3517,1293,2862.19
21904,-2.7928,1.6795,9.4822,1289,2862.19
21909,1.7705,3.6212,10.1382,1285,2862.19
21914,0.2538,2.2374,10.9331,1291,2862.19
21919,-1.8399,-1.4892,12.4367,1285,2862.19
21924,-3.79,1.0319,10.0832,1291,2862.19
21929,1.4114,3.2262,9.8521,1278,2861.91
21934,1.4653,3.0119,10.6602,1259,2861.91
21939,-1.4497,-0.8559,12.3409,1286,2861.91
21944,-4.2449,0.3376,10.8613,1287,2861.91
21949,0.832,2.9808,9.5181,1286,2861.78
21954,1.8998,3.6476,10.5093,1288,2861.78
21959,-1.6412,0.0802,12.1458,1287,2861.78
21964,-4.0498,-0.4345,11.4862,1291,2861.78
21969,-0.0204,2.6061,9.2033,1277,2862.32
21974,1.9537,3.9828,10.3537,1287,2862.32
21979,-1.998,0.8296,11.7268,1291,2862.32
21984,-3.4943,-1.0511,12.0416,1289,2862.32
21989,-1.1899,2.2458,9.159,1279,2862.32
21994,1.883,3.9504,10.2699,1293,2862.32
21999,-1.5526,1.4305,11.3569,1279,2862.32
22004,-2.6875,-1.476,12.3122,1303,2862.32
22009,-2.5438,1.8052,9.4272,1287,2862.46
22014,1.8244,3.6966,10.1969,1288,2862.46
22019,-0.0563,2.0853,11.0552,1299,2862.46
22024,-1.9764,-1.5239,12.457,1278,2862.46
22029,-3.5925,1.2522,9.9659,1286,2862.46
22034,1.5323,3.3615,9.9132,1287,2862.6
22039,1.2845,2.885,10.744,1280,2862.6
22044,-1.4904,-0.9948,12.323,1285,2862.6
22049,-4.1492,0.5183,10.6494,1286,2862.6
22054,0.9541,2.9868,9.5996,1278,2862.73
22059,1.8998,3.5243,10.5201,1291,2862.73
22064,-1.5071,-0.164,12.1458,1291,2862.73
22069,-4.1444,-0.3112,11.3425,1287,2862.73
22074,0.1425,2.66,9.2656,1289,2862.6
22079,1.8962,3.9205,10.4112,1289,2862.6
22084,-1.9992,0.68,11.91,1293,2862.6
22089,-3.6955,-0.9553,11.9231,1289,2862.6
22094,-0.9661,2.3487,9.2057,1278,2862.6
22099,1.8687,3.9935,10.3082,1293,2862.6
22104,-1.7657,1.3204,11.5293,1279,2862.6
22109,-2.9161,-1.3719,12.2068,1287,2862.6
22114,-2.2314,1.9764,9.3733,1289,2862.46
22119,1.8806,3.7757,10.1861,1287,2862.46
22124,-0.4262,1.992,11.1474,1291,2862.46
22129,-2.1201,-1.5897,12.3912,1277,2862.46
22134,-3.3686,1.3551,9.7911,1286,2862.46
22139,1.5981,3.3866,9.924,1288,2862.73
22144,1.0415,2.6863,10.7763,1287,2862.73
22149,-1.5586,-1.2103,12.3649,1280,2862.73
22154,-4.0941,0.6788,10.477,1293,2862.73
22159,1.1229,3.0861,9.6857,1278,2862.73
22164,1.7801,3.4058,10.5489,1289,2862.73
22169,-1.4832,-0.3531,12.2751,1290,2862.73
22174,-4.1851,-0.0838,11.2276,1290,2862.73
22179,0.3926,2.7426,9.2859,1289,2862.46
22184,1.9537,3.899,10.3406,1287,2862.46
22189,-1.8687,0.5219,11.9794,1287,2862.46
22194,-3.7637,-0.7614,11.8453,1293,2862.46
22199,-0.6165,2.4529,9.2105,1279,2862.05
22204,1.9154,3.9911,10.3693,1289,2862.05
22209,-1.9154,1.1732,11.6167,1279,2862.05
22214,-3.0574,-1.3384,12.2092,1285,2862.05
22219,-1.9082,2.0159,9.2021,1287,2862.05
22224,1.8651,3.8199,10.1825,1295,2862.05
22229,-0.8056,1.7657,11.1342,1289,2862.05
22234,-2.3128,-1.5742,12.4235,1291,2862.05
22239,-3.1603,1.4916,9.6786,1277,2862.19
22244,1.6364,3.5195,10.0126,1289,2862.19
22249,0.7386,2.5055,10.8912,1295,2862.19
22254,-1.6628,-1.221,12.402,1289,2862.19
22259,-3.9995,0.8188,10.3058,1294,2862.19
22264,1.257,3.1615,9.6989,1289,2862.32
22269,1.6927,3.225,10.6506,1279,2862.32
22274,-1.4269,-0.5171,12.3134,1289,2862.32
22279,-4.1875,0.0072,11.0911,1291,2862.32
22284,0.4848,2.7737,9.3937,1293,2862.05
22289,1.907,3.7481,10.4088,1292,2862.05
22294,-1.7454,0.3077,11.9842,1289,2862.05
22299,-3.9361,-0.7111,11.6957,1291,2862.05
22304,-0.4429,2.4433,9.1698,1291,2861.91
22309,1.8471,3.9648,10.3681,1290,2861.91
22314,-2.0231,1.0894,11.722,1289,2861.91
22319,-3.2848,-1.2115,12.1985,1289,2861.91
22324,-1.6891,2.1296,9.2823,1291,2861.64
22329,1.901,3.9385,10.2137,1295,2861.64
22334,-1.1516,1.6999,11.2587,1287,2861.64
22339,-2.399,-1.5275,12.3445,1294,2861.64
22344,-2.9317,1.5969,9.6127,1293,2861.37
22349,1.7142,3.5913,10.0257,1287,2861.37
22354,0.486,2.3164,10.9595,1290,2861.37
22359,-1.7609,-1.4533,12.3541,1287,2861.37
22364,-3.8295,0.9541,10.155,1303,2861.37
22369,1.3372,3.1903,9.7755,1286,2861.91
22374,1.5778,3.1065,10.6326,1287,2861.91
22379,-1.4676,-0.7769,12.3014,1276,2861.91
22384,-4.2389,0.1891,10.9798,1292,2861.91
22389,0.7386,2.891,9.5134,1292,2861.23
22394,1.9058,3.7409,10.41,1291,2861.23
22399,-1.7358,0.17,12.0967,1288,2861.23
22404,-3.9696,-0.4956,11.5592,1299,2861.23
22409,-0.1844,2.6193,9.1973,1291,2860.68
22414,1.9357,3.954,10.325,1290,2860.68
22419,-2.0602,-0.0012,-0.0012,1292,2860.68
22424,-3.3471,-1.172,12.1171,1289,2860.68
22429,-1.4269,2.1727,9.1614,1287,2860.68
22434,1.8627,3.8966,10.2388,1293,2860.68
22439,-1.3827,1.5383,11.3342,1287,2860.68
22444,-2.5391,-1.549,12.3002,1299,2860.68
22449,-2.7138,1.7178,9.5122,1289,2860.41
22454,1.7214,3.6272,10.1526,1287,2860.41
22459,0.1987,2.2314,11.0145,1291,2860.41
22464,-1.8124,-1.4281,12.4546,1287,2860.41
22469,-3.7529,1.0594,10.0353,1294,2860.41
22474,1.4533,3.3208,9.9252,1285,2860.68
22479,1.4868,2.958,10.6602,1277,2860.68
22484,-1.3994,-0.8152,12.3385,1290,2860.68
22489,-4.1731,0.2885,10.7212,1289,2860.68
22494,0.8272,2.9676,9.511,1287,2861.09
22499,1.9345,3.5602,10.4603,1292,2861.09
22504,-1.5694,0.0323,12.0752,1288,2861.09
22509,-4.0905,-0.4824,11.461,1291,2861.09
22514,-0.0371,2.5666,9.2273,1285,2861.09
22519,1.8806,3.8858,10.325,1288,2861.09
22524,-2.0099,0.8128,11.8501,1287,2861.09
22529,-3.547,-1.0187,11.995,1291,2861.09
22534,-1.2737,2.296,9.1877,1287,2861.64
22539,1.8806,3.9792,10.2388,1293,2861.64
22544,-1.5562,1.4605,11.3904,1285,2861.64
22549,-2.6899,-1.4461,12.3086,1298,2861.64
22554,-2.5259,1.8304,9.3589,1277,2861.64
22559,1.828,3.7433,10.076,1287,2861.64
22564,-0.103,2.077,11.0696,1298,2861.64
22569,-1.9489,-1.5263,12.3864,1287,2861.64
22574,-3.6164,1.1899,9.918,1291,2861.64
22579,1.5,3.298,9.8617,1285,2861.5
22584,1.2953,2.8252,10.7404,1271,2861.5
22589,-1.4904,-1.0487,12.3493,1291,2861.5
22594,-4.1839,0.4429,10.5991,1290,2861.5
22599,0.9852,2.97,9.5996,1277,2861.91
22604,1.8232,3.5267,10.5393,1290,2861.91
22609,-1.5754,-0.1616,12.1889,1291,2861.91
22614,-4.1168,-0.2502,11.4036,1289,2861.91
22619,0.2035,2.642,9.2536,1278,2861.64
22624,1.9632,3.9265,10.3848,1287,2861.64
22629,-1.9884,0.674,11.8585,1299,2861.64
22634,-3.5913,-0.9254,11.9447,1286,2861.64
22639,-0.9062,2.3331,9.1806,1279,2861.64
22644,1.9477,4.0163,10.2723,1294,2861.64
22649,-1.7202,1.2965,11.4251,1287,2861.64
22654,-2.8359,-1.4485,12.2152,1293,2861.64
22659,-2.2326,1.883,9.3386,1279,2861.64
22664,1.7526,3.7122,10.2137,1286,2861.64
22669,-0.4465,2.0004,11.1235,1295,2861.64
22674,-2.1416,-1.5766,12.4427,1285,2861.64
22679,-3.4081,1.342,9.821,1285,2861.64
22684,1.5598,3.4381,9.9683,1289,2861.5
22689,1.0594,2.7509,10.7763,1285,2861.5
22694,-1.5131,-1.0918,12.39,1275,2861.5
22699,-4.0785,0.6584,10.5022,1279,2861.5
22704,1.087,3.0897,9.7109,1277,2862.19
22709,1.8747,3.3914,10.5225,1289,2862.19
22714,-1.4533,-0.3184,12.1769,1289,2862.19
22719,-4.1946,-0.2011,11.1713,1285,2862.19
22724,0.3543,2.7043,9.329,1288,2862.19
22729,1.9249,3.8271,10.3561,1286,2862.19
22734,-1.8723,0.5148,12.0392,1287,2862.19
22739,-3.8259,-0.8799,11.8776,1289,2862.19
22744,-0.7697,2.4169,9.171,1279,2861.91
22749,1.8663,3.9648,10.258,1293,2861.91
22754,-1.9309,1.2246,11.5915,1279,2861.91
22759,-3.0622,-1.3228,12.2332,1288,2861.91
22764,-2.0219,1.9896,9.2811,1288,2861.91
22769,1.8926,3.881,10.2197,1287,2861.91
22774,-0.7219,1.8555,11.1821,1291,2861.91
22779,-2.2194,-1.5479,12.396,1278,2861.91
22784,-3.1795,1.4545,9.6019,1285,2861.91
22789,1.6771,3.5075,9.9431,1293,2861.64
22794,0.82,2.5235,10.8002,1291,2861.64
22799,-1.6388,-1.2749,12.4115,1287,2861.64
22804,-4.0402,0.7183,10.325,1292,2861.64
22809,1.1696,3.0921,9.6642,1285,2862.46
22814,1.6616,3.2765,10.6099,1279,2862.46
22819,-1.47,-0.498,12.2655,1287,2862.46
22824,-4.2581,0.0503,11.0804,1287,2862.46
22829,0.5315,2.8096,9.347,1291,2862.32
22834,1.9333,3.8331,10.4926,1287,2862.32
22839,-1.8747,0.3974,11.9698,1285,2862.32
22844,-3.8702,-0.6416,11.7483,1293,2862.32
22849,-0.4717,2.5151,9.1638,1279,2862.6
22854,1.9201,4.0306,10.3477,1289,2862.6
22859,-1.9668,1.0594,11.6083,1278,2862.6
22864,-3.1939,-1.2402,12.1721,1287,2862.6
22869,-1.725,2.0889,9.1889,1276,2862.6
22874,1.8447,3.8379,10.246,1291,2862.6
22879,-1.0702,1.6484,11.1785,1273,2862.6
22884,-2.4433,-1.5778,12.3529,1289,2862.6
22889,-2.9652,1.6089,9.5768,1277,2862.87
22894,1.6819,3.5757,10.0281,1288,2862.87
22899,0.4573,2.4038,10.9415,1291,2862.87
22904,-1.7454,-1.3084,12.396,1279,2862.87
22909,-3.9121,0.9385,10.1813,1291,2862.87
22914,1.3599,3.1843,9.7887,1285,2862.6
22919,1.6005,3.1292,10.6686,1279,2862.6
22924,-1.4174,-0.6812,12.2775,1279,2862.6
22929,-4.2102,0.1844,10.963,1279,2862.6
22934,0.6991,2.8802,9.4487,1289,2862.6
22939,1.9656,3.7122,10.4136,1286,2862.6
22944,-1.6843,0.1796,12.044,1285,2862.6
22949,-4.0055,-0.6261,11.5604,1294,2862.6
22954,-0.2466,2.5127,9.1842,1285,2862.46
22959,1.8603,3.9612,10.3813,1287,2862.46
22964,-2.0027,0.917,11.8142,1287,2862.46
22969,-3.4429,-1.1181,12.1063,1287,2862.46
22974,-1.4377,2.229,9.2081,1273,2862.32
22979,1.8866,3.9325,10.2077,1289,2862.32
22984,-1.3731,1.5826,11.4239,1284,2862.32
22989,-2.5821,-1.4856,12.3457,1290,2862.32
22994,-2.7102,1.7454,9.4104,1285,2862.19
22999,1.7933,3.6524,10.1287,1277,2862.19
23004,0.182,2.2206,11.0313,1287,2862.19
23009,-1.8328,-1.4952,12.384,1279,2862.19
23014,-3.6955,1.1121,9.9695,1295,2862.19
23019,1.4533,3.2872,9.833,1277,2862.05
23024,1.4006,2.909,10.6973,1277,2862.05
23029,-1.4485,-0.9493,12.3816,1287,2862.05
23034,-4.2282,0.3508,10.744,1287,2862.05
23039,0.8428,2.9521,9.5481,1285,2861.78
23044,1.8818,3.6236,10.5093,1285,2861.78
23049,-1.6245,0.012,12.129,1277,2861.78
23054,-4.1204,-0.3615,11.4598,1293,2861.78
23059,0.0215,2.7031,9.2787,1276,2861.78
23064,1.9309,3.9851,10.4016,1287,2861.78
23069,-2.0303,0.8068,11.7795,1287,2861.78
23074,-3.48,-1.0391,12.0596,1275,2861.78
23079,-1.1313,2.2242,9.1614,1277,2861.91
23084,1.8771,3.9492,10.2508,1289,2861.91
23089,-1.579,1.3767,11.3784,1277,2861.91
23094,-2.7725,-1.4856,12.3421,1289,2861.91
23099,-2.4864,1.8244,9.4236,1277,2862.19
23104,1.7621,3.6799,10.1825,1279,2862.19
23109,-0.2729,2.0375,10.9954,1289,2862.19
23114,-2.0123,-1.5143,12.408,1279,2862.19
23119,-3.6033,1.2773,9.8641,1289,2862.19
23124,1.5395,3.3519,9.894,1276,2862.32
23129,1.2582,2.8407,10.7631,1277,2862.32
23134,-1.5048,-1.0032,12.4642,1287,2862.32
23139,-4.1492,0.5411,10.6817,1286,2862.32
23144,1.0534,3.0299,9.5864,1276,2862.32
23149,1.8902,3.5446,10.5177,1291,2862.32
23154,-1.5083,-0.1808,12.232,1287,2862.32
23159,-4.1432,-0.2873,11.2923,1286,2862.32
23164,0.2179,2.6276,9.1925,1276,2862.46
23169,1.9094,3.875,10.3968,1279,2862.46
23174,-1.9441,0.6285,11.9112,1289,2862.46
23179,-3.6907,-0.9182,11.9734,1287,2862.46
23184,-0.899,2.3451,9.1662,1277,2862.46
23189,1.834,3.9899,10.2855,1289,2862.46
23194,-1.8256,1.2438,11.4994,1285,2862.46
23199,-2.9365,-1.3994,12.1302,1287,2862.46
23204,-2.1739,1.9668,9.2895,1277,2862.46
23209,1.8459,3.808,10.1969,1277,2862.46
23214,-0.5195,1.9249,11.2312,1307,2862.46
23219,-2.1524,-1.5443,12.4211,1273,2862.46
23224,-3.3567,1.4198,9.7312,1277,2862.46
23229,1.6328,3.4093,9.8557,1286,2862.32
23234,0.984,2.6121,10.7571,1279,2862.32
23239,-1.5407,-1.2881,12.402,1276,2862.32
23244,-4.1156,0.644,10.5082,1286,2862.32
23249,1.1121,3.0622,9.7049,1271,2863.01
23254,1.7526,3.298,10.6171,1285,2863.01
23259,-1.488,-0.4226,12.1709,1289,2863.01
23264,-4.2497,-0.018,11.1306,1287,2863.01
23269,0.4489,2.7737,9.3338,1294,2862.87
23274,1.9417,3.8642,10.3956,1285,2862.87
23279,-1.9178,0.4884,11.9878,1286,2862.87
23284,-3.8451,-0.7326,11.8525,1285,2862.87
23289,-0.5722,2.4852,9.2093,1272,2862.73
23294,1.9309,3.9863,10.2999,1292,2862.73
23299,-1.9609,1.1456,11.5233,1277,2862.73
23304,-3.0909,-1.312,12.1374,1285,2862.73
23309,-1.8352,2.0638,9.2644,1279,2862.32
23314,1.8316,3.8044,10.2161,1285,2862.32
23319,-0.9158,1.7466,11.2384,1285,2862.32
23324,-2.3475,-1.5706,12.3792,1276,2862.32
23329,-3.1101,1.5119,9.6295,1277,2862.32
23334,1.6999,3.5123,10.0401,1288,2862.19
23339,0.6393,2.4397,10.8661,1289,2862.19
23344,-1.7382,-1.3336,12.457,1278,2862.19
23349,-3.978,0.8571,10.2651,1289,2862.19
23354,1.2857,3.219,9.7683,1278,2862.6
23359,1.7083,3.2358,10.6554,1278,2862.6
23364,-1.4377,-0.5806,12.2918,1287,2862.6
23369,-4.209,0.0563,10.9762,1276,2862.6
23374,0.6512,2.824,9.4056,1279,2862.6
23379,1.9632,3.7158,10.4232,1285,2862.6
23384,-1.7538,0.2406,12.0608,1277,2862.6
23389,-3.9624,-0.6728,11.7088,1289,2862.6
23394,-0.3364,2.5259,9.1794,1283,2862.73
23399,1.8854,3.9971,10.2915,1279,2862.73
23404,-1.9836,0.9852,11.655,1277,2862.73
23409,-3.292,-1.2043,12.0943,1279,2862.73
23414,-1.5826,2.1739,9.1925,1278,2862.73
23419,1.9237,3.9253,10.2244,1287,2862.73
23424,-1.2019,1.6041,11.3377,1277,2862.73
23429,-2.5295,-1.4988,12.3792,1287,2862.73
23434,-2.7821,1.7083,9.493,1278,2862.6
23439,1.7837,3.5997,10.0592,1278,2862.6
23444,0.3065,2.3056,10.969,1290,2862.6
23449,-1.8088,-1.4437,12.3637,1276,2862.6
23454,-3.8056,1.0511,10.1059,1290,2862.6
23459,1.4066,3.2513,9.8198,1275,2862.6
23464,1.5215,2.9796,10.7236,1278,2862.6
23469,-1.4257,-0.8236,12.2906,1279,2862.6
23474,-4.2174,0.3041,10.7978,1285,2862.6
23479,0.7685,2.9042,9.4487,1287,2862.46
23484,1.9273,3.638,10.5189,1278,2862.46
23489,-1.6867,0.0622,12.1422,1275,2862.46
23494,-4.0713,-0.4082,11.5616,1293,2862.46
23499,-0.0634,2.6312,9.2727,1279,2862.73
23504,1.9585,3.978,10.3453,1279,2862.73
23509,-2.0387,0.8871,11.8226,1279,2862.73
23514,-3.4584,-1.0247,12.0021,1292,2862.73
23519,-1.221,2.2829,9.1435,1275,2862.73
23524,1.9237,3.9025,10.234,1289,2862.73
23529,-1.5215,1.4904,11.3928,1275,2862.73
23534,-2.7246,-1.5012,12.2966,1288,2862.73
23539,-2.5283,1.7549,9.4188,1277,2862.87
23544,1.8016,3.6547,10.1107,1279,2862.87
23549,-0.0982,2.1464,11.0157,1285,2862.87
23554,-1.9872,-1.5239,12.396,1276,2862.87
23559,-3.6571,1.1744,9.973,1291,2862.87
23564,1.5395,3.3303,9.8773,1276,2862.87
23569,1.3276,2.8826,10.7835,1275,2862.87
23574,-1.5,-0.9732,12.3864,1277,2862.87
23579,-4.1659,0.4788,10.6171,1277,2862.87
23584,0.9768,3.0239,9.596,1279,2863.01
23589,1.919,3.535,10.5225,1279,2863.01
23594,-1.555,-0.1197,12.1925,1274,2863.01
23599,-4.1408,-0.346,11.3557,1303,2863.01
23604,0.1568,2.7162,9.2368,1279,2863.01
23609,1.8998,3.899,10.3082,1279,2863.01
23614,-1.9824,0.6895,11.8812,1287,2863.01
23619,-3.6583,-0.9625,11.9435,1286,2863.01
23624,-0.9744,2.3439,9.1435,1279,2863.01
23629,1.901,3.9253,10.2999,1278,2863.01
23634,-1.7442,1.2893,11.5161,1275,2863.01
23639,-2.9341,-1.4114,12.2894,1289,2863.01
23644,-2.2889,1.9489,9.3338,1276,2863.14
23649,1.8866,3.8247,10.1778,1277,2863.14
23654,-0.4477,1.9393,11.1905,1291,2863.14
23659,-2.0913,-1.5263,12.4714,1274,2863.14
23664,-3.3674,1.3958,9.8031,1286,2863.14
23669,1.6245,3.4548,9.906,1276,2863.01
23674,1.0056,2.6564,10.7931,1275,2863.01
23679,-1.5227,-1.1768,12.3708,1277,2863.01
23684,-4.0809,0.6381,10.4615,1279,2863.01
23689,1.0846,3.037,9.6355,1273,2862.6
23694,1.8256,3.3004,10.6147,1277,2862.6
23699,-1.4676,-0.3891,12.1805,1285,2862.6
23704,-4.2701,-0.0634,11.2372,1287,2862.6
23709,0.3484,2.7749,9.3302,1274,2861.5
23714,1.9213,3.8607,10.4375,1277,2861.5
23719,-1.9441,0.5195,11.9375,1290,2861.5
23724,-3.7912,-0.7865,11.8776,1288,2861.5
23729,-0.6764,2.4193,9.1542,1274,2862.46
23734,1.9513,4.0151,10.2663,1288,2862.46
23739,-1.907,1.2378,11.5233,1277,2862.46
23744,-3.0191,-1.2977,12.2009,1289,2862.46
23749,-1.9034,1.992,9.2308,1273,2862.19
23754,1.8914,3.8032,10.2352,1279,2862.19
23759,-0.82,1.8172,11.1594,1291,2862.19
23764,-2.3056,-1.6149,12.4283,1276,2862.19
23769,-3.1915,1.4916,9.6762,1275,2862.19
23774,1.6221,3.4931,10.0545,1285,2862.32
23779,0.7326,2.5019,10.8457,1277,2862.32
23784,-1.6412,-1.2989,12.3146,1277,2862.32
23789,-3.9863,0.838,10.3573,1277,2862.32
23794,1.2653,3.1819,9.7671,1275,2862.87
23799,1.7418,3.2848,10.5884,1278,2862.87
23804,-1.4473,-0.5662,12.2631,1286,2862.87
23809,-4.2066,0.0503,11.0552,1279,2862.87
23814,0.5902,2.8695,9.4164,1287,2863.14
23819,2.0027,3.7601,10.4136,1279,2863.14
23824,-1.7729,0.3412,12.0345,1279,2863.14
23829,-3.9085,-0.6764,11.6825,1278,2863.14
23834,-0.3915,2.5271,9.1973,1272,2863.28
23839,1.8687,3.9253,10.2783,1287,2863.28
23844,-1.9764,1.0283,11.6921,1277,2863.28
23849,-3.3136,-1.3072,12.1554,1279,2863.28
23854,-1.6843,2.1703,9.2308,1278,2863.14
23859,1.895,3.9217,10.2268,1279,2863.14
23864,-1.154,1.6795,11.3617,1287,2863.14
23869,-2.5151,-1.5287,12.4259,1275,2863.14
23874,-2.8934,1.7166,9.487,1277,2863.14
23879,1.7669,3.5901,10.0437,1288,2862.87
23884,0.3496,2.2996,10.9415,1286,2862.87
23889,-1.7154,-1.4114,12.4199,1286,2862.87
23894,-3.7984,0.996,10.1478,1288,2862.87
23899,1.3934,3.2202,9.8294,1277,2863.28
23904,1.5838,3.037,10.7236,1285,2863.28
23909,-1.4269,-0.7901,12.3146,1275,2863.28
23914,-4.215,0.2334,10.8098,1285,2863.28
23919,0.7494,2.8383,9.4212,1285,2863.01
23924,1.9094,3.6452,10.5022,1279,2863.01
23929,-1.6771,0.1676,12.1685,1275,2863.01
23934,-4.0737,-0.4477,11.6023,1291,2863.01
23939,-0.1413,2.6085,9.2129,1275,2862.87
23944,1.9285,3.9995,10.3837,1286,2862.87
23949,-1.98,0.8954,11.7184,1279,2862.87
23954,-3.4081,-1.0582,11.9997,1279,2862.87
23959,-1.3192,2.1943,9.1423,1270,2862.87
23964,1.98,3.9516,10.2675,1292,2862.87
23969,-1.4796,1.4856,11.2934,1279,2862.87
23974,-2.6719,-1.5107,12.3325,1289,2862.87
23979,-2.5929,1.7214,9.396,1285,2862.87
23984,1.7873,3.6452,10.0904,1279,2862.87
23989,-0.0263,2.0818,11.0433,1277,2862.87
23994,-1.9417,-1.5167,12.3816,1273,2862.87
23999,-3.711,1.1289,9.9934,1279,2862.87
24004,1.4904,3.3004,9.9024,1277,2863.28
24009,1.3048,2.9161,10.7368,1277,2863.28
24014,-1.4868,-0.9661,12.4187,1285,2863.28
24019,-4.2126,0.48,10.7093,1287,2863.28
24024,0.9649,2.9808,9.5253,1288,2863.14
24029,1.9477,3.5829,10.5153,1285,2863.14
24034,-1.5646,-0.091,12.1518,1275,2863.14
24039,-4.1013,-0.3089,11.4323,1289,2863.14
24044,0.1448,2.6528,9.2536,1291,2863.14
24049,1.9429,3.8954,10.2831,1285,2863.14
24054,-2.0147,0.662,11.8908,1291,2863.14
24059,-3.6344,-1.0175,11.9471,1286,2863.14
24064,-1.0175,2.3679,9.1686,1279,2863.01
24069,1.8699,3.9528,10.2113,1285,2863.01
24074,-1.7442,1.3575,11.5556,1279,2863.01
24079,-2.9233,-1.4413,12.2727,1289,2863.01
24084,-2.2494,1.9333,9.3709,1285,2862.87
24089,1.8435,3.8223,10.1562,1275,2862.87
24094,-0.4609,1.9896,11.1618,1288,2862.87
24099,-2.0889,-1.5383,12.3696,1279,2862.87
24104,-3.3722,1.3767,9.7815,1290,2862.87
24109,1.6281,3.4692,9.9467,1278,2863.42
24114,1.0894,2.6612,10.8421,1285,2863.42
24119,-1.4605,-1.1851,12.4223,1287,2863.42
24124,-4.1108,0.5974,10.4495,1285,2863.42
24129,1.0786,3.0191,9.6223,1275,2863.55
24134,1.816,3.3579,10.562,1288,2863.55
24139,-1.47,-0.3579,12.2404,1279,2863.55
24144,-4.2629,-0.1149,11.2252,1287,2863.55
24149,0.3627,2.7701,9.3697,1277,2863.96
24154,1.8818,3.869,10.4064,1277,2863.96
24159,-1.8902,0.5543,11.9674,1289,2863.96
24164,-3.7984,-0.7649,11.8274,1287,2863.96
24169,-0.6764,2.4684,9.1901,1274,2864.1
24174,1.9297,4.0223,10.2951,1288,2864.1
24179,-1.8495,1.2354,11.5436,1279,2864.1
24184,-3.0586,-1.3372,12.2463,1291,2864.1
24189,-1.8783,2.0387,9.2596,1273,2864.24
24194,1.8435,3.8379,10.2556,1277,2864.24
24199,-0.8009,1.7358,11.1582,1289,2864.24
24204,-2.3403,-1.6604,12.3625,1276,2864.24
24209,-3.134,1.4377,9.6115,1276,2864.24
24214,1.6759,3.4656,10.0592,1277,2864.37
24219,0.6632,2.4792,10.8816,1279,2864.37
24224,-1.67,-1.2809,12.4451,1275,2864.37
24229,-3.9887,0.9086,10.3729,1277,2864.37
24234,1.2641,3.2106,9.7492,1273,2864.92
24239,1.6747,3.2429,10.6135,1287,2864.92
24244,-1.4736,-0.5387,12.3277,1273,2864.92
24249,-4.2054,0.1281,11.0229,1279,2864.92
24254,0.6955,2.8264,9.3829,1278,2864.37
24259,1.998,3.7302,10.4854,1277,2864.37
24264,-1.7585,0.2825,12.0033,1277,2864.37
24269,-3.9337,-0.5794,11.6765,1277,2864.37
24274,-0.3256,2.4983,9.153,1267,2864.37
24279,1.9213,3.9576,10.3022,1287,2864.37
24284,-1.9776,0.9828,11.6885,1277,2864.37
24289,-3.3232,-1.2761,12.1482,1279,2864.37
24294,-1.5981,2.1536,9.171,1279,2863.96
24299,1.8926,3.9073,10.2891,1286,2863.96
24304,-1.2641,1.5993,11.3749,1285,2863.96
24309,-2.6037,-1.494,12.3649,1275,2863.96
24314,-2.8024,1.7418,9.5313,1277,2863.96
24319,1.7873,3.6775,10.0772,1289,2863.83
24324,0.2227,2.2721,11.0193,1287,2863.83
24329,-1.8028,-1.4605,12.4175,1275,2863.83
24334,-3.7577,1.0678,10.0281,1279,2863.83
24339,1.4365,3.2669,9.7887,1273,2863.28
24344,1.5479,2.9748,10.7488,1275,2863.28
24349,-1.4198,-0.8799,12.3062,1275,2863.28
24354,-4.1755,0.3244,10.7248,1279,2863.28
24359,0.8104,2.8982,9.5074,1279,2862.6
24364,1.9118,3.5997,10.5165,1273,2862.6
24369,-1.6293,0.0108,12.1302,1276,2862.6
24374,-4.1204,-0.4094,11.5209,1289,2862.6
24379,-0.0503,2.6049,9.25,1274,2862.46
24384,1.895,3.978,10.3226,1277,2862.46
24389,-2.0554,0.8487,11.7831,1271,2862.46
24394,-3.4943,-0.9732,11.9698,1277,2862.46
24399,-1.2306,2.2817,9.1973,1274,2862.73
24404,1.9178,3.9289,10.2436,1291,2862.73
24409,-1.4952,1.4617,11.394,1277,2862.73
24414,-2.6923,-1.5263,12.2619,1279,2862.73
24419,-2.4732,1.8244,9.3721,1275,2863.42
24424,1.8364,3.6284,10.0952,1276,2863.42
24429,-0.1137,2.083,11.0349,1275,2863.42
24434,-2.0099,-1.5646,12.4989,1271,2863.42
24439,-3.6308,1.1887,9.9599,1287,2863.42
24444,1.5071,3.3459,9.9216,1275,2864.37
24449,1.2163,2.8455,10.7703,1275,2864.37
24454,-1.5562,-1.0211,12.3696,1277,2864.37
24459,-4.1934,0.5555,10.6243,1275,2864.37
24464,1.069,3.0263,9.5026,1286,2865.06
24469,1.9201,3.5303,10.5369,1277,2865.06
24474,-1.5969,-0.1089,12.2823,1273,2865.06
24479,-4.1527,-0.1867,11.3258,1285,2865.06
24484,0.2406,2.7426,9.2775,1274,2865.47
24489,1.9549,3.875,10.3202,1277,2865.47
24494,-1.9429,0.583,11.8776,1287,2865.47
24499,-3.7206,-0.9756,11.8453,1278,2865.47
24504,-0.8966,2.3691,9.1291,1275,2865.6
24509,1.889,3.966,10.3142,1277,2865.6
24514,-1.8352,1.2354,11.5855,1275,2865.6
24519,-3.067,-1.3994,12.2799,1289,2865.6
24524,-2.1057,1.998,9.2775,1273,2865.74
24529,1.9022,3.8535,10.1706,1268,2865.74
24534,-0.7266,1.8268,11.1678,1279,2865.74
24539,-2.2278,-1.4808,12.4427,1275,2865.74
24544,-3.2621,1.4892,9.7013,1285,2865.74
24549,1.7119,3.5494,9.9479,1273,2866.01
24554,0.9134,2.5391,10.8745,1275,2866.01
24559,-1.5945,-1.2163,12.39,1279,2866.01
24564,-4.0306,0.7793,10.3477,1273,2866.01
24569,1.2546,3.0789,9.6833,1271,2866.15
24574,1.7609,3.2334,10.6171,1277,2866.15
24579,-1.4928,-0.5578,12.287,1273,2866.15
24584,-4.2677,0.0263,11.1294,1275,2866.15
24589,0.5231,2.7904,9.3218,1262,2866.15
24594,1.9022,3.7792,10.3956,1279,2866.15
24599,-1.8471,0.3603,12.0368,1285,2866.15
24604,-3.9624,-0.5962,11.7124,1275,2866.15
24609,-0.3962,2.5151,9.1854,1273,2866.15
24614,2.0027,4.0127,10.3801,1303,2866.15
24619,-1.9956,1.0678,11.6993,1263,2866.15
24624,-3.2537,-1.1923,12.1063,1275,2866.15
24629,-1.5586,2.1141,9.1554,1276,2866.42
24634,1.9333,3.8666,10.1718,1277,2866.42
24639,-1.154,1.6161,11.3174,1278,2866.42
24644,-2.496,-1.5574,12.3613,1275,2866.42
24649,-2.8503,1.6448,9.4272,1264,2866.42
24654,1.7681,3.5374,10.0904,1285,2866.42
24659,0.2837,2.3176,10.9834,1277,2866.42
24664,-1.7945,-1.494,12.4056,1271,2866.42
24669,-3.8331,1.0247,10.0928,1286,2866.42
24674,1.4365,3.2417,9.8581,1273,2866.7
24679,1.5131,3.0921,10.6973,1272,2866.7
24684,-1.5203,-0.8236,12.3924,1275,2866.7
24689,-4.2521,0.3891,10.7955,1274,2866.7
24694,0.8978,2.97,9.4727,1277,2866.29
24699,1.9609,3.6524,10.4435,1275,2866.29
24704,-1.5933,0.0658,12.1685,1274,2866.29
24709,-4.0618,-0.4118,11.4682,1286,2866.29
24714,-0.018,2.6624,9.2201,1273,2866.29
24719,1.9501,3.8678,10.313,1275,2866.29
24724,-1.9393,0.7661,11.8333,1275,2866.29
24729,-3.6559,-1.063,11.9818,1275,2866.29
24734,-1.1684,2.2482,9.1135,1275,2866.15
24739,1.9034,3.9397,10.3106,1279,2866.15
24744,-1.6496,1.4186,11.5508,1272,2866.15
24749,-2.8946,-1.4246,12.3637,1287,2866.15
24754,-2.4253,1.9022,9.3529,1276,2866.42
24759,1.8675,3.802,10.1155,1273,2866.42
24764,-0.3124,2.0722,11.1103,1275,2866.42
24769,-2.0446,-1.4593,12.463,1273,2866.42
24774,-3.474,1.3048,9.8318,1285,2866.42
24779,1.6029,3.4081,9.8557,1271,2866.42
24784,1.2007,2.6971,10.8026,1275,2866.42
24789,-1.5179,-1.1396,12.372,1275,2866.42
24794,-4.1527,0.5782,10.4567,1275,2866.42
24799,1.1073,3.0167,9.5217,1275,2866.15
24804,1.7957,3.4225,10.6578,1273,2866.15
24809,-1.549,-0.3148,12.2128,1273,2866.15
24814,-4.2138,-0.0946,11.2611,1286,2866.15
24819,0.3364,2.7066,9.2727,1273,2865.6
24824,1.9046,3.8798,10.4615,1279,2865.6
24829,-1.9501,0.5483,11.9985,1279,2865.6
24834,-3.8008,-0.7649,11.8956,1277,2865.6
24839,-0.6955,2.4349,9.1231,1271,2865.47
24844,1.9764,4.0462,10.313,1277,2865.47
24849,-1.8926,1.2115,11.5987,1277,2865.47
24854,-3.0801,-1.2965,12.1494,1288,2865.47
24859,-1.9034,2.0111,9.165,1269,2865.6
24864,1.9178,3.784,10.1574,1272,2865.6
24869,-0.8643,1.7597,11.236,1285,2865.6
24874,-2.3451,-1.6173,12.3696,1271,2865.6
24879,-3.1783,1.5083,9.5577,1273,2865.6
24884,1.6759,3.4752,9.985,1272,2865.19
24889,0.6584,2.5139,10.9547,1293,2865.19
24894,-1.7131,-1.3707,12.3864,1273,2865.19
24899,-4.0175,0.9158,10.2532,1273,2865.19
24904,1.3144,3.207,9.7899,1261,2865.33
24909,1.7202,3.225,10.6877,1278,2865.33
24914,-1.4497,-0.5746,12.2727,1275,2865.33
24919,-4.2425,0.2011,10.9858,1272,2865.33
24924,0.6656,2.8599,9.3733,1272,2865.47
24929,2.0267,3.7074,10.4172,1273,2865.47
24934,-1.6891,0.2514,12.074,1279,2865.47
24939,-3.9899,-0.6464,11.6298,1273,2865.47
24944,-0.3172,2.5534,9.1662,1273,2865.33
24949,1.9297,3.9301,10.3106,1284,2865.33
24954,-1.9968,0.9804,11.801,1271,2865.33
24959,-3.4548,-1.1899,12.135,1273,2865.33
24964,-1.5036,2.1907,9.1219,1271,2865.06
24969,1.9094,3.8846,10.1981,1277,2865.06
24974,-1.4138,1.6053,11.4874,1284,2865.06
24979,-2.624,-1.5048,12.396,1269,2865.06
24984,-2.7366,1.7466,9.4703,1272,2865.06
24989,1.8028,3.6631,10.0425,1275,2864.92
24994,0.2251,2.2529,11.0504,1275,2864.92
24999,-1.8794,-1.4449,12.3924,1271,2864.92
25004,-3.7326,1.1001,9.9551,1285,2864.92
25009,1.4473,3.298,9.7911,1273,2865.19
25014,1.409,2.9532,10.7643,1273,2865.19
25019,-1.4712,-0.9026,12.3541,1272,2865.19
25024,-4.2198,0.3316,10.7105,1275,2865.19
25029,0.8847,2.9257,9.4188,1275,2864.65
25034,1.8783,3.6152,10.5632,1274,2864.65
25039,-1.6807,-0.0204,12.1661,1271,2864.65
25044,-4.2006,-0.3735,11.467,1284,2864.65
25049,0.0527,2.6288,9.2237,1271,2864.37
25054,1.9297,3.9684,10.4591,1272,2864.37
25059,-2.0219,0.8116,11.8764,1271,2864.37
25064,-3.5961,-0.9888,12.0057,1273,2864.37
25069,-1.1037,2.2817,9.092,1271,2864.24
25074,1.9704,3.9229,10.2412,1277,2864.24
25079,-1.6652,1.3994,11.4407,1268,2864.24
25084,-2.8311,-1.4928,12.2775,1277,2864.24
25089,-2.3727,1.8124,9.2775,1271,2864.24
25094,1.8256,3.6787,10.0401,1271,2864.24
25099,-0.3244,1.9968,11.1414,1266,2864.24
25104,-2.0985,-1.5993,12.4103,1271,2864.24
25109,-3.5051,1.3024,9.7863,1277,2864.24
25114,1.573,3.3734,9.9515,1269,2863.96
25119,1.087,2.7605,10.9032,1269,2863.96
25124,-1.573,-1.1013,12.3876,1269,2863.96
25129,-4.124,0.6393,10.5357,1271,2863.96
25134,1.1073,3.0083,9.59,1273,2864.1
25139,1.9154,3.4357,10.5357,1271,2864.1
25144,-1.4988,-0.3148,12.2308,1271,2864.1
25149,-4.1204,-0.182,11.2611,1276,2864.1
25154,0.3388,2.727,9.2285,1267,2863.96
25159,2.0075,3.8415,10.4124,1271,2863.96
25164,-1.8818,0.5219,11.9914,1275,2863.96
25169,-3.7577,-0.8571,11.7747,1272,2863.96
25174,-0.7697,2.399,9.1063,1270,2863.42
25179,1.8926,3.9313,10.2891,1270,2863.42
25184,-1.9465,1.2629,11.6586,1263,2863.42
25189,-3.1029,-1.3563,12.2284,1278,2863.42
25194,-1.9956,2.0542,9.2189,1273,2863.42
25199,1.8723,3.8259,10.1179,1260,2863.42
25204,-0.8045,1.8974,11.3042,1274,2863.42
25209,-2.3164,-1.5502,12.3912,1262,2863.42
25214,-3.1939,1.5036,9.6558,1269,2863.42
25219,1.6867,3.4656,9.9934,1259,2863.28
25224,0.844,2.5462,11.0038,1262,2863.28
25229,-1.5754,-1.2665,12.3565,1263,2863.28
25234,-3.9911,0.8152,10.2161,1267,2863.28
25239,1.2617,3.1077,9.6881,1257,2863.42
25244,1.7131,3.2429,10.6602,1271,2863.42
25249,-1.4581,-0.5183,12.2966,1261,2863.42
25254,-4.2653,0.0192,11.0361,1259,2863.42
25259,0.4908,2.7952,9.4212,1257,2863.28
25264,1.9058,3.7601,10.4806,1263,2863.28
25269,-1.8292,0.3687,12.0524,1267,2863.28
25274,-3.9696,-0.6333,11.7232,1259,2863.28
25279,-0.407,2.5199,9.1638,1255,2863.83
25284,1.9597,3.9816,10.3561,1263,2863.83
25289,-2.0135,1.1025,11.631,1257,2863.83
25294,-3.2046,-1.2378,12.1242,1267,2863.83
25299,-1.6281,2.1093,9.1854,1257,2864.1
25304,1.9166,3.8786,10.2675,1258,2864.1
25309,-1.1624,1.6281,11.3234,1268,2864.1
25314,-2.4576,-1.5874,12.3696,1257,2864.1
25319,-2.9616,1.579,9.432,1255,2864.1
25324,1.7454,3.5733,10.0509,1259,2863.83
25329,0.3723,2.314,10.9942,1259,2863.83
25334,-1.828,-1.4473,12.4906,1257,2863.83
25339,-3.8738,1.0367,10.1323,1259,2863.83
25344,1.4006,3.1855,9.7372,1257,2863.69
25349,1.567,3.067,10.732,1260,2863.69
25354,-1.4712,-0.7362,12.3601,1261,2863.69
25359,-4.1934,0.2777,10.9116,1259,2863.69
25364,0.7913,2.9257,9.3937,1261,2863.55
25369,1.9932,3.6871,10.5644,1256,2863.55
25374,-1.6628,0.1269,12.0823,1255,2863.55
25379,-3.4393,-1.1468,12.0895,1258,2863.55
25384,-0.1329,2.5762,9.1016,1255,2863.14
25389,1.907,3.8882,10.2699,1267,2863.14
25394,-2.0518,0.8811,11.7914,1253,2863.14
25399,-2.6851,-1.5694,12.3337,1257,2863.14
25404,-1.3551,2.211,9.1016,1263,2863.42
25409,1.7729,3.6715,10.1167,1260,2863.42
25414,0.0,2.2087,11.0911,1261,2863.42
25419,-1.9046,-1.4832,12.4223,1251,2863.42
25424,-3.6823,1.154,9.9707,1259,2863.42
25429,1.5179,3.2705,9.7899,1263,2863.28
25434,1.4485,2.9066,10.7931,1258,2863.28
25439,-1.488,-0.9361,12.3421,1255,2863.28
25444,-4.1623,0.3938,10.7081,1259,2863.28
25449,0.8823,2.9137,9.5241,1253,2863.28
25454,1.8603,3.5865,10.5764,1255,2863.28
25459,-1.5622,-0.1185,12.1506,1253,2863.28
25464,-4.1539,-0.3615,11.394,1257,2863.28
25469,0.0539,2.6288,9.2117,1255,2863.69
25474,1.9501,3.9301,10.3956,1253,2863.69
25479,-2.0291,0.753,11.9159,1255,2863.69
25484,-3.638,-0.9828,11.9866,1263,2863.69
25489,-1.0618,2.3379,9.1123,1254,2863.96
25494,1.9417,3.9588,10.2615,1268,2863.96
25499,-1.7274,1.4042,11.5197,1251,2863.96
25504,-2.8299,-1.4401,12.2044,1257,2863.96
25509,-2.3152,1.8998,9.2608,1256,2864.1
25514,1.8555,3.7373,10.1155,1259,2864.1
25519,-0.395,1.9944,11.1594,1254,2864.1
25524,-2.0853,-1.5814,12.4475,1259,2864.1
25529,-3.4548,1.2929,9.8126,1254,2863.83
25534,1.5862,3.3411,9.8126,1255,2863.83
25539,1.0906,2.7294,10.8134,1251,2863.83
25544,-1.5862,-1.1432,12.3756,1255,2863.83
25549,-4.1288,0.6752,10.4806,1263,2863.83
25554,1.1109,3.1232,9.5996,1255,2863.69
25559,1.8627,3.4488,10.5596,1256,2863.69
25564,-1.5215,-0.2897,12.2703,1253,2863.69
25569,-4.1899,-0.1137,11.2037,1258,2863.69
25574,0.3962,2.7641,9.244,1259,2864.1
25579,2.0099,3.8415,10.3801,1256,2864.1
25584,-1.8783,0.5136,11.9447,1245,2864.1
25589,-3.7888,-0.8152,11.8633,1263,2864.1
25594,-0.6895,2.4169,9.092,1255,2864.24
25599,1.9249,3.9887,10.3178,1257,2864.24
25604,-1.9094,1.2151,11.6095,1259,2864.24
25609,-3.1029,-1.3527,12.1961,1258,2864.24
25614,-1.9154,2.0087,9.2081,1256,2864.37
25619,1.8818,3.8271,10.2173,1256,2864.37
25624,-0.9361,1.7729,11.303,1257,2864.37
25629,-2.2853,-1.5694,12.3684,1267,2864.37
25634,-3.1735,1.5299,9.6307,1259,2864.24
25639,1.6855,3.5027,10.0114,1259,2864.24
25644,0.7733,2.4948,10.9355,1267,2864.24
25649,-1.6652,-1.2833,12.4008,1262,2864.24
25654,-3.9696,0.8739,10.2987,1269,2864.24
25659,1.3084,3.1304,9.6762,1256,2864.1
25664,1.731,3.1879,10.6734,1261,2864.1
25669,-1.4641,-0.6057,12.2811,1263,2864.1
25674,-4.2162,0.0563,11.0049,1259,2864.1
25679,0.5902,2.7521,9.317,1256,2864.1
25684,1.9393,3.7553,10.4232,1267,2864.1
25689,-1.7717,0.3184,12.0069,1267,2864.1
25694,-3.9887,-0.5986,11.6813,1263,2864.1
25699,-0.3699,2.4756,9.177,1256,2864.24
25704,1.9501,3.9816,10.3453,1260,2864.24
25709,-2.0446,1.0008,11.7196,1261,2864.24
25714,-3.3471,-1.172,12.1649,1267,2864.24
25719,-1.5215,2.1715,9.1698,1263,2864.51
25724,1.9836,3.9265,10.2232,1269,2864.51
25729,-1.3216,1.6412,11.3737,1261,2864.51
25734,-2.5295,-1.5838,12.3421,1271,2864.51
25739,-2.806,1.6544,9.4643,1259,2864.78
25744,1.7669,3.5829,10.0401,1263,2864.78
25749,0.2526,2.302,11.0265,1271,2864.78
25754,-1.8902,-1.5215,12.4056,1260,2864.78
25759,-3.8164,1.0882,10.0497,1261,2864.78
25764,1.4317,3.1927,9.7827,1267,2864.78
25769,1.4892,3.0083,10.7512,1271,2864.78
25774,-1.5143,-0.8571,12.396,1271,2864.78
25779,-4.2389,0.34,10.805,1271,2864.78
25784,0.8799,2.9257,9.426,1275,2865.06
25789,1.9405,3.6488,10.5129,1285,2865.06
25794,-1.6484,0.0335,12.1733,1287,2865.06
25799,-4.0606,-0.401,11.4383,1286,2865.06
25804,0.0144,2.6552,9.2548,1290,2864.78
25809,1.9644,3.9409,10.3441,1289,2864.78
25814,-1.9872,0.814,11.8657,1291,2864.78
25819,-3.5446,-1.0714,11.9674,1289,2864.78
25824,-1.1313,2.2625,9.0932,1287,2864.92
25829,1.9034,3.8882,10.246,1293,2864.92
25834,-1.6544,1.3707,11.4658,1290,2864.92
25839,-2.8012,-1.4952,12.3146,1291,2864.92
25844,-2.4636,1.8783,9.3829,1295,2864.78
25849,1.8244,3.7541,10.1347,1295,2864.78
25854,-0.2574,2.0279,11.1366,1293,2864.78
25859,-2.0614,-1.555,12.4283,1291,2864.78
25864,-3.5231,1.2725,9.8509,1295,2864.65
25869,1.5742,3.377,9.8557,1303,2864.65
25874,1.2186,2.7761,10.811,1300,2864.65
25879,-1.5383,-1.0702,12.3924,1291,2864.65
25884,-4.1228,0.6009,10.5297,1305,2864.65
25889,1.0546,3.0251,9.5038,1292,2865.06
25894,1.883,3.4129,10.5584,1293,2865.06
25899,-1.5155,-0.3029,12.232,1291,2865.06
25904,-4.1851,-0.2047,11.2863,1298,2865.06
25909,0.2394,2.6384,9.2488,1298,2864.92
25914,1.9632,3.8391,10.4387,1298,2864.92
25919,-1.9704,0.5495,11.9566,1294,2864.92
25924,-3.8056,-0.8236,11.9147,1305,2864.92
25929,-0.8056,2.3607,9.0872,1291,2865.19
25934,1.98,4.0163,10.3118,1291,2865.19
25939,-1.8914,1.2534,11.5927,1292,2865.19
25944,-3.0849,-1.3396,12.2763,1293,2865.19
25949,-2.0291,2.0171,9.2057,1291,2865.19
25954,1.913,3.8367,10.149,1300,2865.19
25959,-0.7817,1.8268,11.2982,1289,2865.19
25964,-2.241,-1.5921,12.3852,1299,2865.19
25969,-3.1627,1.4581,9.6223,1293,2865.06
25974,1.6999,3.4644,9.9323,1288,2865.06
25979,0.8104,2.5199,10.9619,1293,2865.06
25984,-1.6987,-1.3707,12.4199,1289,2865.06
25989,-3.9935,0.7913,10.2663,1301,2865.06
25994,1.2653,3.1256,9.6546,1287,2864.65
25999,1.7178,3.2609,10.6985,1287,2864.65
26004,-1.4389,-0.5483,12.2691,1292,2864.65
26009,-4.2174,0.1305,11.0468,1291,2864.65
26014,0.5806,2.8144,9.3649,1291,2864.78
26019,1.992,3.7828,10.4818,1293,2864.78
26024,-1.8052,0.2981,12.0692,1291,2864.78
26029,-3.9421,-0.644,11.7017,1293,2864.78
26034,-0.3531,2.4792,9.1961,1290,2864.78
26039,1.9752,3.954,10.2364,1289,2864.78
26044,-1.9992,1.0487,11.7017,1292,2864.78
26049,-3.3076,-1.227,12.135,1291,2864.78
26054,-1.585,2.162,9.1447,1287,2865.19
26059,1.9022,3.8595,10.2029,1293,2865.19
26064,-1.2426,1.5838,11.3581,1290,2865.19
26069,-2.5414,-1.5802,12.3433,1290,2865.19
26074,-2.8539,1.6891,9.4499,1291,2865.06
26079,1.7765,3.5925,10.0245,1287,2865.06
26084,0.2777,2.3032,11.0193,1293,2865.06
26089,-1.8447,-1.4078,12.4714,1287,2865.06
26094,-3.7685,1.1181,10.0305,1289,2865.06
26099,1.4485,3.2956,9.7827,1286,2864.92
26104,1.5407,2.9987,10.7404,1287,2864.92
26109,-1.4198,-0.7949,12.2906,1289,2864.92
26114,-4.1731,0.2933,10.7571,1289,2864.92
26119,0.832,2.8431,9.4308,1285,2865.06
26124,1.9716,3.614,10.495,1297,2865.06
26129,-1.6269,0.018,12.1685,1293,2865.06
26134,-4.0929,-0.4058,11.5077,1291,2865.06
26139,-0.0491,2.5762,9.1447,1290,2864.65
26144,1.9704,3.9756,10.3549,1293,2864.65
26149,-2.0147,0.7913,11.8118,1288,2864.65
26154,-3.5614,-1.0008,12.0895,1292,2864.65
26159,-1.1803,2.2709,9.0932,1287,2864.51
26164,1.9716,4.0282,10.2939,1301,2864.51
26169,-1.6735,1.4856,11.4718,1289,2864.51
