timestamp_ms,ax,ay,az,acs_adc,rpm
19289,-0.3903,1.063,12.6988,1250,3006.77
19294,-4.4017,-1.6077,12.8257,1245,3006.77
19299,-1.7968,2.3583,8.4467,1243,3006.77
19304,2.3152,3.9277,9.2656,1245,3006.77
19309,-0.4477,1.0295,12.7395,1247,3006.77
19314,-4.4125,-1.5562,12.7719,1247,3006.77
19319,-1.7382,2.3619,8.3785,1245,3006.92
19324,2.3511,3.9253,9.3529,1245,3006.92
19329,-0.4944,1.0008,12.7443,1246,3006.92
19334,-4.4712,-1.5347,12.7767,1247,3006.92
19339,-1.6221,2.3798,8.3713,1243,3007.07
19344,2.3954,3.9528,9.3338,1243,3007.07
19349,-0.5543,0.9601,12.7731,1245,3007.07
19354,-4.5298,-1.4736,12.7228,1252,3007.07
19359,-1.5646,2.4349,8.3785,1243,3006.92
19364,2.4229,3.954,9.3577,1245,3006.92
19369,-0.5878,0.9194,12.8892,1245,3006.92
19374,-4.5191,-1.385,12.6965,1237,3006.92
19379,-1.4485,2.4229,8.3222,1241,3006.61
19384,2.4337,3.9792,9.3817,1247,3006.61
19389,-0.6464,0.9373,12.8664,1244,3006.61
19394,-4.5753,-1.3683,12.6462,1247,3006.61
19399,-1.3611,2.4636,8.3091,1243,3006.77
19404,2.5043,3.9804,9.3757,1251,3006.77
19409,-0.6895,0.8799,12.9215,1242,3006.77
19414,-4.5909,-1.3001,12.5863,1249,3006.77
19419,-1.2845,2.4648,8.2791,1241,3007.07
19424,2.5091,3.9696,9.4188,1251,3007.07
19429,-0.7266,0.844,12.9083,1241,3007.07
19434,-4.6364,-1.251,12.5875,1247,3007.07
19439,-1.1887,2.5223,8.2648,1241,3007.22
19444,2.5426,3.9648,9.3793,1245,3007.22
19449,-0.7661,0.8116,12.9969,1239,3007.22
19454,-4.6268,-1.251,12.5049,1253,3007.22
19459,-1.0786,2.5343,8.2145,1239,3007.22
19464,2.5702,3.9433,9.414,1244,3007.22
19469,-0.7685,0.7626,13.0125,1243,3007.22
19474,-4.6448,-1.1983,12.4343,1254,3007.22
19479,-0.9864,2.5175,8.1774,1244,3007.67
19484,2.5355,3.9061,9.432,1245,3007.67
19489,-0.7338,0.6967,13.0173,1240,3007.67
19494,-4.7429,-1.1636,12.39,1252,3007.67
19499,-0.9098,2.5103,8.1463,1245,3008.12
19504,2.5833,3.8894,9.5062,1245,3008.12
19509,-0.7997,0.6177,13.0855,1238,3008.12
19514,-4.8004,-1.087,12.4139,1252,3008.12
19519,-0.7853,2.563,8.1702,1245,3008.12
19524,2.5965,3.9073,9.4846,1245,3008.12
19529,-0.899,0.5818,13.0556,1239,3008.12
19534,-4.8387,-1.0511,12.3732,1251,3008.12
19539,-0.7398,2.5498,8.163,1245,3008.12
19544,2.6264,3.8978,9.5732,1246,3008.12
19549,-0.9505,0.5471,13.1011,1241,3008.12
19554,-4.9057,-1.0008,12.3325,1252,3008.12
19559,-0.6728,2.545,8.1965,1247,3008.27
19564,2.6228,3.9768,9.5756,1245,3008.27
19569,-0.9756,0.4573,13.1825,1241,3008.27
19574,-4.962,-0.9397,12.2571,1251,3008.27
19579,-0.6249,2.5905,8.1965,1247,3008.12
19584,2.6097,3.9624,9.6187,1245,3008.12
19589,-1.0594,0.3998,13.2423,1241,3008.12
19594,-5.0135,-0.8775,12.2547,1246,3008.12
19599,-0.498,2.6169,8.1487,1251,3008.42
19604,2.6228,3.9277,9.6151,1245,3008.42
19609,-1.063,0.3915,13.21,1243,3008.42
19614,-5.0446,-0.7626,12.1985,1247,3008.42
19619,-0.407,2.6827,8.1762,1247,3007.97
19624,2.7054,3.948,9.6391,1246,3007.97
19629,-1.1432,0.3172,13.2375,1243,3007.97
19634,-5.053,-0.6871,12.1925,1245,3007.97
19639,-0.3029,2.7043,8.1451,1250,3007.97
19644,2.7545,3.9385,9.6115,1251,3007.97
19649,-1.0965,0.2933,13.2471,1245,3007.97
19654,-5.1032,-0.6117,12.1003,1245,3007.97
19659,-0.1784,2.7665,8.1487,1252,3007.82
19664,2.7533,3.899,9.7264,1250,3007.82
19669,-1.1277,0.2298,13.3716,1245,3007.82
19674,-5.0841,-0.6009,12.0404,1247,3007.82
19679,-0.1197,2.7282,8.09,1251,3007.67
19684,2.8036,3.8918,9.6654,1245,3007.67
19689,-1.1337,0.158,13.3465,1245,3007.67
19694,-5.0745,-0.565,12.0404,1245,3007.67
19699,-0.0048,2.7569,8.1547,1251,3007.52
19704,2.8252,3.8559,9.748,1253,3007.52
19709,-1.2043,0.1772,13.3321,1246,3007.52
19714,-5.0985,-0.5219,11.9495,1242,3007.52
19719,0.0551,2.7569,8.0577,1253,3007.67
19724,2.879,3.8607,9.7528,1247,3007.67
19729,-1.2139,0.0347,13.3704,1245,3007.67
19734,-5.1535,-0.4226,11.9291,1245,3007.67
19739,0.1341,2.7689,8.0625,1251,3007.82
19744,2.8826,3.8295,9.7492,1247,3007.82
19749,-1.2067,0.0383,13.3668,1245,3007.82
19754,-5.187,-0.3903,11.825,1245,3007.82
19759,0.1748,2.745,8.1283,1239,3008.27
19764,2.8706,3.7685,9.8354,1245,3008.27
19769,-1.2402,-0.0862,13.4841,1243,3008.27
19774,-5.2565,-0.3663,11.7424,1245,3008.27
19779,0.2586,2.7198,8.1487,1244,3008.42
19784,2.8575,3.7637,9.9036,1245,3008.42
19789,-1.2917,-0.0814,13.4782,1241,3008.42
19794,-5.2876,-0.2849,11.7292,1243,3008.42
19799,0.3065,2.7988,8.1391,1241,3008.88
19804,2.8587,3.79,9.9431,1247,3008.88
19809,-1.3288,-0.1736,13.4327,1241,3008.88
19814,-5.3439,-0.1724,11.6657,1245,3008.88
19819,0.4094,2.8527,8.1451,1247,3008.57
19824,2.9137,3.7769,9.9778,1245,3008.57
19829,-1.3886,-0.2203,13.5021,1243,3008.57
19834,-5.3283,-0.0718,11.6478,1244,3008.57
19839,0.4884,2.8527,8.1391,1247,3008.73
19844,2.8862,3.7397,10.0473,1246,3008.73
19849,-1.4593,-0.2897,13.5093,1245,3008.73
19854,-5.3774,0.0084,11.491,1245,3008.73
19859,0.5602,2.9161,8.1499,1243,3008.57
19864,2.8946,3.7242,10.0556,1245,3008.57
19869,-1.4688,-0.322,13.5823,1245,3008.57
19874,-5.3642,0.0994,11.5197,1245,3008.57
19879,0.6165,2.9497,8.1858,1245,3008.42
19884,2.9269,3.705,10.1047,1247,3008.42
19889,-1.5131,-0.3759,13.5392,1243,3008.42
19894,-5.3283,0.1317,11.4551,1245,3008.42
19899,0.6716,2.9497,8.1547,1245,3008.27
19904,2.9425,3.7326,10.167,1251,3008.27
19909,-1.4724,-0.3998,13.5572,1243,3008.27
19914,-5.3127,0.1987,11.4144,1243,3008.27
19919,0.7638,2.976,8.181,1245,3008.42
19924,3.0083,3.626,10.155,1245,3008.42
19929,-1.5119,-0.5255,13.5955,1247,3008.42
19934,-5.3271,0.1939,11.309,1243,3008.42
19939,0.8667,2.9688,8.1487,1245,3008.42
19944,3.0622,3.614,10.1742,1243,3008.42
19949,-1.5048,-0.5686,13.5955,1245,3008.42
19954,-5.3474,0.3232,11.2767,1247,3008.42
19959,0.905,3.0059,8.1989,1244,3008.57
19964,3.0167,3.5506,10.228,1242,3008.57
19969,-1.5311,-0.6644,13.629,1247,3008.57
19974,-5.357,0.3077,11.1821,1251,3008.57
19979,0.9481,2.9928,8.2289,1243,3008.27
19984,3.0167,3.5111,10.2951,1241,3008.27
19989,-1.6293,-0.7183,13.6062,1245,3008.27
19994,-5.3798,0.328,11.1462,1249,3008.27
19999,0.9996,3.0418,8.2133,1241,3008.42
20004,2.9568,3.4524,10.3298,1244,3008.42
20009,-1.6508,-0.7877,13.623,1247,3008.42
20014,-5.3882,0.4585,11.1115,1251,3008.42
20019,1.063,3.0358,8.2696,1243,3008.57
20024,2.9497,3.4776,10.4076,1241,3008.57
20029,-1.7801,-0.8571,13.5835,1245,3008.57
20034,-5.3893,0.6033,11.0277,1252,3008.57
20039,1.0762,3.0945,8.2373,1243,3008.42
20044,2.9054,3.4417,10.3813,1242,3008.42
20049,-1.8555,-0.9158,13.6733,1247,3008.42
20054,-5.3965,0.5902,10.9607,1254,3008.42
20059,1.1396,3.1173,8.2935,1243,3008.57
20064,2.8635,3.4022,10.4363,1245,3008.57
20069,-1.8783,-0.9541,13.6936,1247,3008.57
20074,-5.375,0.7278,10.896,1254,3008.57
20079,1.2294,3.1472,8.3175,1243,3008.73
20084,2.8216,3.4069,10.5512,1245,3008.73
20089,-1.974,-0.9828,13.708,1244,3008.73
20094,-5.3307,0.7829,10.8481,1253,3008.73
20099,1.2462,3.134,8.2839,1243,3009.18
20104,2.818,3.3184,10.5129,1250,3009.18
20109,-2.0016,-1.0223,13.6865,1239,3009.18
20114,-5.3032,0.8954,10.738,1251,3009.18
20119,1.3396,3.2142,8.2983,1244,3009.63
20124,2.8467,3.3279,10.6745,1245,3009.63
20129,-2.0147,-1.1181,13.6877,1241,3009.63
20134,-5.2517,0.8882,10.6745,1253,3009.63
20139,1.3731,3.2286,8.3258,1241,3009.78
20144,2.9006,3.2501,10.6147,1247,3009.78
20149,-2.0231,-1.154,13.6781,1239,3009.78
20154,-5.2265,0.9601,10.6147,1253,3009.78
20159,1.3934,3.2968,8.4001,1245,3009.93
20164,2.8491,3.1999,10.7069,1247,3009.93
20169,-2.0435,-1.2186,13.6924,1239,3009.93
20174,-5.2002,1.0463,10.4627,1255,3009.93
20179,1.4904,3.2645,8.3582,1245,3010.23
20184,2.8264,3.0957,10.7129,1247,3010.23
20189,-2.1344,-1.3396,13.7248,1245,3010.23
20194,-5.1595,1.0487,10.4651,1253,3010.23
20199,1.5754,3.2956,8.4072,1250,3009.78
20204,2.6193,3.9792,9.5517,1246,3009.78
20209,-2.1679,-1.3575,13.6194,1243,3009.78
20214,-5.1176,1.1157,10.3645,1243,3009.78
20219,1.5538,3.2789,8.4515,1250,3010.23
20224,2.7282,2.9365,10.9367,1243,3010.23
20229,-2.2757,-1.5071,13.6422,1242,3010.23
20234,-5.0601,1.1899,10.3022,1245,3010.23
20239,1.5981,3.3088,8.4851,1252,3009.93
20244,2.5774,2.9281,10.8816,1243,3009.93
20249,-2.3343,-1.5407,13.6673,1244,3009.93
20254,-5.0494,1.2594,10.2029,1243,3009.93
20259,1.6173,3.31,8.4707,1253,3009.78
20264,2.4876,2.8276,10.9642,1246,3009.78
20269,-2.4301,-1.5766,13.6745,1245,3009.78
20274,-5.0015,1.3036,10.1921,1239,3009.78
20279,1.6532,3.4093,8.5198,1251,3009.93
20284,2.4038,2.8252,11.0433,1251,3009.93
20289,-2.5319,-1.6316,13.6003,1243,3009.93
20294,-4.8866,1.3803,10.1335,1246,3009.93
20299,1.7059,3.3878,8.5461,1247,3009.63
20304,2.3008,2.7605,11.1582,1253,3009.63
20309,-2.5809,-1.6113,13.6721,1243,3009.63
20314,-4.8303,1.4497,10.0844,1249,3009.63
20319,1.7107,3.4093,8.5365,1247,3009.63
20324,2.2936,2.7629,11.1306,1253,3009.63
20329,-2.6779,-1.7047,13.6146,1241,3009.63
20334,-4.7752,1.4988,9.9934,1245,3009.03
20339,1.749,3.4716,8.5748,1243,3009.03
20344,2.1835,2.6671,11.2611,1253,3009.03
20349,-2.6995,-1.7178,13.6278,1240,3009.03
20354,-4.6627,1.5419,9.8701,1245,3009.78
20359,1.7645,3.4955,8.5964,1243,3009.78
20364,2.144,2.6205,11.2204,1252,3009.78
20369,-2.7916,-1.7166,13.6529,1243,3009.78
20374,-4.6567,1.585,9.8426,1245,3010.08
20379,1.8459,3.4967,8.6826,1242,3010.08
20384,2.0794,2.5762,11.3521,1252,3010.08
20389,-2.8551,-1.7274,13.5476,1241,3010.08
20394,-4.5262,1.6173,9.7288,1247,3009.93
20399,1.895,3.4955,8.6491,1240,3009.93
20404,1.974,2.4912,11.4072,1251,3009.93
20409,-2.897,-1.8148,13.55,1245,3009.93
20414,-4.4544,1.6352,9.6534,1245,3010.08
20419,1.8771,3.5279,8.6562,1245,3010.08
20424,1.9118,2.3703,11.4084,1255,3010.08
20429,-2.9676,-1.8447,13.4949,1250,3010.08
20434,-4.3419,1.7095,9.6211,1243,3010.39
20446,1.9573,3.541,8.6981,1243,3010.39
20450,-3.0347,-1.8842,13.556,1255,3010.39
20455,-4.2425,1.719,9.4499,1243,3010.39
20459,1.9656,3.5686,8.7352,1253,3010.39
20464,1.6664,2.2362,11.5628,1246,3010.39
20469,-3.0634,-1.913,13.5189,1256,3010.39
20474,-4.1539,1.7729,9.3972,1245,3010.54
20479,1.9585,3.565,8.7963,1253,3010.54
20484,1.5622,2.2039,11.6861,1245,3010.54
20489,-3.1843,-1.9309,13.459,1255,3010.54
20494,-4.0187,1.8088,9.3278,1245,3010.08
20499,2.0063,3.5913,8.7221,1251,3010.08
20504,1.3898,2.1368,11.6921,1249,3010.08
20509,-3.2836,-1.9477,13.447,1255,3010.08
20514,-3.9169,1.8651,9.3111,1246,3011.59
20519,1.9848,3.6224,8.8298,1252,3011.59
20524,1.3036,2.0937,11.8166,1249,3011.59
20529,-3.3459,-1.962,13.3728,1255,3011.59
20534,-3.8535,1.9429,9.1842,1249,3010.54
20539,2.0255,3.6404,8.8741,1255,3010.54
20544,1.1636,2.0279,11.8214,1246,3010.54
20549,-3.468,-1.9237,13.3812,1253,3010.54
20554,-3.7266,1.9309,9.1662,1252,3010.39
20559,2.0303,3.6931,8.8669,1251,3010.39
20564,0.9828,1.9872,11.9004,1259,3010.39
20569,-3.5183,-1.9213,13.368,1261,3010.39
20574,-3.6176,1.998,9.0285,1247,3010.69
20579,2.0614,3.6799,8.8992,1245,3010.69
20584,0.9206,1.9213,11.9399,1244,3010.69
20589,-3.6296,-1.8998,13.3166,1245,3010.69
20594,-3.4716,2.0578,9.0704,1246,3010.23
20599,2.0997,3.7649,8.9495,1247,3010.23
20604,0.8308,1.8675,12.0105,1246,3010.23
20609,-3.6595,-1.883,13.2878,1245,3010.23
20614,-3.3555,2.071,8.9711,1249,3010.84
20619,2.1141,3.7888,8.9938,1251,3010.84
20624,0.735,1.7717,12.0811,1251,3010.84
20629,-3.7074,-1.9333,13.2914,1246,3010.84
20634,-3.1783,2.0865,8.9675,1251,3010.99
20639,2.1907,3.8164,9.0034,1254,3010.99
20644,0.6201,1.6652,12.1266,1249,3010.99
20649,-3.7709,-1.8866,13.2148,1247,3010.99
20654,-3.0466,2.1332,8.825,1243,3011.14
20659,2.2218,3.8523,9.0333,1255,3011.14
20664,0.4908,1.5742,12.1949,1247,3011.14
20669,-3.8439,-1.8938,13.2316,1247,3011.14
20674,-2.909,2.156,8.7819,1245,3011.75
20679,2.2889,3.8583,9.0357,1255,3011.75
20684,0.3926,1.567,12.2104,1244,3011.75
20689,-3.9037,-1.8687,13.1609,1252,3011.75
20694,-2.7833,2.1775,8.7233,1245,3012.05
20699,2.2972,3.8499,9.0058,1255,3012.05
20704,0.2466,1.4353,12.3361,1246,3012.05
20709,-4.0127,-1.8747,13.1071,1251,3012.05
20714,-2.624,2.2039,8.6227,1243,3012.05
20719,2.3008,3.8499,9.0225,1255,3012.05
20724,0.1377,1.4724,12.378,1247,3012.05
20729,-4.1001,-1.8375,13.0711,1251,3012.05
20734,-2.5055,2.1967,8.594,1243,3011.9
20739,2.3068,3.8259,9.1363,1253,3011.9
20744,0.0419,1.3228,12.4618,1247,3011.9
20749,-4.1731,-1.804,13.0005,1246,3011.9
20754,-2.314,2.2446,8.4767,1242,3012.05
20759,2.326,3.8654,9.1135,1257,3012.05
20764,-0.1197,1.257,12.487,1251,3012.05
20769,-4.2473,-1.749,12.9478,1251,3012.05
20774,-2.247,2.2685,8.4791,1243,3012.35
20779,2.3104,3.899,9.1877,1253,3012.35
20784,-0.2227,1.2043,12.6354,1251,3012.35
20789,-4.3335,-1.6735,12.9143,1247,3012.35
20794,-2.0734,2.3104,8.4491,1244,3012.35
20799,2.308,3.8786,9.1686,1252,3012.35
20804,-0.3508,1.1396,12.6845,1247,3012.35
20809,-4.4173,-1.5814,12.8676,1247,3012.35
20814,-1.8974,2.3523,8.3641,1245,3012.05
20819,2.3762,3.9145,9.2153,1253,3012.05
20824,-0.4717,1.0678,12.7216,1251,3012.05
20829,-4.4807,-1.5562,12.7874,1247,3012.05
20834,-1.8172,2.3918,8.3617,1243,3011.29
20839,2.3966,3.9744,9.2847,1247,3011.29
20844,-0.4932,1.0295,12.7575,1253,3011.29
20849,-4.5298,-1.4844,12.7623,1251,3011.29
20854,-1.6089,2.4265,8.2839,1243,3010.84
20859,2.5019,3.9851,9.3685,1247,3010.84
20864,-0.6033,0.929,12.7862,1251,3010.84
20869,-4.5825,-1.4365,12.7479,1253,3010.84
20874,-1.5107,2.4229,8.3258,1243,3010.84
20879,2.5127,4.039,9.3709,1247,3010.84
20884,-0.6656,0.917,12.9239,1247,3010.84
20889,-4.6292,-1.3336,12.724,1253,3010.84
20894,-1.3575,2.4529,8.339,1245,3010.84
20899,2.5546,3.9947,9.3266,1253,3010.84
20904,-0.7338,0.7973,12.961,1249,3010.84
20909,-4.7226,-1.3024,12.6162,1255,3010.84
20914,-1.2677,2.4576,8.3306,1245,3010.99
20919,2.5702,3.9241,9.4367,1247,3010.99
20924,-0.7602,0.808,12.955,1246,3010.99
20929,-4.7321,-1.2809,12.5648,1253,3010.99
20934,-1.075,2.4983,8.2025,1243,3010.84
20939,2.6564,3.9492,9.426,1251,3010.84
20944,-0.7889,0.7075,12.9802,1251,3010.84
20949,-4.8123,-1.1696,12.5001,1255,3010.84
20954,-0.9457,2.5367,8.2241,1242,3012.2
20959,2.6935,3.9277,9.4846,1251,3012.2
20964,-0.8906,0.6153,13.0173,1245,3012.2
20969,-4.871,-1.0774,12.4355,1255,3012.2
20974,-0.8428,2.5115,8.1618,1250,3011.9
20979,2.7114,3.9421,9.5026,1247,3011.9
20984,-0.9182,0.5447,13.1047,1249,3011.9
20989,-4.9368,-1.0127,12.3792,1255,3011.9
20994,-0.6404,2.5618,8.1666,1245,3011.75
20999,2.7186,3.9205,9.4918,1253,3011.75
21004,-0.99,0.4848,13.1705,1244,3011.75
21009,-5.0206,-0.929,12.2751,1257,3011.75
21014,-0.5471,2.5845,8.1343,1250,3011.44
21019,2.7198,3.9037,9.6055,1251,3011.44
21024,-1.0523,0.4118,13.228,1245,3011.44
21029,-5.0242,-0.8631,12.2667,1252,3011.44
21034,-0.4477,2.624,8.1535,1251,3011.44
21039,2.7533,3.9169,9.6091,1247,3011.44
21044,-1.0989,0.316,13.2423,1247,3011.44
21049,-5.1104,-0.7649,12.214,1253,3011.44
21054,-0.2885,2.654,8.1355,1253,3011.14
21059,2.8096,3.9253,9.6618,1250,3011.14
21064,-1.233,0.2801,13.2962,1247,3011.14
21069,-5.1439,-0.7219,12.1206,1251,3011.14
21074,-0.2406,2.6707,8.1367,1252,3011.29
21079,2.7761,3.899,9.7169,1251,3011.29
21084,-1.2462,0.2059,13.3201,1253,3011.29
21089,-5.2038,-0.6428,12.0476,1251,3011.29
21094,-0.1101,2.7222,8.1092,1253,3011.44
21099,2.8563,3.9516,9.7839,1252,3011.44
21104,-1.2462,0.1413,13.3896,1251,3011.44
21109,-5.2373,-0.51,11.9758,1247,3011.44
21114,0.0323,2.7222,8.1151,1253,3011.44
21119,2.885,3.881,9.8114,1255,3011.44
21124,-1.3312,0.1018,13.4075,1251,3011.44
21129,-5.2768,-0.3867,11.9447,1253,3011.44
21134,0.1197,2.7988,8.102,1255,3011.59
21139,2.8766,3.8762,9.8773,1255,3011.59
21144,-1.3647,0.0072,13.3884,1251,3011.59
21149,-5.2876,-0.2981,11.8836,1251,3011.59
21154,0.237,2.7833,8.0912,1245,3011.44
21159,2.9856,3.8427,9.8964,1255,3011.44
21164,-1.3803,-0.0958,13.4734,1245,3011.44
21169,-5.2768,-0.2059,11.7867,1253,3011.44
21174,0.3663,2.8347,8.1199,1245,3011.14
21179,2.9868,3.8343,9.8881,1253,3011.14
21184,-1.4293,-0.1891,13.5021,1245,3011.14
21189,-5.3008,-0.1712,11.6681,1245,3011.14
21194,0.4345,2.8718,8.1547,1241,3010.99
21199,3.0203,3.7625,9.9359,1247,3010.99
21204,-1.4521,-0.2346,13.5632,1246,3010.99
21209,-5.3786,-0.0407,11.6322,1247,3010.99
21214,0.5327,2.903,8.084,1246,3009.93
21219,3.0179,3.7074,10.0413,1253,3009.93
21224,-1.4521,-0.2861,13.5392,1247,3009.93
21229,-5.3546,-0.0168,11.5377,1253,3009.93
21234,0.6105,2.909,8.1499,1247,3009.78
21239,3.0239,3.7445,10.0257,1253,3009.78
21244,-1.5143,-0.3639,13.5632,1245,3009.78
21249,-5.3678,0.0503,11.5341,1244,3009.78
21254,0.6895,2.879,8.175,1247,3010.39
21259,3.0813,3.6775,10.1227,1250,3010.39
21264,-1.5263,-0.4812,13.5105,1246,3010.39
21269,-5.3534,0.1329,11.4335,1257,3010.39
21274,0.7745,2.897,8.1618,1247,3010.54
21279,3.0251,3.6224,10.1778,1249,3010.54
21284,-1.6257,-0.5112,13.5727,1252,3010.54
21289,-5.4241,0.1891,11.3449,1247,3010.54
21294,0.8547,2.9317,8.1762,1247,3010.54
21299,3.0059,3.6416,10.173,1247,3010.54
21304,-1.6604,-0.6357,13.5524,1253,3010.54
21309,-5.4684,0.2777,11.2743,1251,3010.54
21314,0.9313,3.0083,8.2408,1243,3010.54
21319,3.0275,3.5602,10.2735,1249,3010.54
21324,-1.7705,-0.6668,13.5991,1253,3010.54
21329,-5.4708,0.4381,11.2001,1253,3010.54
21334,1.0331,3.0299,8.1882,1247,3010.84
21339,2.9951,3.5326,10.307,1247,3010.84
21344,-1.8447,-0.7757,13.6278,1251,3010.84
21349,-5.4277,0.5267,11.151,1255,3010.84
21354,1.0858,3.0394,8.2612,1244,3011.44
21359,3.0263,3.4907,10.3765,1245,3011.44
21364,-1.9393,-0.8511,13.611,1252,3011.44
21369,-5.4408,0.6416,11.0373,1251,3011.44
21374,1.1636,3.0921,8.2468,1245,3011.29
21379,3.0107,3.4297,10.398,1251,3011.29
21384,-1.9417,-0.929,13.6398,1247,3011.29
21389,-5.3977,0.6764,10.9834,1255,3011.29
21394,1.2007,3.128,8.2636,1247,3010.69
21399,2.9844,3.4093,10.477,1251,11976.05
21404,-1.9704,-0.9325,13.6948,1251,11976.05
21409,-5.3965,0.7817,10.8876,1252,11976.05
21414,1.2977,3.1089,8.3103,1243,4021.45
21419,2.9892,3.3806,10.5955,1251,4021.45
21424,-2.0351,-1.0367,13.7116,1247,4021.45
21429,-5.3187,0.8033,10.817,1256,4021.45
21434,1.3431,3.1496,8.2935,1243,3010.23
21439,2.9568,3.3124,10.6279,1251,3010.23
21444,-2.0877,-1.0654,13.6362,1245,3010.23
21449,-5.2457,0.923,10.756,1255,3010.23
21454,1.4413,3.2142,8.2756,1245,3010.23
21459,2.9042,3.2777,10.6877,1251,3010.23
21464,-2.1189,-1.1576,13.629,1245,3010.23
21469,-5.2457,0.9194,10.6614,1257,3010.23
21474,1.4688,3.1771,8.3498,1243,3009.63
21479,2.9521,3.1771,10.6877,1253,3009.63
21484,-2.1632,-1.2198,13.5967,1241,3009.63
21489,-5.2529,0.9816,10.5824,1257,3009.63
21494,1.4952,3.2525,8.3558,1245,3009.63
21499,2.8491,3.1496,10.8002,1253,3009.63
21504,-2.2158,-1.2797,13.6673,1247,3009.63
21509,-5.1643,1.0523,10.4423,1245,3009.63
21514,1.5622,3.1927,8.3881,1244,3009.93
21519,2.8108,3.0502,10.8517,1253,3009.93
21524,-2.314,-1.3671,13.6661,1258,3009.93
21529,-5.1679,1.0546,10.4423,1255,3009.93
21534,1.6532,3.2621,8.4216,1247,3010.08
21539,2.7138,3.0682,10.8804,1255,3010.08
21544,-2.3978,-1.4521,13.6003,1251,3010.08
21549,-5.1463,1.1253,10.2855,1247,3010.08
21554,1.664,3.2573,8.4443,1251,3010.54
21559,2.6432,2.9676,10.9906,1249,3010.54
21564,-2.4505,-1.4916,13.6685,1251,3010.54
21569,-5.0996,1.2641,10.2927,1245,3010.54
21574,1.7047,3.3255,8.4575,1249,3010.54
21579,2.6049,2.9521,11.0169,1245,3010.54
21584,-2.5259,-1.5538,13.6218,1247,3010.54
21589,-5.0218,1.342,10.1837,1246,3010.54
21594,1.6676,3.3531,8.5234,1255,3010.39
21599,2.4576,2.8575,11.0816,1253,3010.39
21604,-2.6109,-1.6161,13.6469,1246,3010.39
21609,-4.9428,1.3611,10.1035,1247,3010.39
21614,1.7382,3.3459,8.4803,1245,3010.39
21619,2.4253,2.8132,11.1306,1251,3010.39
21624,-2.6923,-1.5969,13.5979,1245,3010.39
21629,-4.8662,1.4449,10.0784,1253,3010.39
21634,1.737,3.4117,8.57,1251,3010.08
21639,2.3272,2.7318,11.2061,1255,3010.08
21644,-2.7174,-1.6664,13.5644,1251,3010.08
21650,-4.7788,1.5131,9.9695,1252,3009.93
21654,1.8124,3.4716,8.5736,1243,3009.93
21659,2.2733,2.6743,11.2934,1254,3009.93
21664,-2.8072,-1.6999,13.6146,1245,3009.93
21670,-4.6998,1.5742,9.9072,1247,3010.69
21674,1.8962,3.5015,8.6131,1245,3010.69
21679,2.1799,2.5833,11.3054,1255,3010.69
21684,-2.8551,-1.7119,13.5691,1247,3010.69
21689,-4.6064,1.6197,9.8019,1245,3010.39
21694,1.9106,3.4776,8.6802,1243,3010.39
21699,2.0937,2.5438,11.3808,1255,3010.39
21704,-2.9102,-1.743,13.5524,1245,3010.39
21709,-4.5095,1.5945,9.7552,1251,3010.39
21714,1.9393,3.5398,8.661,1243,3010.39
21719,2.0207,2.4828,11.4287,1260,3010.39
21724,-3.0047,-1.7945,13.5332,1251,3010.39
21729,-4.4245,1.6987,9.6462,1251,3011.29
21734,1.9992,3.5135,8.7412,1245,3011.29
21739,1.9106,2.4014,11.5317,1259,3011.29
21744,-3.0873,-1.8495,13.5177,1254,3011.29
21749,-4.3562,1.7502,9.6055,1245,3011.29
21754,1.9836,3.5314,8.6407,1247,3011.29
21759,1.8268,2.3331,11.576,1256,3011.29
21764,-3.1472,-1.8998,13.4267,1255,3011.29
21769,-4.2054,1.7538,9.4751,1249,3011.29
21774,2.0423,3.5745,8.7436,1251,3011.29
21779,1.67,2.2733,11.625,1255,3011.29
21784,-3.2238,-1.9273,13.453,1252,3011.29
21789,-4.0953,1.8016,9.3841,1241,3011.14
21794,2.0159,3.5374,8.7221,1253,3011.14
21799,1.47,2.1452,11.6933,1251,3011.14
21804,-3.2573,-1.9644,13.3884,1255,3011.14
21810,-3.9935,1.8268,9.2979,1246,3010.23
21814,2.0375,3.5997,8.8214,1251,3010.23
21819,1.3755,2.1332,11.7783,1251,3010.23
21824,-3.383,-1.9656,13.3944,1259,3010.23
21829,-3.893,1.8723,9.2572,1245,3010.39
21834,2.0411,3.626,8.8346,1253,3010.39
21839,1.2091,2.0554,11.8094,1251,3010.39
21844,-3.4417,-1.9297,13.3561,1257,3010.39
21849,-3.7733,1.9764,9.2512,1245,3009.63
21854,2.0351,3.7014,8.8921,1253,3009.63
21859,1.1013,2.0375,11.9399,1231,3009.63
21864,-3.4776,-1.9237,13.3082,1257,3009.63
21869,-3.6883,2.0027,9.098,1251,3009.63
21874,2.0937,3.6667,8.8957,1251,3009.63
21879,0.9996,1.9525,11.9626,1249,3009.63
21884,-3.5973,-1.9525,13.3668,1257,3009.63
21889,-3.5901,2.0423,9.0824,1245,3010.99
21894,2.0913,3.7493,8.9399,1253,3010.99
21899,0.8871,1.8794,11.965,1251,3010.99
21904,-3.6212,-1.8591,13.307,1256,3010.99
21909,-3.5015,2.0734,9.0644,1247,3010.69
21914,2.1332,3.796,8.9627,1246,3010.69
21919,0.8499,1.8232,12.0392,1250,3010.69
21924,-3.735,-1.8759,13.3046,1252,3010.69
21930,-3.3064,2.0901,8.9687,1251,3010.99
21934,2.1967,3.8487,8.9974,1250,3010.99
21939,0.7254,1.7633,12.1099,1251,3010.99
21944,-3.7529,-1.8579,13.1921,1251,3010.99
21949,-3.1484,2.0949,8.9435,1251,3011.44
21954,2.2494,3.7804,8.9783,1247,3011.44
21959,0.6177,1.6903,12.214,1251,3011.44
21964,-3.8343,-1.8591,13.1645,1251,3011.44
21969,-3.0275,2.1308,8.8083,1251,3011.44
21974,2.2805,3.8499,9.0046,1247,3011.44
21979,0.492,1.6592,12.2368,1247,3011.44
21984,-3.9097,-1.8818,13.1011,1247,3011.44
21989,-2.8814,2.1608,8.764,1257,3011.44
21994,2.32,3.7852,9.0752,1247,3011.44
21999,0.3579,1.4856,12.3134,1247,3011.44
22004,-3.9097,-1.8615,13.1621,1251,3011.44
22009,-2.7162,2.1572,8.6802,1245,3010.99
22014,2.2889,3.8199,9.0621,1243,3010.99
22019,0.2418,1.4916,12.3254,1246,3010.99
22024,-4.0282,-1.834,13.0807,1251,3010.99
22029,-2.5941,2.1727,8.7161,1246,3010.69
22034,2.32,3.7996,9.0884,1253,3010.69
22039,0.0766,1.3862,12.4678,1251,3010.69
22044,-4.1084,-1.8028,13.0101,1253,3010.69
22049,-2.4541,2.2326,8.5964,1247,3010.23
22054,2.2889,3.8571,9.0956,1253,3010.23
22059,-0.0251,1.3659,12.5037,1243,3010.23
22064,-4.2174,-1.7406,12.9933,1251,3010.23
22069,-2.3786,2.2541,8.5916,1243,3010.08
22074,2.2853,3.8499,9.1399,1253,3010.08
22079,-0.1448,1.2737,12.5935,1251,3010.08
22084,-4.2641,-1.7274,12.9347,1250,3010.08
22089,-2.2218,2.2601,8.5114,1243,3009.33
22094,2.3403,3.8858,9.2213,1253,3009.33
22099,-0.237,1.2641,12.621,1247,3009.33
22104,-4.3443,-1.6197,12.8772,1251,3009.33
22109,-2.138,2.2865,8.5281,1242,3009.48
22114,2.2948,3.9624,9.2632,1250,3009.48
22119,-0.3148,1.2055,12.5887,1250,3009.48
22124,-4.3634,-1.5957,12.8605,1253,3009.48
22129,-2.0135,2.3236,8.4815,1245,3009.93
22134,2.4002,3.9516,9.268,1251,3009.93
22139,-0.3519,1.1504,12.7084,1250,3009.93
22144,-4.4616,-1.5263,12.7922,1251,3009.93
22149,-1.8926,2.3595,8.4168,1241,3010.23
22154,2.4241,3.9289,9.2189,1251,3010.23
22159,-0.4477,1.0738,12.6809,1251,3010.23
22164,-4.4724,-1.5083,12.7515,1251,3010.23
22169,-1.7538,2.3822,8.4072,1245,3010.54
22174,2.4696,3.9433,9.2847,1251,3010.54
22179,-0.492,1.0259,12.7719,1249,3010.54
22184,-4.5203,-1.4736,12.7755,1246,3010.54
22189,-1.5945,2.4002,8.3689,1241,3010.39
22194,2.5151,3.9863,9.3206,1247,3010.39
22199,-0.5531,0.9601,12.8138,1255,3010.39
22204,-4.555,-1.409,12.6976,1247,3010.39
22209,-1.4688,2.381,8.3282,1245,3010.39
22214,2.5809,3.9552,9.3805,1243,3010.39
22219,-0.5997,0.9098,12.8198,1249,3010.39
22224,-4.5669,-1.342,12.6965,1250,3010.39
22229,-1.3479,2.4146,8.3222,1243,3010.69
22234,2.5929,3.9373,9.3302,1239,3010.69
22239,-0.7015,0.8296,12.8964,1253,3010.69
22244,-4.6807,-1.3264,12.5205,1252,3010.69
22249,-1.239,2.4265,8.2408,1244,3010.39
22254,2.6145,3.9564,9.3913,1243,3010.39
22259,-0.7661,0.7949,13.0197,1255,3010.39
22264,-4.7453,-1.2222,12.5277,1253,3010.39
22269,-1.0989,2.5055,8.2588,1251,3010.08
22274,2.5762,3.9409,9.4248,1245,3010.08
22279,-0.8284,0.7207,12.9431,1251,3010.08
22284,-4.8495,-1.1995,12.4498,1248,3010.08
22289,-1.0116,2.5295,8.2588,1244,3010.08
22294,2.6504,3.9385,9.4858,1250,3010.08
22299,-0.8882,0.644,13.046,1251,3010.08
22304,-4.8985,-1.1025,12.4367,1255,3010.08
22309,-0.8811,2.5534,8.2157,1243,3009.93
22314,2.6408,3.9576,9.4846,1255,3009.93
22319,-0.9206,0.5926,13.0185,1251,3009.93
22324,-4.9608,-1.0092,12.4115,1255,3009.93
22329,-0.7745,2.5678,8.2061,1244,3010.08
22334,2.6743,3.9397,9.505,1251,3010.08
22339,-0.9744,0.4836,13.1645,1249,3010.08
22344,-5.0135,-0.9996,12.3254,1255,3010.08
22349,-0.6297,2.6133,8.1822,1241,3009.93
22354,2.6624,3.9612,9.5589,1245,3009.93
22359,-1.1001,0.4812,13.1777,1260,3009.93
22364,-5.0374,-0.9481,12.2894,1256,3009.93
22369,-0.5782,2.63,8.1319,1243,3010.08
22374,2.6959,3.9002,9.5792,1245,3010.08
22379,-1.1181,0.4166,13.1897,1245,3010.08
22384,-5.0841,-0.8368,12.2332,1255,3010.08
22389,-0.4561,2.624,8.242,1242,3010.23
22394,2.7605,3.9708,9.6726,1251,3010.23
22399,-1.1839,0.3591,13.2304,1247,3010.23
22404,-5.0996,-0.7386,12.2188,1253,3010.23
22409,-0.3316,2.6324,8.1319,1250,3010.39
22414,2.8335,3.9456,9.6283,1247,3010.39
22419,-1.2163,0.3017,13.2699,1245,3010.39
22424,-5.1415,-0.6548,12.1649,1252,3010.39
22429,-0.2298,2.6875,8.1678,1246,3010.23
22434,2.8252,3.8858,9.6893,1245,3010.23
22439,-1.2282,0.2394,13.3644,1250,3010.23
22444,-5.1739,-0.565,11.9997,1253,3010.23
22449,-0.1101,2.6875,8.1403,1252,3009.93
22454,2.9305,3.8666,9.742,1247,3009.93
22459,-1.2665,0.1832,13.3968,1245,3009.93
22464,-5.217,-0.504,11.9878,1251,3009.93
22469,0.0263,2.727,8.175,1251,3009.93
22474,2.9377,3.893,9.7384,1247,3009.93
22479,-1.2582,0.1053,13.3584,1245,3009.93
22484,-5.2002,-0.4513,11.9267,1251,3009.93
22489,0.1185,2.7629,8.0996,1247,3010.08
22494,2.9772,3.8702,9.8605,1247,3010.08
22499,-1.3431,0.0371,13.3608,1248,3010.08
22504,-5.2445,-0.3926,11.825,1251,3010.08
22509,0.2023,2.7473,8.1535,1255,3010.23
22514,2.9736,3.8559,9.8557,1247,3010.23
22519,-1.3156,-0.0311,13.4111,1251,3010.23
22524,-5.2613,-0.3364,11.7651,1251,3010.23
22529,0.3148,2.8012,8.1379,1253,3010.69
22534,2.9664,3.7972,9.8869,1251,3010.69
22539,-1.397,-0.146,13.4794,1250,3010.69
22544,-5.3331,-0.2646,11.74,1254,3010.69
22549,0.4274,2.812,8.1618,1253,3010.69
22554,2.9784,3.7757,9.8677,1251,3010.69
22559,-1.4808,-0.1712,13.5189,1252,3010.69
22564,-5.3642,-0.1939,11.6622,1253,3010.69
22569,0.4621,2.8814,8.1415,1253,3010.84
22574,2.9832,3.7757,9.9503,1244,3010.84
22579,-1.4724,-0.2622,13.526,1251,3010.84
22584,-5.4025,-0.0515,11.6119,1251,3010.84
22589,0.559,2.8407,8.1582,1247,3011.14
22594,2.9987,3.7769,10.0185,1251,3011.14
22599,-1.573,-0.3412,13.4758,1245,3011.14
22604,-5.4061,0.0072,11.5568,1253,3011.14
22609,0.6943,2.9054,8.1786,1244,3011.14
22614,3.0287,3.6978,10.0628,1247,3011.14
22619,-1.6029,-0.431,13.5332,1246,3011.14
22624,-5.375,0.1508,11.4934,1251,3011.14
22629,0.7542,2.9592,8.1774,1245,3011.59
22634,3.055,3.6859,10.1287,1247,3011.59
22639,-1.6759,-0.492,13.5572,1244,3011.59
22644,-5.4588,0.2059,11.3808,1253,3011.59
22649,0.8667,2.9736,8.1834,1245,3011.44
22654,3.061,3.6129,10.1766,1244,3011.44
22659,-1.725,-0.583,13.6158,1244,3011.44
22664,-5.4001,0.3244,11.2516,1251,3011.44
22669,0.9325,3.0203,8.2432,1245,3011.59
22674,3.1232,3.6057,10.2173,1246,3011.59
22679,-1.7214,-0.656,13.5967,1241,3011.59
22684,-5.4121,0.3915,11.2049,1252,3011.59
22689,1.0211,3.0622,8.1774,1244,3011.29
22694,3.1184,3.5338,10.2831,1246,3011.29
22699,-1.8232,-0.7087,13.6386,1252,3011.29
22704,-5.4289,0.4788,11.2228,1247,3011.29
22709,1.1648,3.0706,8.2313,1247,3011.14
22714,3.1184,3.5482,10.3609,1247,3011.14
22719,-1.834,-0.7709,13.6685,1247,3011.14
22724,-5.3858,0.5614,11.0588,1247,3011.14
22729,1.1516,3.0526,8.2468,1245,3011.14
22734,3.073,3.4836,10.3298,1243,3011.14
22739,-1.9082,-0.8535,13.6458,1247,3011.14
22744,-5.4277,0.6381,10.9607,1252,3011.14
22749,1.2474,3.1352,8.2708,1246,3011.29
22754,3.0574,3.3998,10.4579,1245,3011.29
22759,-1.9776,-0.929,13.6529,1253,3011.29
22764,-5.4073,0.6404,10.896,1256,3011.29
22769,1.3324,3.0909,8.2947,1243,3011.29
22774,3.043,3.3112,10.5429,1245,3011.29
22779,-1.9968,-1.008,13.6481,1252,3011.29
22784,-5.3474,0.7673,10.8314,1254,3011.29
22789,1.3587,3.1208,8.2744,1244,3011.29
22794,3.0119,3.3555,10.556,1241,3011.29
22799,-2.1272,-1.0546,13.6721,1251,3011.29
22804,-5.3271,0.8452,10.6781,1237,3011.29
22809,1.4533,3.1352,8.3258,1241,3011.14
22814,2.9221,3.2202,10.6877,1246,3011.14
22819,-2.1596,-1.2043,13.5967,1251,3011.14
22824,-5.3032,0.9685,10.6291,1254,3011.14
22829,1.4988,3.2058,8.3582,1247,3011.29
22834,2.8635,3.2154,10.7667,1247,3011.29
22839,-2.2266,-1.2629,13.629,1243,3011.29
22844,-5.2768,1.0415,10.495,1257,3011.29
22849,1.5299,3.2226,8.3869,1245,3011.75
22854,2.8431,3.1029,10.7703,1245,3011.75
22859,-2.3559,-1.3168,13.6469,1245,3011.75
22864,-5.2469,1.1325,10.4555,1256,3011.75
22869,1.6029,3.2777,8.4659,1243,3011.9
22874,2.7485,3.0406,10.8278,1250,3011.9
22879,-2.3966,-1.403,13.6434,1245,3011.9
22884,-5.1439,1.1504,10.398,1258,3011.9
22889,1.6221,3.3315,8.4563,1245,3012.05
22894,2.7043,3.0119,10.9475,1247,3012.05
22899,-2.49,-1.4653,13.6218,1245,3012.05
22904,-5.1116,1.2378,10.3214,1256,3012.05
22909,1.7011,3.3172,8.4731,1247,3012.05
22914,2.6312,2.9473,10.9571,1252,3012.05
22919,-2.5738,-1.5323,13.6242,1251,3012.05
22924,-5.0015,1.3252,10.2304,1257,3012.05
22929,1.7274,3.3303,8.5497,1257,3012.2
22934,2.5295,2.8431,11.0385,1251,3012.2
22939,-2.624,-1.5407,13.6266,1251,3012.2
22944,-4.9704,1.3934,10.0545,1251,3012.2
22949,1.7681,3.371,8.57,1247,3012.5
22954,2.5367,2.7845,11.0899,1245,3012.5
22959,-2.715,-1.5933,13.6027,1252,3012.5
22964,-4.8878,1.4664,10.0377,1251,3012.5
22969,1.8387,3.4572,8.5712,1253,3012.2
22974,2.3523,2.6755,11.1426,1249,3012.2
22979,-2.7246,-1.6388,13.5787,1247,3012.2
22984,-4.7716,1.5502,9.9551,1251,3012.2
22989,1.8615,3.4488,8.5856,1251,3012.35
22994,2.32,2.6803,11.3054,1251,3012.35
22999,-2.8335,-1.6927,13.6266,1246,3012.35
23004,-4.6962,1.5957,9.9,1252,3012.35
23009,1.913,3.4895,8.5581,1241,3012.2
23014,2.1907,2.5786,11.3306,1251,3012.2
23019,-2.897,-1.7957,13.4949,1247,3012.2
23024,-4.5226,1.6676,9.7288,1247,3012.2
23029,1.98,3.5279,8.6395,1244,3012.35
23034,2.0554,2.5031,11.3976,1255,3012.35
23039,-2.9892,-1.7837,13.538,1246,3012.35
23044,-4.4532,1.7011,9.6606,1253,3012.5
23049,1.9884,3.535,8.6718,1247,3012.5
23054,1.9345,2.3679,11.4323,1255,3012.5
23059,-3.055,-1.8579,13.471,1245,3012.5
23064,-4.3431,1.737,9.5062,1252,3011.9
23069,2.0446,3.571,8.7592,1245,3011.9
23074,1.7873,2.3499,11.5628,1258,3011.9
23079,-3.1532,-1.8723,13.4638,1243,3011.9
23084,-4.203,1.7992,9.517,1252,3011.44
23089,2.0087,3.5889,8.7269,1243,3011.44
23094,1.6269,2.2422,11.5831,1255,3011.44
23099,-3.2214,-1.8747,13.4865,1249,3011.44
23104,-4.1216,1.8435,9.4511,1251,3012.65
23109,2.0446,3.571,8.819,1245,3012.65
23114,1.5227,2.1955,11.71,1255,3012.65
23119,-3.31,-1.9225,13.4279,1251,3012.65
23124,-3.972,1.8854,9.3051,1259,3011.75
23129,2.0578,3.6176,8.8909,1247,3011.75
23134,1.3982,2.0542,11.6981,1253,3011.75
23139,-3.3746,-1.913,13.3848,1253,3011.75
23144,-3.8499,1.8926,9.2715,1247,3011.29
23149,2.0578,3.6224,8.8693,1251,3011.29
23154,1.2426,2.0231,11.8226,1251,3011.29
23159,-3.4752,-1.9034,13.3285,1251,3011.29
23164,-3.7385,1.9525,9.1518,1252,3010.84
23169,2.1081,3.6524,8.928,1251,3010.84
23174,1.1061,1.8926,11.8381,1245,3010.84
23179,-3.5578,-1.8962,13.3189,1255,3010.84
23184,-3.62,2.0159,9.1482,1247,3010.69
23189,2.1284,3.7445,8.9507,1250,3010.69
23194,0.9936,1.919,11.9866,1247,3010.69
23199,-3.6093,-1.8974,13.2268,1255,3010.69
23204,-3.4895,2.0435,9.0465,1250,3010.99
23209,2.1787,3.7517,8.9735,1250,3010.99
23214,0.9062,1.8328,12.0093,1245,3010.99
23219,-3.6763,-1.901,13.2531,1255,3010.99
23224,-3.3555,2.0842,8.9208,1251,3011.59
23229,2.2075,3.8092,9.0321,1251,3011.59
23234,0.7769,1.7406,12.0069,1243,3011.59
23239,-3.7074,-1.8783,13.2256,1256,3011.59
23244,-3.2717,2.1081,8.9328,1251,3011.29
23249,2.2697,3.8523,9.0489,1251,3011.29
23254,0.6728,1.6688,12.0692,1245,3011.29
23259,-3.8164,-1.8902,13.1956,1255,3011.29
23264,-3.0502,2.1117,8.8693,1247,3010.84
23269,2.3212,3.8319,9.0716,1251,3010.84
23274,0.4908,1.6364,12.141,1249,3010.84
23279,-3.8511,-1.9046,13.0855,1255,3010.84
23284,-2.9317,2.1332,8.8358,1251,3010.69
23289,2.3224,3.7709,9.0513,1242,3010.69
23294,0.3879,1.5502,12.2284,1246,3010.69
23299,-3.8906,-1.8675,13.0771,1251,3010.69
23304,-2.7797,2.1596,8.752,1251,3010.23
23309,2.3379,3.814,9.1363,1247,3010.23
23314,0.3136,1.5083,12.2787,1243,3010.23
23319,-3.9816,-1.8543,13.058,1251,3010.23
23324,-2.6492,2.2027,8.6886,1243,3010.39
23329,2.2829,3.8068,9.1016,1245,3010.39
23334,0.1496,1.3958,12.3218,1247,3010.39
23339,-4.0606,-1.804,12.9861,1244,3010.39
23344,-2.5654,2.2087,8.6694,1251,3010.39
23349,2.2889,3.8355,9.1315,1247,3010.39
23354,0.0982,1.3467,12.3684,1245,3010.39
23359,-4.1312,-1.7957,13.0173,1247,3010.39
23364,-2.4529,2.2338,8.5832,1250,3010.69
23369,2.3427,3.8283,9.165,1247,3010.69
23374,-0.0287,1.2594,12.4906,1243,3010.69
23379,-4.2413,-1.7538,12.8772,1253,3010.69
23384,-2.3032,2.2553,8.5545,1247,3011.14
23389,2.332,3.8583,9.1794,1245,3011.14
23394,-0.1496,1.2534,12.5109,1245,3011.14
23399,-4.3024,-1.7059,12.9347,1251,3011.14
23404,-2.2063,2.3284,8.5317,1243,3011.29
23409,2.3116,3.8654,9.2548,1247,3011.29
23414,-0.2346,1.1624,12.5887,1241,3011.29
23419,-4.3634,-1.6735,12.8389,1247,3011.29
23424,-2.0375,2.3547,8.509,1253,3011.14
23429,2.4122,3.9409,9.3122,1251,3011.14
23434,-0.346,1.1121,12.6809,1242,3011.14
23439,-4.464,-1.5431,12.8676,1251,3011.14
23444,-1.9082,2.3236,8.4587,1245,3010.69
23449,2.4217,3.978,9.3242,1241,3010.69
23454,-0.4645,1.0403,12.6558,1243,3010.69
23459,-4.4664,-1.5,12.7862,1247,3010.69
23464,-1.8148,2.3786,8.3977,1245,3010.69
23469,2.4876,3.9911,9.3422,1251,3010.69
23474,-0.5052,1.0247,12.718,1247,3010.69
23479,-4.5286,-1.4437,12.7467,1251,3010.69
23484,-1.6173,2.411,8.3462,1242,3010.54
23489,2.49,3.9552,9.3015,1250,3010.54
23494,-0.6153,0.9373,12.803,1245,3010.54
23499,-4.5454,-1.4018,12.6354,1250,3010.54
23504,-1.482,2.4541,8.339,1245,3010.84
23509,2.5833,3.9863,9.3901,1243,3010.84
23514,-0.6249,0.9242,12.8545,1246,3010.84
23519,-4.6471,-1.3539,12.5468,1252,3010.84
23524,-1.3491,2.4948,8.3246,1242,3011.14
23529,2.63,4.0127,9.3972,1247,3011.14
23534,-0.7063,0.7961,12.8461,1247,3011.14
23539,-4.6543,-1.342,12.5791,1245,3011.14
23544,-1.2186,2.4433,8.2756,1243,3010.99
23549,2.6025,3.9624,9.5098,1245,3010.99
23554,-0.747,0.7362,12.894,1246,3010.99
23559,-4.7704,-1.2653,12.4953,1247,3010.99
23564,-1.0439,2.5223,8.2492,1245,3011.29
23569,2.6384,3.9564,9.4954,1247,3011.29
23574,-0.8128,0.68,12.9562,1250,3011.29
23579,-4.8171,-1.1779,12.4211,1244,3011.29
23584,-0.9553,2.5534,8.2564,1243,3010.84
23589,2.6264,3.948,9.4355,1243,3010.84
23594,-0.8811,0.5997,13.0304,1251,3010.84
23599,-4.8842,-1.1313,12.3828,1252,3010.84
23604,-0.8176,2.5223,8.2061,1247,3011.14
23609,2.6552,3.9385,9.5325,1237,3011.14
23614,-0.9337,0.5435,13.058,1251,3011.14
23619,-4.9692,-1.0786,12.3074,1253,3011.14
23624,-0.7374,2.563,8.2169,1247,3011.59
23629,2.7054,3.9433,9.5756,1245,3011.59
23634,-0.9984,0.4429,13.0783,1245,3011.59
23639,-5.0338,-0.9673,12.3098,1253,3011.59
23644,-0.6045,2.6037,8.1906,1245,3011.9
23649,2.7366,3.9325,9.6486,1251,3011.9
23654,-1.1001,0.3938,13.1717,1251,3011.9
23659,-5.0554,-0.8894,12.2451,1256,3011.9
23664,-0.4788,2.6133,8.2013,1241,3012.5
23669,2.7138,3.9325,9.6091,1247,3012.5
23674,-1.1217,0.3543,13.2004,1243,3012.5
23679,-5.1475,-0.7661,12.1925,1255,3012.5
23684,-0.2909,2.7114,8.1774,1245,3012.5
23689,2.8204,3.9516,9.6726,1245,3012.5
23694,-1.2246,0.3029,13.2914,1243,3012.5
23699,-5.1811,-0.6596,12.1123,1255,3012.5
23704,-0.1544,2.7282,8.1499,1243,3012.05
23709,2.8443,3.8642,9.6845,1246,3012.05
23714,-1.2785,0.2251,13.2914,1243,3012.05
23719,-5.217,-0.5399,11.9973,1253,3012.05
23724,-0.0419,2.7641,8.1798,1251,3013.11
23729,2.8946,3.9097,9.8246,1247,3013.11
23734,-1.2737,0.1628,13.3489,1243,3013.11
23739,-5.2325,-0.4645,11.898,1255,3013.11
23744,0.1233,2.7282,8.1355,1246,3012.65
23749,2.97,3.8978,9.8713,1245,3012.65
23754,-1.3168,0.0419,13.3644,1243,3012.65
23760,-5.2277,-0.3926,11.8908,1255,3012.65
23764,0.2143,2.824,8.1259,1251,3012.65
23769,2.9784,3.8571,9.8114,1244,3012.65
23774,-1.3922,-0.0204,13.3991,1243,3012.65
23780,-5.3056,-0.3029,11.746,1251,3012.65
23784,0.322,2.8311,8.1056,1245,3012.2
23789,3.0598,3.7936,9.9276,1245,3012.2
23794,-1.3815,-0.1293,13.4602,1247,3012.2
23800,-5.2852,-0.2502,11.6933,1253,3012.2
23804,0.4262,2.8575,8.157,1251,3011.9
23809,3.0406,3.7912,9.9395,1245,3011.9
23814,-1.3898,-0.2047,13.5045,1251,3011.9
23820,-5.3427,-0.1891,11.5748,1251,3011.9
23824,0.5255,2.8299,8.1175,1251,3010.99
23829,3.0873,3.7314,10.0197,1251,3010.99
23834,-1.4856,-0.2693,13.4877,1245,3010.99
23840,-5.3642,-0.0634,11.5377,1252,3010.99
23844,0.6225,2.8934,8.1965,1243,3010.54
23849,3.0323,3.7218,10.0533,1251,3010.54
23854,-1.5407,-0.3962,13.4255,1245,3010.54
23860,-5.3822,-0.0084,11.5077,1253,3010.54
23864,0.7135,2.8898,8.1642,1253,3010.54
23869,3.0227,3.6919,10.1299,1252,3010.54
23874,-1.6041,-0.4609,13.4901,1249,3010.54
23880,-5.4767,0.1149,11.4024,1255,3010.54
23884,0.7913,2.891,8.2157,1255,3011.29
23889,3.0191,3.6356,10.149,1247,3011.29
23894,-1.6831,-0.5243,13.5751,1251,3011.29
23900,-5.466,0.2167,11.3126,1253,3011.29
23904,0.8511,2.9856,8.2684,1245,3011.75
23909,2.982,3.6045,10.2137,1243,3011.75
23914,-1.7166,-0.5986,13.5727,1243,3011.75
23920,-5.5031,0.2993,11.23,1251,3011.75
23924,0.9601,3.0167,8.2313,1244,3012.05
23929,3.0622,3.6236,10.2304,1245,3012.05
23934,-1.8184,-0.6572,13.5727,1245,3012.05
23940,-5.4648,0.4705,11.2276,1251,3012.05
23944,1.0511,3.0358,8.2624,1245,3011.29
23949,3.0323,3.5494,10.2747,1243,3011.29
23954,-1.8519,-0.7207,13.6278,1243,3011.29
23960,-5.3678,0.5136,11.0971,1253,3011.29
23964,1.1121,3.0801,8.2492,1251,3011.14
23969,3.0502,3.5015,10.4112,1245,3011.14
23974,-1.8783,-0.838,13.6422,1251,3011.14
23980,-5.3953,0.5914,11.0038,1247,3011.14
23984,1.2222,3.1244,8.2947,1251,3011.59
23989,3.0825,3.4848,10.4028,1246,3011.59
23994,-1.9106,-0.899,13.6697,1251,3011.59
24000,-5.4157,0.7135,10.9535,1251,3011.59
24004,1.3036,3.1783,8.2995,1245,3011.75
24009,3.0622,3.3986,10.4686,1245,3011.75
24014,-1.9537,-0.9385,13.623,1251,3011.75
24020,-5.3546,0.7362,10.8709,1251,3011.75
24024,1.3587,3.14,8.2827,1245,3011.9
24029,3.0394,3.3411,10.5369,1245,3011.9
24034,-2.0004,-1.0319,13.6505,1251,3011.9
24040,-5.363,0.7925,10.7679,1247,3011.9
24044,1.4234,3.1951,8.3127,1246,3011.59
24049,3.0203,3.3016,10.6051,1245,3011.59
24054,-2.071,-1.1396,13.629,1247,3011.59
24060,-5.2732,0.8775,10.6937,1252,3011.59
24064,1.5191,3.225,8.3617,1245,3011.59
24069,2.9999,3.2082,10.6243,1243,3011.59
24074,-2.1859,-1.2234,13.6733,1252,3011.59
24080,-5.2625,0.9361,10.6063,1253,3011.59
24084,1.549,3.2286,8.3641,1245,3011.44
24089,2.8611,3.0837,10.7081,1241,3011.44
24094,-2.2015,-1.2665,13.6793,1253,3011.44
24100,-5.2038,1.0175,10.4411,1255,3011.44
24104,1.6053,3.2262,8.4743,1245,3010.69
24109,2.7892,3.0742,10.7595,1237,3010.69
24114,-2.3511,-1.3803,13.6733,1251,3010.69
24120,-5.2098,1.0906,10.4375,1254,3010.69
24124,1.6149,3.298,8.4611,1245,3010.54
24129,2.745,3.0335,10.8745,1245,3010.54
24134,-2.411,-1.4317,13.5715,1251,3010.54
24140,-5.1942,1.172,10.3609,1255,3010.54
24144,1.6556,3.2693,8.5174,1244,3010.69
24149,2.6683,2.9748,10.9451,1245,3010.69
24154,-2.484,-1.4832,13.6338,1247,3010.69
24160,-5.108,1.245,10.319,1259,3010.69
24164,1.6616,3.3387,8.5305,1242,3010.84
24169,2.5714,2.9305,11.0277,1247,3010.84
24174,-2.569,-1.5012,13.5919,1243,3010.84
24180,-5.0613,1.3252,10.1634,1258,3010.84
24184,1.737,3.3507,8.5605,1244,3010.84
24189,2.5223,2.8407,11.0373,1250,3010.84
24194,-2.5594,-1.5514,13.6003,1235,3010.84
24200,-4.9787,1.3348,10.0999,1261,3010.84
24204,1.798,3.4069,8.6239,1246,3009.93
24209,2.4517,2.8335,11.1271,1251,3009.93
24214,-2.6205,-1.5598,13.611,1245,3009.93
24220,-4.8818,1.4042,10.07,1255,3009.93
24224,1.8304,3.4405,8.6191,1246,3009.93
24229,2.381,2.7282,11.1929,1251,3009.93
24234,-2.7198,-1.6472,13.5847,1242,3009.93
24240,-4.8207,1.4676,9.9826,1258,3009.93
24244,1.8926,3.4477,8.6634,1251,3010.23
24249,2.3607,2.6959,11.23,1251,3010.23
24254,-2.7749,-1.67,13.5871,1247,3010.23
24260,-4.7477,1.5383,9.9311,1247,3010.23
24264,1.889,3.4345,8.6682,1251,3010.39
24269,2.2266,2.569,11.2551,1253,3010.39
24274,-2.8132,-1.7262,13.5847,1251,3010.39
24280,-4.616,1.5562,9.8162,1251,3010.39
24284,1.8962,3.5003,8.6371,1253,3010.39
24289,2.1751,2.5642,11.321,1245,3010.39
24294,-2.885,-1.7561,13.5967,1251,3010.39
24300,-4.543,1.6101,9.7767,1251,3010.39
24304,1.9956,3.5291,8.6886,1255,3011.29
24309,1.9896,2.4301,11.4263,1245,3011.29
24314,-2.9556,-1.7777,13.526,1242,3011.29
24320,-4.4616,1.6951,9.6307,1250,3011.29
24324,2.0159,3.5195,8.7089,1252,3011.14
24329,1.8854,2.3954,11.4802,1245,3011.14
24334,-3.0454,-1.8531,13.5236,1247,3011.14
24340,-4.3491,1.7107,9.6199,1252,3011.14
24344,1.986,3.4907,8.6874,1223,3011.9
24349,1.8328,2.3176,11.582,1252,3011.9
24354,-3.1855,-1.9465,13.4602,1247,3011.9
24360,-4.2377,1.7741,9.5038,1255,3011.9
24364,2.0554,3.5494,8.7329,1246,3012.05
24369,1.6628,2.2302,11.631,1251,3012.05
24374,-3.2573,-1.9297,13.4291,1245,3012.05
24380,-4.118,1.7813,9.414,1251,3012.35
24384,2.0423,3.5614,8.7305,1256,3012.35
24389,1.4653,2.1799,11.6622,1252,3012.35
24394,-3.3243,-1.8771,13.4434,1243,3012.35
24400,-3.9971,1.8591,9.3206,1251,3012.65
24404,2.065,3.5614,8.8155,1244,3012.65
24409,1.3611,2.1356,11.7998,1255,3012.65
24414,-3.4417,-1.8902,13.4231,1245,3012.65
24420,-3.8427,1.8938,9.2464,1253,3012.8
24424,2.0578,3.5961,8.8035,1245,3012.8
24429,1.227,2.0387,11.8597,1256,3012.8
24434,-3.5458,-1.8878,13.392,1250,3012.8
24440,-3.7218,1.9429,9.165,1253,3012.5
24444,2.0889,3.6236,8.8681,1243,3012.5
24449,1.0965,1.9896,11.9914,1253,3012.5
24454,-3.6392,-1.9381,13.3022,1251,3012.5
24460,-3.5757,1.9956,9.0752,1250,3012.2
24464,2.144,3.6835,8.9292,1255,3012.2
24469,0.9194,1.8842,12.0345,1255,3012.2
24474,-3.6631,-1.9046,13.2938,1253,3012.2
24480,-3.4333,2.0458,9.0549,1252,3012.35
24484,2.1895,3.7206,9.0082,1255,3012.35
24489,0.8045,1.804,12.0752,1251,3012.35
24494,-3.7709,-1.8771,13.2555,1253,3012.35
24500,-3.3196,2.1105,8.9136,1251,3012.65
24504,2.2601,3.7804,8.9747,1242,3012.65
24509,0.6668,1.7502,12.1434,1242,3012.65
24514,-3.8367,-1.8771,13.2639,1255,3012.65
24520,-3.1029,2.1464,8.8909,1249,3013.71
24524,2.2733,3.802,8.9998,1253,3013.71
24529,0.5483,1.6628,12.1769,1246,3013.71
24534,-3.9049,-1.895,13.1921,1253,3013.71
24540,-2.9365,2.1739,8.7616,1253,3013.56
24544,2.314,3.8032,8.9986,1253,3013.56
24549,0.3938,1.5682,12.2811,1249,3013.56
24554,-3.9983,-1.8387,13.1502,1257,3013.56
24560,-2.7785,2.1967,8.6802,1255,3013.56
24564,2.3691,3.784,9.0716,1256,3013.56
24569,0.2454,1.4641,12.3026,1243,3013.56
24574,-4.0809,-1.8004,13.1011,1251,3013.56
24580,-2.6228,2.2015,8.6479,1251,3013.71
24584,2.4169,3.7816,9.1087,1253,3013.71
24589,0.1293,1.4377,12.3948,1245,3013.71
24594,-4.1994,-1.7585,12.9861,1246,3013.71
24600,-2.4517,2.2422,8.6024,1250,3013.56
24604,2.4014,3.7948,9.159,1247,3013.56
24609,-0.0359,1.336,12.4798,1245,3013.56
24614,-4.2856,-1.7023,13.0149,1247,3013.56
24619,-2.3032,2.2769,8.576,1250,3013.71
24624,2.3667,3.802,9.1147,1247,3013.71
24629,-0.1712,1.2486,12.5875,1243,3013.71
24634,-4.361,-1.6556,12.8736,1247,3013.71
24639,-2.1596,2.3571,8.4396,1250,3013.26
24644,2.3439,3.899,9.1279,1251,3013.26
24649,-0.2394,1.1468,12.6941,1243,3013.26
24654,-4.4245,-1.6077,12.8988,1247,3013.26
24659,-1.9309,2.4062,8.4659,1247,3012.96
24664,2.4146,3.863,9.1937,1245,3012.96
24669,-0.4022,1.0834,12.7036,1245,3012.96
24674,-4.4951,-1.5838,12.8162,1246,3012.96
24679,-1.7693,2.3679,8.3989,1247,3012.35
24684,2.5031,3.9085,9.3218,1251,3012.35
24689,-0.5375,1.0247,12.7838,1237,3012.35
24694,-4.5705,-1.5371,12.7838,1247,3012.35
24699,-1.6508,2.4576,8.3701,1245,3012.2
24704,2.5079,3.9325,9.3122,1253,3012.2
24709,-0.6189,0.9601,12.7767,1241,3012.2
24714,-4.628,-1.4581,12.7036,1249,3012.2
24719,-1.5095,2.4301,8.3354,1245,3012.05
24724,2.575,3.966,9.3362,1242,3012.05
24729,-0.6728,0.905,12.8796,1242,3012.05
24734,-4.6759,-1.3431,12.7264,1251,3012.05
24739,-1.3671,2.4421,8.3641,1245,3011.75
24744,2.5953,3.966,9.396,1243,3011.75
24749,-0.759,0.8571,12.9012,1244,3011.75
24754,-4.7788,-1.3276,12.5684,1250,3011.75
24759,-1.2366,2.4995,8.2396,1245,3011.9
24764,2.6432,3.9696,9.4822,1255,3011.9
24769,-0.8296,0.8056,12.9873,1247,3011.9
24774,-4.7968,-1.2198,12.5157,1247,3011.9
24779,-1.0295,2.4804,8.1738,1245,3012.2
24784,2.6935,3.9492,9.4763,1253,3012.2
24789,-0.8475,0.6895,12.9682,1242,3012.2
24794,-4.8518,-1.1073,12.457,1247,3012.2
24799,-0.9529,2.5331,8.1762,1243,3012.35
24804,2.7545,3.9468,9.5325,1246,3012.35
24809,-0.905,0.6057,13.0903,1246,3012.35
24814,-4.8602,-1.0403,12.3912,1247,3012.35
24819,-0.7853,2.5582,8.1774,1245,3012.05
24824,2.7282,3.9193,9.511,1243,3012.05
24829,-1.0499,0.5423,13.1514,1245,3012.05
24834,-4.9368,-1.0032,12.3301,1244,3012.05
24839,-0.6093,2.6205,8.1714,1244,3012.35
24844,2.7581,3.899,9.5924,1243,3012.35
24849,-1.0068,0.486,13.1765,1249,3012.35
24854,-5.0266,-0.9038,12.2631,1247,3012.35
24859,-0.504,2.6396,8.0912,1245,3012.35
24864,2.8204,3.875,9.6043,1245,3012.35
24869,-1.075,0.3783,13.1921,1251,3012.35
24874,-5.053,-0.8583,12.1937,1247,3012.35
24879,-0.3448,2.6803,8.0936,1245,3012.5
24884,2.8252,3.9061,9.6426,1245,3012.5
24889,-1.166,0.3424,13.2232,1247,3012.5
24894,-5.1284,-0.7422,12.1374,1254,3012.5
24899,-0.2538,2.6647,8.0876,1247,3012.65
24904,2.9078,3.9049,9.7157,1245,3012.65
24909,-1.1983,0.2263,13.307,1245,3012.65
24914,-5.1799,-0.68,12.068,1253,3012.65
24919,-0.1257,2.6276,8.0625,1243,3012.5
24924,2.9006,3.8906,9.7157,1245,3012.5
24929,-1.2773,0.158,13.3225,1256,3012.5
24934,-5.2206,-0.5758,11.9985,1253,3012.5
24939,-0.0192,2.709,8.1618,1243,3012.05
24944,2.9113,3.8523,9.742,1249,3012.05
24949,-1.318,0.0766,13.3429,1243,3012.05
24954,-5.2984,-0.4968,11.9135,1258,3012.05
24959,0.0802,2.7497,8.1379,1243,3012.8
24964,2.9377,3.8235,9.8354,1245,3012.8
24969,-1.3743,0.0144,13.3788,1242,3012.8
24974,-5.3295,-0.3531,11.8681,1254,3012.8
24979,0.3005,2.8072,8.1678,1247,3012.65
24984,2.9832,3.8295,9.93,1251,3012.65
24989,-1.4521,-0.1006,13.4279,1241,3012.65
24994,-5.3486,-0.2274,11.8166,1253,3012.65
24999,0.3244,2.7845,8.1008,1251,3012.5
25004,3.037,3.7804,9.9467,1251,3012.5
25009,-1.5646,-0.1185,13.4698,1243,3012.5
25014,-5.3618,-0.1281,11.7041,1251,3012.5
25019,0.4561,2.8635,8.1511,1253,3012.65
25024,3.0442,3.7649,9.997,1247,3012.65
25029,-1.5586,-0.2442,13.5392,1253,3012.65
25034,-5.3786,-0.0634,11.5748,1247,3012.65
25039,0.5938,2.9233,8.1403,1253,3012.8
25044,3.0586,3.7505,10.094,1251,3012.8
25049,-1.5993,-0.2957,13.5608,1243,3012.8
25054,-5.4552,0.067,11.552,1255,3012.8
25059,0.7362,2.9245,8.1223,1251,3013.11
25064,3.0993,3.7086,10.0628,1246,3013.11
25069,-1.6712,-0.4034,13.5811,1245,3013.11
25074,-5.4085,0.146,11.4527,1247,3013.11
25079,0.8009,2.9796,8.0912,1253,3012.05
25084,3.1412,3.6512,10.1909,1247,3012.05
25089,-1.664,-0.4585,13.55,1247,3012.05
25094,-5.3786,0.2454,11.4168,1253,3012.05
25099,0.9038,2.9556,8.1175,1253,3011.29
25104,3.1352,3.614,10.1778,1250,3011.29
25109,-1.6867,-0.5303,13.5512,1244,3011.29
25114,-5.3702,0.3065,11.2492,1246,3011.29
25119,0.9792,2.9544,8.1666,1251,3011.29
25124,3.1244,3.5362,10.2891,1245,3011.29
25129,-1.7418,-0.6297,13.5751,1247,3011.29
25134,-5.3427,0.3615,11.1977,1249,3011.29
25139,1.0511,3.0347,8.1834,1251,3010.84
25144,3.0442,3.5183,10.3334,1243,3010.84
25149,-1.8076,-0.7266,13.5859,1249,3010.84
25154,-5.4277,0.4405,11.1091,1251,3010.84
25159,1.0762,3.0622,8.2384,1244,3010.84
25164,3.0502,3.4572,10.4363,1257,3010.84
25169,-1.8759,-0.8404,13.5512,1243,3010.84
25174,-5.4121,0.492,11.0325,1242,3010.84
25179,1.1528,3.0239,8.2504,1242,3010.54
25184,3.061,3.4309,10.5177,1241,3010.54
25189,-1.9201,-0.9134,13.5225,1243,3010.54
25194,-5.4205,0.6177,11.0073,1247,3010.54
25199,1.2402,3.0897,8.3127,1243,3010.69
25204,2.9904,3.3639,10.5165,1243,3010.69
25209,-1.9824,-0.9792,13.6182,1244,3010.69
25214,-5.4205,0.6823,10.8457,1245,3010.69
25219,1.3384,3.1137,8.321,1247,3010.84
25224,3.0203,3.3627,10.5393,1241,3010.84
25229,-2.0949,-1.0379,13.6649,1243,3010.84
25234,-5.4109,0.7817,10.8386,1247,3010.84
25239,1.3479,3.1627,8.3438,1251,3010.84
25244,2.9281,3.2872,10.5776,1247,3010.84
25249,-2.1225,-1.0846,13.6458,1247,3010.84
25254,-5.3582,0.8787,10.7332,1245,3010.84
25259,1.4353,3.2178,8.3486,1245,3010.99
25264,2.9473,3.2489,10.6877,1243,3010.99
25269,-2.2194,-1.166,13.6565,1243,3010.99
25274,-5.3115,0.984,10.7093,1247,3010.99
25279,1.5071,3.2298,8.3091,1245,3010.84
25284,2.8946,3.2022,10.7643,1245,3010.84
25289,-2.2314,-1.2079,13.5979,1253,3010.84
25294,-5.2613,1.0415,10.6279,1247,3010.84
25299,1.5419,3.2609,8.3617,1244,3011.29
25304,2.8635,3.1508,10.8206,1245,3011.29
25309,-2.296,-1.2426,13.6709,1247,3011.29
25314,-5.1978,1.1301,10.5237,1247,3011.29
25319,1.5646,3.2908,8.3977,1247,3011.59
25324,2.8683,3.0789,10.8565,1240,3011.59
25329,-2.2697,-1.342,13.629,1246,3011.59
25334,-5.1236,1.1492,10.3837,1251,3011.59
25339,1.6783,3.3351,8.436,1243,3011.29
25344,2.7557,2.9676,10.9367,1243,3011.29
25349,-2.4193,-1.4054,13.6326,1247,3011.29
25354,-5.0925,1.2055,10.3441,1255,3011.29
25359,1.67,3.3411,8.4025,1246,3011.29
25364,2.6947,2.9568,11.0026,1245,3011.29
25369,-2.4588,-1.4832,13.6194,1251,3011.29
25374,-5.017,1.3036,10.1837,1255,3011.29
25379,1.7286,3.3615,8.4719,1243,3012.65
25384,2.6588,2.879,11.1031,1245,3012.65
25389,-2.5989,-1.5706,13.5655,1245,3012.65
25394,-4.9452,1.3252,10.1239,1253,3012.65
25399,1.8064,3.3399,8.4671,1243,3012.8
25404,2.5307,2.8024,11.1282,1246,3012.8
25409,-2.7114,-1.652,13.5739,1241,3012.8
25414,-4.8794,1.4401,9.9922,1254,3012.8
25419,1.8639,3.3974,8.5198,1243,3012.65
25424,2.381,2.7306,11.2372,1247,3012.65
25429,-2.7509,-1.6951,13.5655,1243,3012.65
25434,-4.7824,1.4736,9.8785,1261,3012.65
25439,1.8687,3.4105,8.5401,1241,3012.35
25444,2.2565,2.6624,11.2731,1247,3012.35
25449,-2.8491,-1.7166,13.5452,1243,3012.35
25454,-4.7262,1.5191,9.827,1257,3012.35
25459,1.8735,3.4477,8.6048,1246,3012.05
25464,2.1261,2.6049,11.3437,1251,3012.05
25469,-2.9305,-1.8016,13.5141,1244,3012.05
25474,-4.5765,1.5826,9.7564,1257,3012.05
25479,1.9201,3.4285,8.6323,1251,3012.05
25484,2.0423,2.5067,11.4419,1251,3012.05
25489,-3.0406,-1.7933,13.4925,1243,3012.05
25494,-4.4796,1.749,9.6893,1250,3012.05
25499,1.9249,3.5398,8.6826,1251,3012.5
25504,1.8591,2.4469,11.564,1250,3012.5
25509,-3.0347,-1.8435,13.4853,1251,3012.5
25514,-4.3754,1.737,9.5696,1245,3012.5
25519,1.9632,3.5386,8.7472,1255,3012.05
25524,1.7861,2.3619,11.5987,1245,3012.05
25529,-3.219,-1.7837,13.4865,1245,3012.05
25534,-4.2641,1.7693,9.5241,1249,3012.05
25539,1.9908,3.6033,8.7628,1257,3011.75
25544,1.6484,2.2709,11.6286,1246,3011.75
25549,-3.2525,-1.7992,13.471,1243,3011.75
25554,-4.1731,1.8387,9.4691,1249,3011.75
25559,2.0399,3.6607,8.7927,1253,3011.59
25564,1.5598,2.1596,11.7639,1253,3011.59
25569,-3.3351,-1.8723,13.4003,1240,3011.59
25574,-4.0067,1.9225,9.3434,1247,3011.59
25579,2.1261,3.6943,8.7771,1247,3011.59
25584,1.4425,2.1608,11.7268,1253,3011.59
25589,-3.3662,-1.901,13.3872,1242,3011.59
25595,-3.8726,1.9393,9.3146,1253,3010.99
25599,2.1272,3.6512,8.8035,1246,3010.99
25604,1.3264,2.0506,11.8669,1253,3010.99
25609,-3.4393,-1.8483,13.3812,1239,3010.99
25615,-3.7541,1.9788,9.2117,1247,3011.9
25619,2.1715,3.6871,8.8693,1246,3011.9
25624,1.1935,2.0039,11.91,1255,3011.9
25629,-3.5314,-1.9381,13.3177,1256,3011.9
25634,-3.6308,1.9932,9.1866,1251,3011.44
25639,2.1871,3.6488,8.9112,1241,3011.44
25644,1.0594,1.895,11.9135,1255,3011.44
25649,-3.5817,-1.9764,13.2387,1242,3011.44
25654,-3.5075,2.0027,9.0633,1253,3011.59
25659,2.1751,3.7062,8.9735,1245,3011.59
25664,0.9014,1.8232,11.9842,1255,3011.59
25669,-3.7002,-1.9561,13.2735,1246,3011.59
25674,-3.3543,2.0195,9.007,1247,3011.59
25679,2.1847,3.6775,8.8921,1245,3011.59
25684,0.7099,1.7262,12.0859,1253,3011.59
25689,-3.7888,-1.9632,13.2076,1250,3011.59
25694,-3.2322,2.0913,8.9579,1246,3011.14
25699,2.1871,3.7601,8.9818,1247,3011.14
25704,0.5854,1.7035,12.2044,1251,3011.14
25709,-3.8954,-1.9321,13.131,1251,3011.14
25714,-3.1149,2.1225,8.8286,1250,3011.14
25719,2.2122,3.7242,8.9974,1245,3011.14
25724,0.4453,1.6197,12.1961,1253,3011.14
25729,-3.9373,-1.901,13.1262,1251,3011.14
25735,-2.9856,2.1739,8.7688,1247,3011.14
25739,2.2673,3.7924,9.092,1252,3011.14
25744,0.334,1.5766,12.2823,1249,3011.14
25749,-4.0019,-1.8399,13.1023,1253,3011.14
25754,-2.873,2.1955,8.734,1243,3011.75
25759,2.2841,3.8319,9.092,1251,3011.75
25764,0.1616,1.5012,12.3589,1246,3011.75
25769,-4.0905,-1.7945,13.0759,1251,3011.75
25774,-2.7066,2.2314,8.7496,1243,3011.75
25779,2.3343,3.8798,9.1063,1253,3011.75
25784,0.1257,1.4329,12.4235,1247,3011.75
25789,-4.1563,-1.7705,13.0388,1255,3011.75
25794,-2.563,2.235,8.6167,1246,3011.9
25799,2.3966,3.8882,9.1435,1250,3011.9
25804,-0.0227,1.3886,12.542,1246,3011.9
25810,-4.227,-1.7226,12.973,1257,3011.9
25814,-2.381,2.2661,8.6,1245,3011.59
25820,2.4217,3.9037,9.2105,1253,3011.59
25824,-0.0611,1.3372,12.4917,1241,3011.59
25830,-4.2222,-1.6544,12.9634,1253,3011.59
25834,-2.2458,2.3056,8.5054,1242,3012.2
25840,2.4864,3.9169,9.1961,1251,3012.2
25844,-0.182,1.2354,12.5348,1244,3012.2
25850,-4.3036,-1.6592,12.8892,1251,3012.2
25854,-2.0901,2.2697,8.4539,1245,3012.35
25860,2.5127,3.893,9.2464,1251,3012.35
25864,-0.2622,1.1648,12.6294,1244,3012.35
25870,-4.3766,-1.6113,12.797,1247,3012.35
25874,-1.9537,2.3248,8.4216,1246,3012.8
25880,2.5079,3.9014,9.256,1247,3012.8
25884,-0.3795,1.0942,12.7036,1245,3012.8
25890,-4.4939,-1.5838,12.7252,1243,3012.8
25894,-1.7693,2.3894,8.3845,1249,3013.11
25900,2.5067,3.9061,9.2895,1251,3013.11
25904,-0.5028,1.0175,12.7683,1247,3013.11
25910,-4.6172,-1.5251,12.7515,1249,3013.11
25914,-1.634,2.3954,8.351,1244,3013.11
25920,2.5462,3.9085,9.3685,1245,3013.11
25924,-0.6021,0.9385,12.7767,1246,3013.11
25930,-4.6543,-1.3982,12.6737,1243,3013.11
25934,-1.4772,2.411,8.3091,1247,3013.56
25940,2.5977,3.9385,9.3685,1253,3013.56
25944,-0.674,0.8499,12.8605,1244,3013.56
25950,-4.7728,-1.3503,12.6067,1245,3013.56
25954,-1.2929,2.4565,8.3402,1245,3013.71
25960,2.6217,3.9361,9.4032,1255,3013.71
25964,-0.8056,0.7494,12.9646,1243,3013.71
25970,-4.8231,-1.2797,12.5372,1242,3013.71
25974,-1.1744,2.5307,8.2456,1243,3013.56
25980,2.6264,3.881,9.4296,1252,3013.56
25984,-0.8511,0.7242,12.9945,1243,3013.56
25990,-4.9452,-1.1708,12.4953,1246,3013.56
25994,-0.9936,2.5798,8.1834,1245,3014.32
26000,2.7114,3.9648,9.4595,1251,3014.32
26004,-0.9792,0.668,13.1262,1247,3014.32
26010,-4.9991,-1.1013,12.4403,1244,3014.32
26014,-0.8068,2.563,8.1547,1239,3014.62
26020,2.7258,3.9564,9.5433,1253,3014.62
26024,-0.9876,0.5902,13.119,1252,3014.62
26030,-5.0506,-1.0056,12.396,1245,3014.62
26034,-0.6596,2.6145,8.1307,1245,3015.23
26040,2.8551,3.9337,9.4966,1251,3015.23
26044,-1.1157,0.5028,13.1525,1247,3015.23
26050,-5.1212,-0.8535,12.2523,1245,3015.23
26054,-0.48,2.6013,8.1391,1245,3014.92
26060,2.8862,3.9373,9.6103,1245,3014.92
26064,-1.16,0.425,13.2878,1245,3014.92
26070,-5.12,-0.7422,12.2092,1243,3014.92
26074,-1.9692,2.3164,8.43,1251,3015.38
26080,2.9748,3.8726,9.6091,1247,3015.38
26084,-0.3639,1.1313,12.7372,1251,3015.38
26090,-5.2122,-0.6644,12.0907,1246,3015.38
26094,-1.7406,2.4481,8.3701,1245,3016.14
26100,2.5618,3.8906,9.2416,1247,3016.14
26104,-0.516,1.0965,12.7276,1251,3016.14
26110,-4.5825,-1.4928,12.7216,1253,3016.14
26114,-1.6316,2.4289,8.242,1245,3016.44
26120,2.5965,3.9085,9.3122,1247,3016.44
26124,-0.6428,0.9708,12.791,1247,3016.44
26130,-4.7142,-1.4281,12.712,1252,3016.44
26134,-1.4653,2.4361,8.2827,1243,3016.74
26140,2.6372,3.9037,9.3649,1251,3016.74
26144,-0.7183,0.8392,12.9562,1235,3016.74
26150,-4.8135,-1.3252,12.6198,1253,3016.74
26154,-1.233,2.4792,8.2277,1241,3016.89
26160,2.6839,3.9049,9.3721,1247,3016.89
26164,-0.8487,0.7278,13.052,1245,3016.89
26170,-4.8722,-1.2258,12.5241,1255,3016.89
26174,-1.0523,2.5594,8.2217,1247,3016.59
26180,2.6815,3.9205,9.4128,1251,3016.59
26184,-0.8763,0.6632,13.0628,1249,3016.59
26190,-4.9644,-1.0977,12.4319,1245,3016.59
26194,-0.8535,2.5786,8.2073,1256,3016.59
26200,2.7713,3.9169,9.5253,1249,3016.59
26204,-0.9637,0.5746,13.1645,1245,3016.59
26210,-5.0937,-1.0056,12.3936,1251,3016.59
26214,-0.6381,2.636,8.1391,1251,3016.59
26220,2.794,3.948,9.5481,1247,3016.59
26224,-1.1253,0.4549,13.1801,1251,3016.59
26230,-5.0733,-0.9062,12.2607,1247,3016.59
26234,-0.5064,2.6695,8.1104,1253,3016.74
26240,2.8264,3.9109,9.6474,1251,3016.74
26244,-1.1756,0.3496,13.2627,1251,3016.74
26250,-5.1846,-0.7673,12.1649,1247,3016.74
26254,-0.2765,2.7126,8.1259,1255,3016.89
26260,2.9113,3.9337,9.6307,1253,3016.89
26264,-1.233,0.2634,13.2555,1247,3016.89
26270,-5.29,-0.6273,12.1063,1247,3016.89
26274,-0.1532,2.7066,8.1618,1251,3016.89
26280,2.9688,3.8607,9.6702,1253,3016.89
26284,-1.2713,0.1664,13.3704,1251,3016.89
26290,-5.3187,-0.5124,11.9734,1246,3016.89
26294,0.0587,2.7773,8.163,1247,3016.59
26299,3.0406,3.7996,9.8055,1243,3016.59
26304,-1.3611,0.0874,13.4542,1245,3016.59
26310,-5.3498,-0.3555,11.9112,1253,3016.59
26314,0.237,2.8204,8.1163,1246,3015.68
26319,3.0933,3.7721,9.8521,1251,3015.68
26324,-1.3982,-0.1101,13.4159,1247,3015.68
26330,-5.3546,-0.2885,11.7819,1243,3015.68
26334,0.3986,2.8647,8.0673,1243,3015.83
26339,3.1388,3.7445,9.8773,1247,3015.83
26344,-1.4533,-0.1532,13.532,1244,3015.83
26350,-5.4013,-0.1161,11.7088,1251,3015.83
26354,0.5016,2.903,8.108,1245,3016.29
26359,3.1184,3.7278,9.924,1246,3016.29
26364,-1.5239,-0.255,13.5404,1248,3016.29
26370,-5.3929,-0.0347,11.631,1247,3016.29
26374,0.6548,2.9293,8.1642,1245,3016.14
26379,3.1196,3.699,10.0137,1247,3016.14
26384,-1.579,-0.3783,13.6218,1251,3016.14
26390,-5.46,0.0838,11.467,1241,3016.14
26394,0.8068,2.9329,8.1211,1247,3016.44
26399,3.1591,3.6751,10.1514,1251,3016.44
26404,-1.7202,-0.4932,13.5632,1245,3016.44
26410,-5.4983,0.17,11.3988,1245,3016.44
26414,0.8727,2.9712,8.1008,1243,3014.77
26419,3.1316,3.5985,10.2041,1247,3014.77
26424,-1.8064,-0.571,13.5895,1252,3014.77
26430,-5.4229,0.3352,11.2946,1251,3014.77
26434,0.9948,3.0394,8.187,1244,3012.2
26439,3.0873,3.5853,10.2747,1251,3012.2
26444,-1.8364,-0.6776,13.6266,1251,3012.2
26450,-5.4516,0.4034,11.1821,1257,3012.2
26454,1.0762,2.9939,8.163,1244,3010.69
26459,3.0634,3.5063,10.3262,1245,3010.69
26464,-1.901,-0.741,13.617,1251,3010.69
26470,-5.4456,0.4513,11.0971,1259,3010.69
26474,1.1277,3.0454,8.2013,1244,3009.93
26479,3.0526,3.4812,10.3908,1254,3009.93
26484,-1.9321,-0.7745,13.6505,1247,3009.93
26490,-5.4372,0.5243,11.0337,1251,3009.93
26494,1.1983,3.0718,8.2552,1243,3009.18
26499,2.9844,3.4393,10.4722,1243,3009.18
26504,-2.0111,-0.8942,13.5452,1245,3009.18
26510,-5.4145,0.6632,10.9475,1255,3009.18
26514,1.2677,3.1292,8.2839,1244,3008.88
26519,2.9999,3.4381,10.5512,1251,3008.88
26524,-1.9944,-0.9505,13.5739,1247,3008.88
26530,-5.369,0.7075,10.9295,1254,3008.88
26534,1.2785,3.1292,8.3426,1243,3008.73
26539,2.9963,3.3555,10.5967,1246,3008.73
26544,-2.0542,-0.9972,13.617,1243,3008.73
26550,-5.3678,0.7494,10.8062,1255,3008.73
26554,1.3934,3.1472,8.3438,1245,3008.27
26559,2.958,3.3148,10.6171,1251,3008.27
26564,-2.0638,-1.0475,13.6194,1243,3008.27
26570,-5.3163,0.7626,10.8505,1253,3008.27
26574,1.3982,3.1484,8.4324,1241,3007.97
26579,2.9317,3.2753,10.6063,1247,3007.97
26584,-2.0554,-1.1001,13.6422,1247,3007.97
26590,-5.29,0.8631,10.7093,1255,3007.97
26594,1.4533,3.1891,8.3701,1244,3007.67
26599,2.9293,3.2513,10.6901,1251,3007.67
26604,-2.0937,-1.1528,13.6027,1243,3007.67
26610,-5.2804,0.8787,10.726,1256,3007.67
26614,1.4796,3.2022,8.3761,1245,3008.27
26619,2.9173,3.1915,10.7452,1253,3008.27
26624,-2.1739,-1.2127,13.6254,1245,3008.27
26630,-5.2481,0.9685,10.5824,1255,3008.27
26634,1.5419,3.2573,8.3857,1251,3008.27
26639,2.8802,3.1735,10.7236,1252,3008.27
26644,-2.2505,-1.2127,13.6062,1242,3008.27
26650,-5.217,1.0163,10.5369,1251,3008.27
26654,1.5981,3.2549,8.43,1251,3008.88
26659,2.8228,3.0945,10.7871,1253,3008.88
26664,-2.3116,-1.318,13.5871,1244,3008.88
26670,-5.1942,1.1133,10.4136,1247,3008.88
26674,1.6029,3.3028,8.4803,1255,3008.57
26679,2.7306,3.0873,10.8828,1251,3008.57
26684,-2.3415,-1.3874,13.5823,1245,3008.57
26690,-5.126,1.1384,10.3801,1246,3008.57
26694,1.646,3.2801,8.4671,1253,3008.73
26699,2.7545,3.0119,10.9044,1255,3008.73
26704,-2.4146,-1.3994,13.623,1245,3008.73
26710,-5.1068,1.1516,10.3561,1246,3008.73
26714,1.7023,3.2825,8.4862,1255,3008.73
26719,2.6815,2.9592,10.9607,1251,3008.73
26724,-2.4912,-1.4581,13.5907,1251,3008.73
26730,-5.0302,1.257,10.252,1247,3008.73
26734,1.731,3.3399,8.4791,1247,3008.73
26739,2.5941,2.9353,11.0373,1252,3008.73
26744,-2.545,-1.5754,13.6302,1242,3008.73
26750,-5.017,1.2905,10.2424,1251,3008.73
26754,1.7418,3.3662,8.5952,1251,3008.73
26759,2.5043,2.8922,11.0528,1253,3008.73
26764,-2.5881,-1.5993,13.5667,1245,3008.73
26770,-4.9237,1.3503,10.0688,1249,3008.73
26774,1.7909,3.3591,8.5222,1245,3008.88
26779,2.4612,2.8683,11.1306,1241,3008.88
26784,-2.6288,-1.5957,13.6613,1243,3008.88
26790,-4.8926,1.3503,10.0257,1247,3007.67
26794,1.8052,3.3998,8.5724,1245,3007.67
26799,2.3415,2.8072,11.1462,1245,3007.67
26804,-2.6875,-1.6281,13.556,1243,3007.67
26810,-4.8327,1.4365,9.9994,1251,3009.93
26814,1.8028,3.3974,8.6514,1245,3009.93
26819,2.3164,2.6851,11.2372,1247,3009.93
26824,-2.7533,-1.6891,13.5548,1245,3009.93
26830,-4.7345,1.4664,9.9431,1247,3008.57
26834,1.8459,3.4465,8.6431,1243,3008.57
26839,2.2134,2.6647,11.2647,1255,3008.57
26844,-2.7701,-1.7262,13.5512,1245,3008.57
26850,-4.7274,1.5095,9.8497,1245,3009.33
26854,1.9082,3.4656,8.6431,1243,3009.33
26859,2.2039,2.5989,11.3162,1259,3009.33
26864,-2.8144,-1.7095,13.5356,1243,3009.33
26870,-4.6388,1.5897,9.7767,1253,3008.88
26874,1.9285,3.5015,8.6874,1241,3008.88
26879,2.0818,2.5379,11.3796,1256,3008.88
26884,-2.9245,-1.7885,13.5416,1247,3008.88
26890,-4.543,1.5754,9.7085,1249,3008.73
26894,1.9908,3.5159,8.6945,1241,3008.73
26899,1.9992,2.496,11.3557,1254,3008.73
26904,-2.9329,-1.7849,13.4578,1251,3008.73
26910,-4.4903,1.6556,9.6139,1247,3008.73
26914,2.0171,3.5374,8.7221,1244,3008.73
26919,1.9201,2.4313,11.4371,1253,3008.73
26924,-3.0406,-1.8435,13.4566,1247,3008.73
26930,-4.3551,1.7107,9.6139,1251,3007.97
26934,2.0087,3.5446,8.7736,1244,3007.97
26939,1.8818,2.3822,11.479,1254,3007.97
26944,-3.0789,-1.8986,13.4554,1251,3007.97
26950,-4.2641,1.7083,9.5888,1252,3008.42
26954,2.0327,3.5566,8.77,1245,3008.42
26959,1.7346,2.3607,11.4814,1253,3008.42
26964,-3.134,-1.8806,13.4734,1253,3008.42
26970,-4.2018,1.7514,9.5074,1251,3007.52
26974,2.0051,3.5446,8.8083,1250,3007.52
26979,1.6293,2.2637,11.5353,1252,3007.52
26984,-3.1927,-1.9225,13.4387,1253,3007.52
26990,-4.1324,1.7585,9.4703,1247,3008.57
26994,2.0183,3.5398,8.8406,1251,3008.57
26999,1.5431,2.1907,11.6322,1251,3008.57
27004,-3.2992,-1.8962,13.4063,1251,3008.57
27010,-4.0342,1.8364,9.3697,1243,3009.78
27014,2.0267,3.5494,8.7747,1251,3009.78
27019,1.4353,2.2003,11.716,1249,3009.78
27024,-3.3399,-1.9321,13.3381,1251,3009.78
27030,-3.9373,1.8447,9.3697,1244,3008.73
27034,2.0734,3.6081,8.8741,1253,3008.73
27039,1.33,2.1261,11.7112,1245,3008.73
27044,-3.4093,-1.8974,13.3561,1257,3008.73
27050,-3.899,1.9309,9.2835,1245,3008.73
27054,2.0901,3.6416,8.8981,1246,3008.73
27059,1.2342,2.0674,11.8453,1245,3008.73
27064,-3.4656,-1.8663,13.3824,1255,3008.73
27070,-3.7948,1.9501,9.2249,1240,3008.73
27074,2.1093,3.7026,8.916,1251,3008.73
27079,1.1265,2.0207,11.8633,1245,3008.73
27084,-3.4884,-1.8854,13.38,1245,3008.73
27090,-3.6595,1.9752,9.1423,1245,3008.73
27094,2.1691,3.6859,8.9148,1251,3008.73
27099,1.0762,1.9429,11.886,1251,3008.73
27104,-3.553,-1.907,13.2914,1253,3008.73
27110,-3.5578,1.998,9.1387,1247,3008.73
27114,2.1895,3.7302,8.9507,1250,3008.73
27119,0.9301,1.9381,11.9483,1251,3008.73
27124,-3.5769,-1.907,13.2531,1252,3008.73
27130,-3.462,2.0111,9.0393,1247,3008.42
27134,2.2039,3.7242,8.9256,1251,3008.42
27139,0.8763,1.8854,11.9638,1251,3008.42
27144,-3.6679,-1.9309,13.2531,1252,3008.42
27150,-3.3662,2.0387,9.007,1250,3008.12
27154,2.2063,3.7326,9.0202,1246,3008.12
27159,0.7925,1.8004,11.9614,1253,3008.12
27164,-3.6547,-1.8974,13.1956,1245,3008.12
27170,-3.2657,2.065,8.916,1247,3007.97
27174,2.2146,3.699,9.0321,1244,3007.97
27179,0.6584,1.7214,12.0656,1246,3007.97
27184,-3.7373,-1.9357,13.1406,1245,3007.97
27190,-3.1591,2.0291,8.8741,1249,3007.37
27194,2.217,3.6643,9.0321,1247,3007.37
27199,0.5758,1.6688,12.0668,1245,3007.37
27204,-3.8499,-1.8854,13.1262,1245,3007.37
27210,-3.0718,2.1093,8.9016,1249,3007.37
27214,2.2003,3.6955,9.0824,1247,3007.37
27219,0.4812,1.5969,12.1398,1245,3007.37
27224,-3.8475,-1.9201,13.0568,1251,3007.37
27230,-2.9904,2.1141,8.8382,1249,3007.52
27234,2.2075,3.729,9.0597,1251,3007.52
27239,0.3998,1.5862,12.2236,1245,3007.52
27244,-3.9552,-1.8711,13.1262,1243,3007.52
27250,-2.9078,2.1033,8.8274,1243,3007.82
27254,2.2314,3.8032,9.1459,1251,3007.82
27259,0.2789,1.5945,12.1865,1245,3007.82
27264,-3.9887,-1.822,13.1083,1244,3007.82
27270,-2.8503,2.1859,8.7963,1245,3008.12
27274,2.2422,3.8092,9.1087,1247,3008.12
27279,0.2346,1.4808,12.2643,1245,3008.12
27284,-4.0342,-1.798,13.0819,1247,3008.12
27290,-2.745,2.1919,8.746,1244,3007.97
27294,2.2817,3.8475,9.153,1250,3007.97
27299,0.103,1.4641,12.3649,1246,3007.97
27304,-4.0953,-1.7334,12.9981,1247,3007.97
27310,-2.6145,2.2422,8.6945,1245,3007.82
27314,2.3044,3.8654,9.1123,1253,3007.82
27319,0.1077,1.4305,12.4187,1244,3007.82
27324,-4.1527,-1.7142,13.0592,1251,3007.82
27330,-2.5319,2.2458,8.6754,1244,3008.12
27334,2.3655,3.8738,9.1482,1255,3008.12
27339,0.012,1.3743,12.408,1244,3008.12
27344,-4.1468,-1.7178,12.9131,1244,3008.12
27350,-2.3655,2.2422,8.5904,1243,3007.97
27354,2.4169,3.9085,9.2213,1250,3007.97
27359,-0.0814,1.3467,12.408,1251,3007.97
27364,-4.1611,-1.6747,12.9215,1247,3007.97
27369,-2.2577,2.2733,8.5473,1243,3007.82
27374,2.4241,3.9085,9.2189,1247,3007.82
27379,-0.1209,1.2629,12.4606,1245,3007.82
27384,-4.1982,-1.6664,12.9047,1243,3007.82
27389,-2.1895,2.2422,8.5677,1241,3007.97
27394,2.399,3.881,9.2596,1244,3007.97
27399,-0.2191,1.2474,12.5444,1247,3007.97
27404,-4.2246,-1.6556,12.8341,1246,3007.97
27409,-2.083,2.3296,8.515,1241,3008.12
27414,2.4253,3.8786,9.2644,1246,3008.12
27419,-0.3065,1.1863,12.5576,1251,3008.12
27424,-4.3646,-1.6532,12.7946,1244,3008.12
27429,-1.9932,2.3379,8.442,1242,3008.27
27434,2.4038,3.8511,9.317,1251,3008.27
27439,-0.3555,1.1013,12.6186,1251,3008.27
27444,-4.4005,-1.5886,12.718,1245,3008.27
27449,-1.9022,2.3834,8.4396,1245,3008.27
27454,2.381,3.8714,9.347,1249,3008.27
27459,-0.4812,1.0606,12.6988,1251,3008.27
27464,-4.4185,-1.5574,12.7587,1247,3008.27
27469,-1.822,2.3403,8.3977,1245,3008.27
27474,2.4086,3.8894,9.3326,1246,3008.27
27479,-0.5375,1.0151,12.712,1246,3008.27
27484,-4.5238,-1.5036,12.7288,1241,3008.27
27489,-1.743,2.4325,8.3929,1243,3008.73
27494,2.4146,3.9157,9.3625,1244,3008.73
27499,-0.5746,0.9697,12.7838,1250,3008.73
27504,-4.5562,-1.4593,12.6821,1245,3008.73
27509,-1.6005,2.4086,8.4324,1245,3009.03
27514,2.4062,4.0043,9.4104,1245,3009.03
27519,-0.6584,0.929,12.7503,1251,3009.03
27524,-4.6088,-1.3874,12.621,1247,3009.03
27529,-1.4952,2.4768,8.351,1240,3009.18
27534,2.4924,3.954,9.4427,1238,3009.18
27539,-0.6967,0.9074,12.864,1253,3009.18
27544,-4.6531,-1.3455,12.5923,1247,3009.18
27549,-1.3659,2.4708,8.3246,1243,3009.33
27554,2.6073,3.9756,9.4224,1251,3009.33
27559,-0.7829,0.8799,12.8281,1251,3009.33
27564,-4.6759,-1.2306,12.5791,1252,3009.33
27569,-1.2163,2.5175,8.3055,1243,3009.03
27574,2.5857,3.9624,9.4966,1247,3009.03
27579,-0.8511,0.7793,12.9239,1247,3009.03
27584,-4.695,-1.1959,12.5013,1251,3009.03
27589,-1.093,2.5079,8.2504,1245,3009.48
27594,2.6767,3.9552,9.4451,1249,3009.48
27599,-0.8547,0.741,12.9239,1243,3009.48
27604,-4.7561,-1.1408,12.4702,1253,3009.48
27609,-1.0151,2.5498,8.2528,1244,3009.63
27614,2.6851,3.9576,9.4954,1247,3009.63
27619,-0.8918,0.7207,12.9634,1246,3009.63
27624,-4.7944,-1.0834,12.3732,1250,3009.63
27629,-0.9218,2.551,8.2253,1241,3009.48
27634,2.7162,3.9157,9.5277,1251,3009.48
27639,-0.9565,0.589,13.0257,1245,3009.48
27644,-4.8985,-1.063,12.378,1252,3009.48
27649,-0.7841,2.5654,8.1702,1241,3008.57
27654,2.7342,3.9313,9.5517,1251,3008.57
27659,-0.9948,0.565,12.9909,1245,3008.57
27664,-4.9033,-1.0271,12.372,1256,3008.57
27669,-0.7242,2.5594,8.1786,1241,3010.08
27674,2.7138,3.9349,9.5756,1251,3010.08
27679,-0.984,0.504,13.064,1245,3010.08
27684,-5.0039,-0.923,12.2811,1253,3010.08
27689,-0.5746,2.6288,8.1654,1243,3009.93
27694,2.7186,3.9241,9.5648,1245,3009.93
27699,-1.1241,0.4106,13.1454,1243,3009.93
27704,-5.0278,-0.9158,12.1937,1252,3009.93
27709,-0.504,2.6169,8.157,1245,3010.08
27714,2.7007,3.8906,9.6462,1247,3010.08
27719,-1.0965,0.3543,13.2172,1239,3010.08
27724,-5.0949,-0.826,12.1913,1253,3010.08
27729,-0.3831,2.6719,8.1906,1251,3010.08
27734,2.7749,3.9301,9.6678,1251,3010.08
27739,-1.1815,0.3424,13.2328,1247,3010.08
27744,-5.1236,-0.7434,12.1458,1253,3010.08
27749,-0.2789,2.642,8.1391,1247,3010.23
27754,2.8072,3.9061,9.7659,1251,3010.23
27759,-1.2809,0.2634,13.228,1245,3010.23
27764,-5.1918,-0.6548,12.0871,1253,3010.23
27769,-0.146,2.7186,8.0685,1251,3010.23
27774,2.8359,3.899,9.7312,1247,3010.23
27779,-1.2665,0.2502,13.2663,1242,3010.23
27784,-5.1715,-0.5183,12.0093,1251,3010.23
27789,-0.0491,2.7054,8.1379,1252,3010.39
27794,2.891,3.9133,9.8282,1247,3010.39
27799,-1.3503,0.1999,13.38,1247,3010.39
27804,-5.1966,-0.4693,11.9375,1250,3010.39
27809,0.0922,2.8072,8.1427,1251,3010.39
27814,2.9365,3.9193,9.8581,1251,3010.39
27819,-1.391,0.1101,13.3716,1251,3010.39
27824,-5.2158,-0.3771,11.8776,1247,3010.39
27829,0.1784,2.7785,8.09,1252,3010.54
27834,2.9473,3.8654,9.8342,1251,3010.54
27839,-1.4066,0.0251,13.3956,1252,3010.54
27844,-5.2409,-0.3244,11.8106,1249,3010.54
27849,0.3041,2.8216,8.0912,1251,3010.99
27854,3.0131,3.8834,9.9024,1252,3010.99
27859,-1.3862,-0.067,13.3632,1251,3010.99
27864,-5.2565,-0.2251,11.7867,1253,3010.99
27869,0.413,2.8455,8.0996,1249,3010.99
27874,3.0059,3.79,9.9288,1251,3010.99
27879,-1.3886,-0.1844,13.4255,1253,3010.99
27884,-5.3355,-0.1736,11.7088,1252,3010.99
27889,0.4621,2.8934,8.1151,1244,3011.44
27894,3.0287,3.784,9.9994,1245,3011.44
27899,-1.5048,-0.2334,13.4351,1245,3011.44
27904,-5.3307,-0.1245,11.5831,1251,3011.44
27909,0.5902,2.9257,8.1535,1247,3010.99
27914,3.0418,3.6847,10.0078,1243,3010.99
27919,-1.4976,-0.3412,13.4806,1245,3010.99
27924,-5.3594,-0.0491,11.5245,1251,3010.99
27929,0.6919,2.909,8.157,1245,3010.99
27934,3.0646,3.7086,10.1011,1253,3010.99
27939,-1.5718,-0.3795,13.5009,1245,3010.99
27944,-5.4037,0.0407,11.4886,1243,3010.99
27949,0.7219,2.9293,8.175,1245,3011.14
27954,3.049,3.6655,10.1394,1251,3011.14
27959,-1.6412,-0.4908,13.4985,1251,3011.14
27964,-5.3822,0.17,11.412,1246,3011.14
27969,0.8284,2.9317,8.1774,1245,3010.99
27974,3.0538,3.6559,10.228,1249,3010.99
27979,-1.6867,-0.5375,13.6206,1247,3010.99
27984,-5.4396,0.2729,11.2994,1251,3010.99
27989,0.899,2.9221,8.1762,1245,3010.84
27994,3.0167,3.614,10.1969,1251,3010.84
27999,-1.7873,-0.6093,13.5991,1253,3010.84
28004,-5.43,0.334,11.3006,1241,3010.84
28009,0.9912,2.988,8.2049,1245,3010.54
28014,3.0837,3.5889,10.2867,1251,3010.54
28019,-1.8759,-0.6668,13.5991,1251,3010.54
28024,-5.4193,0.4729,11.2025,1251,3010.54
28029,1.0558,3.0179,8.2253,1245,3010.54
28034,3.0287,3.541,10.3813,1245,3010.54
28039,-1.8735,-0.7649,13.6158,1253,3010.54
28044,-5.3893,0.4992,11.1139,1251,3010.54
28049,1.1121,3.0885,8.254,1251,3010.54
28054,3.0777,3.5039,10.4291,1253,3010.54
28059,-1.907,-0.7985,13.6422,1251,3010.54
28064,-5.387,0.5997,11.0181,1252,3010.54
28069,1.2258,3.0777,8.2253,1245,3010.23
28074,3.037,3.4369,10.4244,1250,3010.23
28079,-1.9453,-0.9026,13.5895,1253,3010.23
28084,-5.3498,0.6692,10.9247,1257,3010.23
28089,1.2821,3.1388,8.248,1245,3010.54
28094,3.0694,3.4273,10.4746,1245,3010.54
28099,-2.0063,-0.9397,13.6314,1251,3010.54
28104,-5.3498,0.7003,10.835,1256,3010.54
28109,1.3934,3.1591,8.3019,1251,3010.84
28114,3.0526,3.3698,10.5405,1251,3010.84
28119,-2.0159,-0.9948,13.617,1253,3010.84
28124,-5.3271,0.7949,10.7368,1257,3010.84
28129,1.403,3.1891,8.3318,1246,3011.14
28134,2.9892,3.3375,10.5824,1251,3011.14
28139,-2.0734,-1.0738,13.6134,1251,3011.14
28144,-5.2792,0.8523,10.7332,1255,3011.14
28149,1.4569,3.1699,8.3749,1245,3011.29
28154,2.9401,3.2417,10.6973,1251,3011.29
28159,-2.1656,-1.1851,13.5883,1244,3011.29
28164,-5.2684,0.9206,10.6614,1257,3011.29
28169,1.5407,3.1436,8.3462,1245,3011.44
28174,2.9125,3.1711,10.7069,1251,3011.44
28179,-2.2087,-1.2318,13.6601,1252,3011.44
28184,-5.2337,1.002,10.5177,1259,3011.44
28189,1.5407,3.2094,8.3857,1245,3011.14
28194,2.8072,3.0969,10.7931,1252,3011.14
28199,-2.3092,-1.3479,13.6086,1245,3011.14
28204,-5.1607,1.0738,10.422,1257,3011.14
28209,1.6041,3.2154,8.418,1245,3011.29
28214,2.7821,2.9928,10.8565,1256,3011.29
28219,-2.4098,-1.4126,13.6398,1251,3011.29
28224,-5.1619,1.154,10.3777,1253,3011.29
28229,1.6448,3.2621,8.4408,1247,3011.29
28234,2.6683,2.9724,10.8445,1255,3011.29
28239,-2.4888,-1.482,13.6505,1251,3011.29
28244,-5.0937,1.2821,10.2843,1256,3011.29
28249,1.6915,3.2956,8.4635,1251,3011.75
28254,2.6408,2.9556,10.9786,1253,3011.75
28259,-2.5606,-1.5646,13.6098,1253,3011.75
28264,-5.0398,1.3132,10.2137,1251,3011.75
28269,1.7825,3.3136,8.491,1253,3011.59
28274,2.5307,2.8635,11.0768,1251,3011.59
28279,-2.63,-1.5838,13.6517,1251,3011.59
28284,-4.9321,1.3874,10.1215,1247,3011.59
28289,1.7933,3.3698,8.5341,1253,3011.59
28294,2.5175,2.8132,11.1091,1251,3011.59
28299,-2.7162,-1.5766,13.6338,1253,3011.59
28304,-4.859,1.4329,10.0365,1249,3011.59
28309,1.8184,3.4034,8.5485,1254,3011.75
28314,2.4313,2.6875,11.1666,1253,3011.75
28319,-2.7557,-1.6484,13.5811,1250,3011.75
28324,-4.7884,1.4796,9.9958,1252,3011.75
28329,1.8771,3.4393,8.6095,1247,3011.29
28334,2.2936,2.6803,11.2587,1255,3011.29
28339,-2.8431,-1.6676,13.5572,1251,3011.29
28344,-4.689,1.5658,9.9228,1252,3011.29
28349,1.9154,3.4321,8.6095,1247,3011.59
28354,2.2158,2.5786,11.2827,1257,3011.59
28359,-2.9185,-1.7382,13.5272,1249,3011.59
28365,-4.5358,1.6209,9.7767,1253,3011.59
28369,1.9285,3.4584,8.6491,1245,3011.59
28374,2.0734,2.4768,11.382,1255,3011.59
28379,-2.9353,-1.7466,13.5392,1245,3011.59
28385,-4.4388,1.6927,9.6462,1253,3010.99
28389,1.9956,3.4692,8.6945,1245,3010.99
28394,1.986,2.4169,11.4347,1257,3010.99
28399,-3.043,-1.7897,13.5177,1247,3010.99
28404,-4.3467,1.7238,9.5888,1251,3011.14
28409,2.0387,3.5147,8.679,1245,3011.14
28414,1.8675,2.3571,11.5245,1257,3011.14
28419,-3.1041,-1.8926,13.4422,1247,3011.14
28424,-4.2581,1.7214,9.487,1251,3010.69
28429,2.0267,3.5446,8.7819,1245,3010.69
28434,1.7131,2.2805,11.5688,1255,3010.69
28439,-3.152,-1.883,13.4279,1253,3010.69
28444,-4.1384,1.7945,9.4822,1251,3009.63
28449,2.0231,3.5207,8.752,1247,3009.63
28454,1.579,2.2458,11.6478,1257,3009.63
28459,-3.2537,-1.8998,13.4087,1253,3009.63
28464,-4.0833,1.8507,9.4116,1253,3011.14
28469,2.0602,3.4919,8.8083,1247,3011.14
28474,1.5095,2.1464,11.7088,1255,3011.14
28479,-3.3315,-1.9381,13.3716,1247,3011.14
28484,-3.9804,1.8842,9.3362,1251,3009.63
28489,2.0865,3.5338,8.8131,1251,3009.63
28494,1.391,2.1344,11.7388,1254,3009.63
28499,-3.401,-1.8842,13.3429,1255,3009.63
28504,-3.8595,1.8962,9.2967,1249,3009.18
28509,2.0423,3.5925,8.8765,1251,3009.18
28514,1.2198,2.0339,11.8058,1250,3009.18
28519,-3.4273,-1.913,13.3225,1256,3009.18
28525,-3.796,1.9201,9.2285,1247,3007.97
28529,2.0913,3.62,8.9136,1252,3007.97
28534,1.16,2.0195,11.8812,1247,3007.97
28539,-3.5003,-1.8675,13.2914,1256,3007.97
28544,-3.6775,1.9824,9.1494,1243,3008.42
28549,2.0518,3.6811,8.9292,1251,3008.42
28554,1.0439,1.9321,11.9387,1246,3008.42
28559,-3.5578,-1.8962,13.2747,1254,3008.42
28564,-3.5781,2.0375,9.1291,1246,3007.52
28569,2.1368,3.7074,8.8897,1252,3007.52
28574,0.9744,1.901,11.9758,1247,3007.52
28579,-3.6105,-1.8699,13.2483,1259,3007.52
28584,-3.4907,2.0602,9.0525,1252,3008.27
28589,2.162,3.735,9.0142,1252,3008.27
28594,0.8428,1.8352,11.9902,1247,3008.27
28599,-3.6021,-1.8735,13.2519,1257,3008.27
28604,-3.4129,2.0746,8.9902,1247,3007.82
28609,2.2194,3.7864,8.989,1253,3007.82
28614,0.7973,1.7777,12.0943,1249,3007.82
28619,-3.6919,-1.8687,13.2471,1255,3007.82
28624,-3.292,2.0782,8.9735,1245,3007.82
28629,2.2721,3.7601,8.995,1251,3007.82
28634,0.6476,1.7454,12.0835,1250,3007.82
28639,-3.711,-1.8998,13.21,1257,3007.82
28644,-3.1807,2.0686,8.9411,1247,3007.52
28649,2.1907,3.7709,8.9854,1251,3007.52
28654,0.6345,1.743,12.1482,1244,3007.52
28659,-3.7541,-1.8675,13.2136,1256,3007.52
28664,-3.0765,2.1296,8.8765,1247,3008.27
28669,2.2482,3.7553,9.0429,1243,3008.27
28674,0.5351,1.6592,12.1434,1246,3008.27
28679,-3.8379,-1.8495,13.0628,1253,3008.27
28685,-2.9664,2.1261,8.8238,1246,3007.82
28689,2.235,3.7026,9.0884,1253,3007.82
28694,0.4178,1.5957,12.202,1247,3007.82
28699,-3.8906,-1.8699,13.0915,1245,3007.82
28704,-2.9185,2.1392,8.819,1251,3007.22
28709,2.2386,3.7541,9.0788,1247,3007.22
28714,0.3232,1.5742,12.2547,1247,3007.22
28719,-3.972,-1.8519,13.0771,1252,3007.22
28724,-2.8108,2.1033,8.746,1247,3008.57
28729,2.2362,3.7421,9.1243,1247,3008.57
28734,0.2239,1.5215,12.305,1247,3008.57
28739,-4.0151,-1.8028,13.0149,1253,3008.57
28745,-2.7102,2.1931,8.7376,1250,3008.42
28749,2.2541,3.7792,9.0644,1247,3008.42
28754,0.146,1.4449,12.3924,1247,3008.42
28759,-4.0881,-1.8184,13.0472,1247,3008.42
28764,-2.6157,2.2326,8.6898,1251,3008.27
28769,2.2817,3.8259,9.1267,1245,3008.27
28774,0.0168,1.3683,12.4211,1247,3008.27
28779,-4.1096,-1.7777,12.9407,1251,3008.27
28784,-2.5079,2.2362,8.5928,1247,3008.42
28789,2.3415,3.8642,9.1746,1250,3008.42
28794,-0.0634,1.3635,12.451,1247,3008.42
28800,-4.1492,-1.7442,13.0113,1251,3008.42
28804,-2.4086,2.2517,8.5844,1245,3008.42
28810,2.3403,3.8583,9.1937,1251,3008.42
28814,-0.1293,1.2989,12.4834,1247,3008.42
28820,-4.1863,-1.67,12.9227,1245,3008.42
28824,-2.2877,2.2853,8.5796,1245,3008.42
28830,2.393,3.9205,9.2045,1251,3008.42
28834,-0.1951,1.3001,12.56,1243,3008.42
28840,-4.2401,-1.6508,12.9275,1245,3008.42
28844,-2.1991,2.2817,8.5425,1237,3008.42
28850,2.4086,3.8822,9.2787,1253,3008.42
28854,-0.2322,1.2486,12.5672,1243,3008.42
28860,-4.294,-1.6005,12.9095,1247,3008.42
28864,-2.0973,2.3559,8.5198,1255,3008.42
28870,2.4541,3.9397,9.2608,1251,3008.42
28874,-0.3005,1.1863,12.6486,1243,3008.42
28880,-4.3275,-1.5742,12.7838,1250,3008.42
28884,-1.9285,2.3451,8.4503,1241,3008.42
28890,2.4708,3.9049,9.2823,1247,3008.42
28894,-0.3807,1.1444,12.645,1251,3008.42
28900,-4.3826,-1.5766,12.7982,1247,3008.42
28904,-1.8567,2.3535,8.3857,1243,3008.57
28910,2.472,3.8966,9.2919,1251,3008.57
28914,-0.4274,1.0606,12.6546,1244,3008.57
28920,-4.4257,-1.5287,12.7024,1251,3008.57
28924,-1.7597,2.3559,8.3989,1243,3008.88
28930,2.4995,3.8618,9.3122,1245,3008.88
28934,-0.5291,0.9864,12.7479,1250,3008.88
28940,-4.4712,-1.5071,12.6905,1250,3008.88
28944,-1.6532,2.3834,8.3773,1241,3009.18
28950,2.4588,3.8714,9.3541,1247,3009.18
28954,-0.5459,0.9685,12.7886,1252,3009.18
28960,-4.6064,-1.4808,12.6186,1253,3009.18
28964,-1.555,2.4038,8.3258,1243,3009.18
28970,2.4972,3.8822,9.4355,1245,3009.18
28974,-0.662,0.8978,12.8066,1247,3009.18
28980,-4.6448,-1.4557,12.6019,1249,3009.18
28984,-1.4281,2.4205,8.3282,1243,3009.33
28990,2.5091,3.9409,9.396,1247,3009.33
28994,-0.7757,0.8248,12.8569,1245,3009.33
29000,-4.6855,-1.3743,12.6186,1251,3009.33
29004,-1.3611,2.4529,8.321,1243,3009.63
29010,2.5379,3.9253,9.4499,1247,3009.63
29014,-0.838,0.8128,12.9371,1247,3009.63
29020,-4.804,-1.2522,12.5947,1246,3009.63
29024,-1.2318,2.5283,8.2708,1243,3009.63
29030,2.5738,3.9361,9.4511,1245,3009.63
29034,-0.8523,0.7554,12.9802,1247,3009.63
29040,-4.8064,-1.1612,12.5277,1247,3009.63
29044,-1.0906,2.5438,8.2456,1245,3009.78
29050,2.6444,3.9708,9.487,1243,3009.78
29054,-0.9122,0.7614,13.0005,1254,3009.78
29060,-4.804,-1.1181,12.4726,1251,3009.78
29064,-0.9541,2.5714,8.2265,1243,3009.33
29070,2.6827,3.9564,9.5122,1244,3009.33
29074,-0.9744,0.6847,13.0664,1252,3009.33
29080,-4.8387,-1.0355,12.3936,1252,3009.33
29084,-0.8104,2.5893,8.1594,1244,3009.78
29090,2.7354,4.0019,9.5505,1246,3009.78
29094,-1.0283,0.6428,13.1035,1251,3009.78
29100,-4.8806,-0.9732,12.3349,1253,3009.78
29104,-0.6907,2.5798,8.2001,1247,3009.93
29110,2.7126,3.9552,9.5816,1251,3009.93
29114,-1.0271,0.5578,13.0879,1247,3009.93
29120,-4.8662,-0.9337,12.3038,1257,3009.93
29124,-0.5938,2.6288,8.1594,1239,3009.63
29130,2.7833,3.9492,9.5792,1243,3009.63
29134,-1.0894,0.4848,13.1717,1245,3009.63
29140,-4.9584,-0.8643,12.2032,1253,3009.63
29144,-0.5028,2.6516,8.1475,1245,3009.33
29150,2.7761,3.9265,9.6319,1245,3009.33
29154,-1.0858,0.4154,13.1358,1251,3009.33
29160,-5.0099,-0.8787,12.1578,1253,3009.33
29164,-0.3926,2.6528,8.1307,1241,3009.18
29170,2.794,3.8846,9.5984,1251,3009.18
29174,-1.1408,0.3579,13.2232,1243,3009.18
29180,-5.0721,-0.8056,12.1422,1253,3009.18
29184,-0.3112,2.6348,8.0649,1243,3009.78
29190,2.8323,3.8954,9.6726,1251,3009.78
29194,-1.2031,0.2478,13.2208,1241,3009.78
29200,-5.114,-0.7482,12.0907,1253,3009.78
29204,-0.2502,2.6695,8.157,1245,3009.78
29210,2.8096,3.8571,9.7073,1247,3009.78
29214,-1.2258,0.1903,13.2794,1244,3009.78
29220,-5.1894,-0.6536,11.9973,1255,3009.78
29224,-0.1269,2.6863,8.1678,1245,3009.93
29230,2.9018,3.8738,9.7803,1253,3009.93
29234,-1.257,0.1496,13.3345,1247,3009.93
29240,-5.2098,-0.5854,12.0033,1253,3009.93
29244,-0.0227,2.733,8.1319,1251,3009.93
29250,2.8695,3.8403,9.7516,1251,3009.93
29254,-1.318,0.1053,13.2962,1246,3009.93
29260,-5.2241,-0.4836,11.9183,1251,3009.93
29264,0.0886,2.7845,8.169,1250,3009.63
29269,2.9006,3.8595,9.8713,1250,3009.63
29274,-1.3958,0.0694,13.3968,1245,3009.63
29280,-5.3199,-0.401,11.874,1257,3009.63
29284,0.2179,2.7773,8.1307,1243,3009.93
29289,2.9197,3.8714,9.8833,1252,3009.93
29294,-1.494,0.0108,13.3896,1245,3009.93
29300,-5.3139,-0.2921,11.8022,1251,3009.93
29304,0.3112,2.8467,8.175,1251,3009.78
29309,2.9604,3.875,9.9276,1251,3009.78
29314,-1.5227,-0.0587,13.3944,1252,3009.78
29320,-5.2948,-0.1796,11.7591,1235,3009.78
29324,0.4214,2.8252,8.1163,1253,3009.78
29329,2.988,3.7828,9.9144,1245,3009.78
29334,-1.5407,-0.1389,13.5225,1245,3009.78
29340,-5.2912,-0.1173,11.6514,1251,3009.78
29344,0.4884,2.8718,8.1451,1253,3009.93
29349,3.0071,3.8211,9.9778,1247,3009.93
29354,-1.5526,-0.1676,13.4949,1249,3009.93
29360,-5.2984,-0.0287,11.564,1253,3009.93
29364,0.595,2.879,8.1116,1255,3010.54
29369,3.037,3.7206,10.0054,1250,3010.54
29374,-1.5275,-0.255,13.4889,1251,3010.54
29380,-5.2876,-0.0156,11.5065,1254,3010.54
29384,0.6859,2.9125,8.102,1245,3010.99
29389,3.1005,3.7062,10.0664,1252,3010.99
29394,-1.5383,-0.3603,13.5045,1253,3010.99
29400,-5.3247,0.0706,11.461,1253,3010.99
29404,0.7494,2.8958,8.1044,1251,3011.44
29409,3.1292,3.6308,10.1502,1252,3011.44
29414,-1.6077,-0.4693,13.5775,1251,3011.44
29420,-5.3498,0.1317,11.3892,1253,3011.44
29424,0.8416,2.891,8.1319,1243,3011.44
29429,3.1161,3.6129,10.1658,1245,3011.44
29434,-1.6077,-0.5267,13.5308,1247,3011.44
29440,-5.3965,0.2394,11.2863,1251,3011.44
29444,0.9493,2.9616,8.2001,1245,3011.14
29449,3.0897,3.5733,10.2891,1251,3011.14
29454,-1.719,-0.6069,13.6398,1250,3011.14
29460,-5.3917,0.237,11.1582,1252,3011.14
29464,0.9912,2.9616,8.1379,1244,3011.29
29469,3.0358,3.5698,10.307,1251,3011.29
29474,-1.804,-0.6979,13.5536,1247,3011.29
29480,-5.4456,0.3699,11.1701,1253,3011.29
29484,1.0475,2.9916,8.2564,1245,3011.14
29489,3.0299,3.5075,10.3561,1251,3011.14
29494,-1.9058,-0.7745,13.5392,1247,3011.14
29500,-5.4348,0.4824,11.0672,1252,3011.14
29504,1.1504,3.0682,8.2205,1243,3011.59
29509,3.0418,3.4692,10.4028,1251,3011.59
29514,-1.9704,-0.8344,13.6386,1241,3011.59
29520,-5.466,0.6189,11.0217,1246,3011.59
29524,1.2342,3.1328,8.3031,1247,3011.75
29529,3.0203,3.4177,10.5309,1247,3011.75
29534,-2.0195,-0.9122,13.6434,1251,3011.75
29540,-5.3893,0.7159,10.9475,1247,3011.75
29544,1.2929,3.1627,8.3139,1240,3011.59
29549,2.9832,3.3734,10.5261,1247,3011.59
29554,-2.0279,-0.9254,13.6984,1247,3011.59
29560,-5.369,0.82,10.8445,1248,3011.59
29564,1.397,3.1795,8.3127,1245,3011.14
29569,2.9892,3.3004,10.5632,1243,3011.14
29574,-2.0913,-1.0439,13.6015,1251,3011.14
29580,-5.302,0.8775,10.7296,1253,3011.14
29584,1.4736,3.2525,8.339,1246,3010.54
29589,2.9724,3.2657,10.6554,1243,3010.54
29594,-2.1668,-1.1205,13.6194,1254,3010.54
29600,-5.2601,0.9421,10.6638,1253,3010.54
29604,1.4964,3.1975,8.3629,1241,3010.69
29609,2.9281,3.1819,10.6698,1245,3010.69
29614,-2.1488,-1.2067,13.6577,1251,3010.69
29620,-5.2433,0.9481,10.6003,1253,3010.69
29624,1.5407,3.2896,8.418,1244,3010.39
29629,2.8826,3.14,10.7296,1245,3010.39
29634,-2.1943,-1.2605,13.629,1247,3010.39
29640,-5.1918,1.0235,10.5381,1255,3010.39
29644,1.6352,3.2142,8.345,1243,3010.54
29649,2.8778,3.0646,10.7524,1243,3010.54
29654,-2.308,-1.3312,13.6505,1251,3010.54
29660,-5.1763,1.057,10.422,1256,3010.54
29664,1.6376,3.2274,8.418,1245,3010.54
29669,2.7198,3.043,10.8589,1249,3010.54
29674,-2.4134,-1.3719,13.617,1247,3010.54
29680,-5.0685,1.1408,10.3034,1257,3010.54
29684,1.7107,3.237,8.4467,1240,3010.08
29689,2.6971,2.9473,10.9056,1239,3010.08
29694,-2.4864,-1.4772,13.5823,1243,3010.08
29700,-5.0673,1.2175,10.2963,1257,3010.08
29704,1.725,3.2681,8.4874,1245,3010.54
29709,2.5977,2.9497,11.0085,1247,3010.54
29714,-2.545,-1.5479,13.5715,1253,3010.54
29720,-4.9871,1.2677,10.1778,1259,3010.54
29724,1.7346,3.2753,8.5258,1243,3010.84
29729,2.5055,2.8575,11.0612,1247,3010.84
29734,-2.648,-1.5634,13.6338,1243,3010.84
29740,-4.9644,1.3659,10.1239,1257,3010.84
29744,1.8076,3.3567,8.5497,1247,3010.54
29749,2.4421,2.8,11.1306,1251,3010.54
29754,-2.6995,-1.6161,13.6422,1245,3010.54
29760,-4.9452,1.4006,10.0185,1257,3010.54
29764,1.7909,3.3722,8.5892,1251,3010.54
29769,2.3415,2.7725,11.218,1251,3010.54
29774,-2.7378,-1.6532,13.5739,1244,3010.54
29780,-4.8195,1.4653,9.985,1256,3010.54
29784,1.8495,3.4189,8.5569,1250,3010.23
29789,2.2709,2.6923,11.3042,1251,3010.23
29794,-2.8647,-1.6436,13.5488,1247,3010.23
29800,-4.7274,1.5371,9.9503,1251,3010.23
29804,1.8495,3.4201,8.6383,1253,3010.23
29809,2.1835,2.636,11.3749,1245,3010.23
29814,-2.8635,-1.6783,13.477,1251,3010.23
29820,-4.616,1.5874,9.7731,1247,3010.23
29824,1.9585,3.4596,8.6742,1251,3009.78
29829,2.1249,2.5869,11.3569,1250,3009.78
29834,-2.9365,-1.7142,13.5596,1246,3009.78
29840,-4.4975,1.5897,9.7229,1249,3009.78
29844,1.9836,3.4836,8.7173,1253,3010.39
29849,2.0411,2.472,11.3856,1254,3010.39
29854,-2.9856,-1.7561,13.4614,1249,3010.39
29860,-4.47,1.6448,9.6666,1243,3010.39
29864,2.0123,3.5183,8.746,1251,3010.08
29869,1.9573,2.4696,11.5041,1251,3010.08
29874,-3.0754,-1.7909,13.4877,1244,3010.08
29880,-4.3239,1.6987,9.6295,1247,3010.08
29884,2.0518,3.5291,8.7592,1245,3010.69
29889,1.8747,2.3188,11.552,1253,3010.69
29894,-3.0981,-1.8567,13.4638,1245,3010.69
29900,-4.2497,1.7298,9.4751,1251,3010.84
29904,2.0782,3.5267,8.7113,1255,3010.84
29909,1.7813,2.2661,11.6155,1255,3010.84
29914,-3.1699,-1.8842,13.4171,1245,3010.84
29920,-4.1503,1.8196,9.4415,1253,3010.84
29924,2.0566,3.565,8.7783,1244,3010.84
29929,1.579,2.1895,11.6334,1254,3010.84
29934,-3.2142,-1.8962,13.4231,1245,3010.84
29940,-4.0414,1.8328,9.4032,1253,3011.14
29944,2.0973,3.571,8.831,1245,3011.14
29949,1.4353,2.1512,11.6993,1253,3011.14
29954,-3.3411,-1.9022,13.4482,1245,3011.14
29960,-3.9385,1.8483,9.2871,1251,3011.29
29964,2.1237,3.5853,8.8178,1243,3011.29
29969,1.3168,2.0901,11.7711,1255,3011.29
29974,-3.4297,-1.9345,13.3453,1249,3011.29
29980,-3.8343,1.8986,9.2512,1253,3011.29
29984,2.0973,3.6069,8.8885,1245,3011.29
29989,1.1815,2.0674,11.8633,1255,3011.29
29994,-3.5219,-1.8986,13.3345,1251,3011.29
30000,-3.7086,1.9285,9.153,1251,3011.29
30004,2.1332,3.6368,8.8442,1252,3011.29
30009,1.0439,1.8866,11.9231,1253,3011.29
30014,-3.6188,-1.9345,13.3309,1253,3011.29
30020,-3.5662,2.0147,9.1159,1251,3010.99
30024,2.1524,3.6452,8.9196,1247,3010.99
30029,0.9182,1.9118,11.9818,1247,3010.99
30034,-3.6835,-1.8723,13.2711,1253,3010.99
30040,-3.4488,2.0435,9.0166,1251,3010.54
30044,2.1883,3.7038,9.0022,1251,3010.54
30049,0.814,1.8052,12.0668,1245,3010.54
30054,-3.6739,-1.8411,13.2603,1253,3010.54
30060,-3.3495,2.0722,8.9687,1246,3010.54
30064,2.2051,3.7733,8.9938,1253,3010.54
30069,0.7183,1.7298,12.153,1244,3010.54
30074,-3.8164,-1.8627,13.1825,1255,3010.54
30080,-3.1987,2.1225,8.9148,1247,3009.93
30084,2.2302,3.7852,9.0046,1247,3009.93
30089,0.5938,1.6688,12.2332,1245,3009.93
30094,-3.8463,-1.8579,13.1142,1255,3009.93
30100,-3.0502,2.1368,8.8382,1253,3010.84
30104,2.3104,3.8104,9.0369,1250,3010.84
30109,0.4705,1.646,12.2332,1239,3010.84
30114,-3.9002,-1.8304,13.0819,1257,3010.84
30120,-2.9125,2.1763,8.7317,1251,3010.69
30124,2.3535,3.8343,9.0621,1251,3010.69
30129,0.3543,1.5682,12.2643,1245,3010.69
30134,-3.9504,-1.834,13.1035,1260,3010.69
30140,-2.8287,2.1428,8.7257,1243,3010.99
30144,2.3272,3.8379,9.1159,1251,3010.99
30149,0.2119,1.5227,12.2906,1243,3010.99
30154,-4.0606,-1.8268,13.052,1255,3010.99
30160,-2.6635,2.2039,8.6419,1254,3010.99
30164,2.3954,3.8463,9.1387,1251,3010.99
30169,0.1197,1.4162,12.402,1244,3010.99
30174,-4.1168,-1.8244,13.0221,1252,3010.99
30180,-2.5019,2.2338,8.6155,1245,3010.39
30184,2.2865,3.8331,9.1231,1247,3010.39
30189,0.0204,1.3946,12.4822,1245,3010.39
30194,-4.1779,-1.7681,12.8856,1251,3010.39
30200,-2.4146,2.2326,8.6287,1250,3009.63
30204,2.3631,3.8259,9.2285,1246,3009.63
30209,-0.0946,1.3012,12.4941,1245,3009.63
30215,-4.2377,-1.7166,12.9203,1245,3009.63
30219,-2.2817,2.2865,8.5258,1251,3009.33
30225,2.3679,3.8128,9.244,1249,3009.33
30229,-0.182,1.2653,12.5121,1247,3009.33
30235,-4.2856,-1.6999,12.8796,1247,3009.33
30239,-2.1943,2.2948,8.5401,1247,3009.93
30245,2.3786,3.8798,9.2584,1251,3009.93
30249,-0.2897,1.1528,12.5552,1245,3009.93
30255,-4.3455,-1.6484,12.809,1249,3009.93
30259,-2.071,2.3248,8.5174,1247,3009.93
30265,2.4433,3.8906,9.2859,1251,3009.93
30269,-0.3783,1.1253,12.6438,1245,3009.93
30275,-4.4137,-1.6065,12.8162,1244,3009.93
30279,-1.9166,2.387,8.424,1251,3010.08
30285,2.4325,3.9181,9.3326,1252,3010.08
30289,-0.4465,1.0858,12.6641,1244,3010.08
30295,-4.4999,-1.5335,12.7623,1247,3010.08
30299,-1.8088,2.4253,8.3881,1260,3009.78
30305,2.4672,3.8774,9.3326,1247,3009.78
30309,-0.516,1.0439,12.7252,1243,3009.78
30315,-4.5179,-1.4892,12.7072,1249,3009.78
30319,-1.6735,2.4517,8.3342,1247,3009.78
30325,2.5331,3.9708,9.3841,1255,3009.78
30329,-0.5842,0.9816,12.7814,1241,3009.78
30335,-4.5633,-1.4557,12.7276,1247,3009.78
30340,-1.5335,2.3978,8.351,1243,3010.23
30345,2.5714,3.9648,9.3913,1247,3010.23
30349,-0.6524,0.9361,12.8221,1245,3010.23
30355,-4.6005,-1.3611,12.6953,1247,3010.23
30360,-1.4281,2.4313,8.2887,1245,3010.39
30365,2.6264,3.9552,9.3745,1248,3010.39
30369,-0.7482,0.8619,12.8844,1245,3010.39
30375,-4.6723,-1.3336,12.6031,1247,3010.39
30379,-1.2953,2.4684,8.2911,1245,3010.54
30385,2.6037,3.9504,9.4607,1244,3010.54
30389,-0.8236,0.8212,12.9694,1251,3010.54
30395,-4.7178,-1.2617,12.4929,1247,3010.54
30399,-1.1935,2.472,8.248,1247,3010.84
30405,2.6324,3.9145,9.4344,1245,3010.84
30409,-0.8559,0.7673,12.9622,1247,3010.84
30415,-4.7992,-1.221,12.4379,1251,3010.84
30419,-1.0199,2.5534,8.175,1242,3010.84
30425,2.6719,3.9289,9.5361,1247,3010.84
30429,-0.9421,0.6907,13.0759,1245,3010.84
30435,-4.8123,-1.1636,12.4403,1251,3010.84
30439,-0.8966,2.569,8.1451,1245,3010.84
30445,2.6755,3.9887,9.5433,1247,3010.84
30449,-0.9744,0.6021,13.0388,1247,3010.84
30455,-4.877,-1.087,12.4032,1251,3010.84
30459,-0.7518,2.5211,8.2408,1244,3010.84
30465,2.7246,3.9337,9.505,1244,3010.84
30469,-1.0283,0.5447,13.0915,1251,3010.84
30475,-4.9129,-1.0439,12.2966,1243,3010.84
30479,-0.6321,2.6217,8.1259,1245,3010.84
30485,2.7306,3.9301,9.6414,1241,3010.84
30489,-1.0989,0.4537,13.1801,1252,3010.84
30495,-4.9752,-1.0092,12.2882,1247,3010.84
30499,-0.5543,2.6252,8.0756,1246,3011.29
30505,2.7641,3.899,9.5888,1245,3011.29
30509,-1.16,0.4286,13.1968,1251,3011.29
30515,-5.0673,-0.8739,12.2439,1253,3011.29
30519,-0.4549,2.6324,8.1319,1244,3011.59
30525,2.7845,3.9145,9.6582,1250,3011.59
30529,-1.2031,0.2789,13.1609,1245,3011.59
30535,-5.0817,-0.7961,12.1637,1253,3011.59
30539,-0.3041,2.6504,8.1403,1243,3011.9
30545,2.8563,3.9277,9.7683,1251,3011.9
30549,-1.2354,0.2322,13.2579,1247,3011.9
30555,-5.1715,-0.6656,12.1542,1255,3011.9
30559,-0.1401,2.7019,8.1463,1245,3011.59
30565,2.8659,3.899,9.7624,1246,3011.59
30569,-1.3527,0.1724,13.2926,1244,3011.59
30575,-5.2349,-0.6081,11.9758,1255,3011.59
30579,-0.0527,2.7366,8.1535,1240,3010.99
30585,2.9245,3.8894,9.7755,1246,3010.99
30589,-1.391,0.1089,13.3776,1244,3010.99
30595,-5.2589,-0.4896,11.9519,1253,3010.99
30599,0.1006,2.7928,8.163,1243,3012.8
30604,2.9377,3.8978,9.7959,1253,3012.8
30609,-1.409,0.0455,13.3824,1244,3012.8
30615,-5.2876,-0.425,11.8369,1251,3012.8
30619,0.2251,2.8024,8.0864,1244,3011.9
30624,3.0299,3.8319,9.8773,1244,3011.9
30629,-1.47,-0.0192,13.4147,1245,3011.9
30635,-5.3091,-0.2717,11.8525,1252,3011.9
30640,0.3352,2.824,8.1223,1251,3011.59
30644,3.0179,3.8858,9.9491,1251,3011.59
30649,-1.4808,-0.0622,13.4339,1242,3011.59
30655,-5.2852,-0.2334,11.7196,1253,3011.59
30659,0.4262,2.8515,8.0948,1251,3011.9
30664,3.0598,3.8056,9.9168,1251,3011.9
30669,-1.4952,-0.1867,13.5236,1237,3011.9
30675,-5.2948,-0.1484,11.6693,1251,3011.9
30679,0.5842,2.8826,8.1151,1250,3012.05
30684,3.0466,3.7792,9.9958,1245,3012.05
30689,-1.5622,-0.2394,13.5452,1245,3012.05
30695,-5.3498,-0.0838,11.5808,1253,3012.05
30699,0.6632,2.8826,8.1104,1251,3012.2
30704,3.0179,3.7014,10.1119,1247,3012.2
30709,-1.6077,-0.3136,13.5344,1247,3012.2
30715,-5.3678,-0.0048,11.4886,1251,3012.2
30719,0.747,2.9413,8.0816,1253,3012.2
30724,3.1292,3.6895,10.155,1249,3012.2
30729,-1.6831,-0.3879,13.5356,1249,3012.2
30735,-5.369,0.1006,11.3988,1251,3012.2
30740,0.8487,2.8778,8.1068,1255,3012.5
30744,3.0969,3.6308,10.2101,1247,3012.5
30749,-1.743,-0.5495,13.5177,1251,3012.5
30755,-5.4109,0.2227,11.3353,1251,3012.5
30759,0.9266,2.9341,8.1846,1255,3012.35
30764,3.1101,3.6164,10.2472,1252,3012.35
30769,-1.7957,-0.6021,13.5679,1251,3012.35
30775,-5.4755,0.3172,11.2097,1253,3012.35
30779,0.9948,2.988,8.1918,1253,3012.35
30784,3.0897,3.5135,10.3178,1251,3012.35
30789,-1.8256,-0.7051,13.6434,1253,3012.35
30795,-5.4336,0.3831,11.1151,1253,3012.35
30799,1.1133,3.0514,8.2097,1247,3012.05
30804,3.0789,3.5362,10.3884,1247,3012.05
30809,-1.9154,-0.7913,13.6206,1243,3012.05
30815,-5.4253,0.5231,11.0995,1253,3012.05
30819,1.2043,3.0562,8.2301,1245,3011.59
30824,3.0418,3.4955,10.4399,1249,3011.59
30829,-2.0063,-0.8511,13.5548,1240,3011.59
30835,-5.4109,0.6117,11.0061,1251,3011.59
30839,1.2917,3.1053,8.2887,1251,3011.59
30844,3.055,3.45,10.5058,1251,3011.59
30849,-2.0255,-0.8906,13.6793,1246,3011.59
30855,-5.4073,0.7099,10.9499,1255,3011.59
30859,1.3168,3.1005,8.2995,1244,3012.05
30864,2.988,3.4069,10.5656,1249,3012.05
30869,-2.0925,-0.9804,13.6661,1245,3012.05
30875,-5.3427,0.7961,10.8553,1247,3012.05
30879,1.3791,3.1484,8.3258,1251,3012.05
30884,3.0047,3.3495,10.5991,1250,3012.05
30889,-2.1332,-1.0199,13.623,1247,3012.05
30895,-5.3271,0.8559,10.7404,1251,3012.05
30900,1.4664,3.2094,8.345,1247,3011.75
30904,2.9425,3.2262,10.6638,1247,3011.75
30909,-2.1428,-1.1349,13.6314,1251,3011.75
30915,-5.2589,0.9254,10.6315,1246,3011.75
30919,1.5311,3.2274,8.3498,1247,3011.9
30924,2.9604,3.2262,10.7476,1243,3011.9
30929,-2.2865,-1.1588,13.6721,1247,3011.9
30935,-5.2445,0.996,10.5644,1251,3011.9
30939,1.5826,3.1999,8.345,1247,3012.35
30944,2.9365,3.1388,10.7069,1241,3012.35
30949,-2.3367,-1.2677,13.5943,1247,3012.35
30955,-5.1691,1.0762,10.5046,1251,3012.35
30960,1.6472,3.2489,8.4539,1247,3012.5
30964,2.8706,3.0945,10.8445,1245,3012.5
30969,-2.393,-1.3934,13.6003,1250,3012.5
30975,-5.138,1.1181,10.3238,1255,3012.5
30979,1.7454,3.2477,8.4467,1246,3012.8
30984,2.7964,2.9712,10.8816,1243,3012.8
30989,-2.4852,-1.4497,13.6374,1247,3012.8
30995,-5.0613,1.245,10.2903,1255,3012.8
30999,1.749,3.2884,8.4815,1245,3012.8
31004,2.6228,2.9245,11.0361,1247,3012.8
31009,-2.5953,-1.5299,13.5979,1245,3012.8
31015,-5.0147,1.2893,10.173,1255,3012.8
31019,1.7992,3.2992,8.4958,1244,3012.8
31024,2.5798,2.8479,11.0756,1245,3012.8
31029,-2.7066,-1.6412,13.6122,1245,3012.8
31035,-4.8997,1.3659,10.1155,1251,3012.8
31039,1.8196,3.3615,8.5018,1245,3013.26
31044,2.4361,2.7916,11.2049,1249,3013.26
31049,-2.8264,-1.6795,13.5524,1243,3013.26
31055,-4.8291,1.4353,10.0054,1257,3013.26
31059,1.8531,3.3686,8.5712,1247,3012.65
31064,2.3128,2.6935,11.2827,1250,3012.65
31069,-2.8982,-1.7023,13.6745,1243,3012.65
31075,-4.6974,1.4952,9.8641,1257,3012.65
31079,1.8998,3.3998,8.5916,1247,3012.2
31084,2.1679,2.6444,11.3449,1253,3012.2
31089,-2.9209,-1.7023,13.5572,1245,3012.2
31095,-4.6268,1.5754,9.7588,1256,3012.2
31099,1.9237,3.4692,8.6646,1251,3012.35
31104,2.0794,2.5486,11.4479,1251,3012.35
31109,-2.9975,-1.7107,13.5272,1246,3012.35
31115,-4.5909,1.6293,9.7683,1251,3012.35
31119,1.9273,3.4872,8.6862,1251,3012.8
31124,1.9848,2.478,11.473,1246,3012.8
31129,-3.0933,-1.7813,13.4853,1245,3012.8
31135,-4.4221,1.7178,9.6235,1251,3012.8
31139,2.0315,3.4967,8.679,1253,3012.5
31144,1.895,2.4205,11.5915,1237,3012.5
31149,-3.1627,-1.7873,13.4794,1247,3012.5
31155,-4.3407,1.7717,9.5397,1251,3012.5
31159,2.077,3.5614,8.7257,1251,3012.8
31164,1.7717,2.3523,11.6274,1251,3012.8
31169,-3.2789,-1.8651,13.4674,1246,3012.8
31175,-4.1755,1.8124,9.4906,1252,3012.8
31179,2.0901,3.5913,8.8023,1253,3011.9
31184,1.646,2.2386,11.6131,1253,3011.9
31189,-3.2633,-1.8663,13.4147,1251,3011.9
31195,-4.0462,1.8471,9.3242,1252,3011.9
31199,2.1452,3.6117,8.7771,1247,3012.05
31204,1.47,2.1859,11.716,1253,3012.05
31209,-3.383,-1.9273,13.3561,1244,3012.05
31215,-3.9133,1.8723,9.3386,1253,3011.59
31219,2.1404,3.6081,8.8813,1247,3011.59
31224,1.3551,2.0674,11.7867,1255,3011.59
31229,-3.4297,-1.9477,13.3249,1244,3011.59
31235,-3.7673,1.913,9.2141,1245,3011.75
31239,2.1608,3.6607,8.8933,1247,3011.75
31244,1.2306,1.9812,11.8585,1254,3011.75
31249,-3.5015,-1.9477,13.3106,1246,3011.75
31255,-3.614,1.9429,9.147,1257,3012.65
31259,2.2087,3.6308,8.9136,1247,3012.65
31264,1.0834,1.8783,11.9243,1256,3012.65
31269,-3.5458,-1.9609,13.3429,1250,3012.65
31275,-3.5662,1.968,9.1219,1251,3012.05
31279,2.15,3.6392,8.9076,1245,3012.05
31284,0.8978,1.8316,11.959,1257,3012.05
31289,-3.7362,-1.9656,13.2507,1255,3012.05
31295,-3.371,2.0363,9.0034,1251,3011.59
31299,2.2458,3.7218,8.9411,1246,3011.59
31304,0.7482,1.7633,12.0704,1253,3011.59
31309,-3.7685,-1.9285,13.2459,1251,3011.59
31315,-3.286,2.0638,8.9519,1251,3011.14
31319,2.1931,3.7218,8.9974,1251,3011.14
31324,0.5782,1.7262,12.1482,1251,3011.14
31329,-3.8678,-1.8759,13.1992,1251,3011.14
31335,-3.1424,2.1536,8.9531,1245,3012.05
31339,2.217,3.7577,9.0513,1251,3012.05
31344,0.4369,1.6448,12.2032,1247,3012.05
31349,-3.978,-1.8567,13.1609,1253,3012.05
31355,-2.982,2.2015,8.7795,1249,3011.44
31359,2.2865,3.7924,9.0561,1253,3011.44
31364,0.3579,1.5993,12.2787,1246,3011.44
31369,-4.0306,-1.8004,13.0951,1251,3011.44
31375,-2.8264,2.1703,8.7149,1245,3011.59
31379,2.314,3.8367,9.1195,1253,3011.59
31384,0.1963,1.5371,12.305,1245,3011.59
31389,-4.0965,-1.7921,13.125,1253,3011.59
31395,-2.6815,2.2194,8.752,1250,3011.29
31399,2.3679,3.8547,9.1147,1246,3011.29
31404,0.1712,1.4545,12.3996,1246,3011.29
31409,-4.1096,-1.7765,13.0209,1241,3011.29
31415,-2.4876,2.2601,8.6347,1251,3011.14
31419,2.3619,3.8702,9.177,1255,3011.14
31424,0.0132,1.4066,12.4463,1245,3011.14
31429,-4.2042,-1.7166,13.0221,1253,3011.14
31435,-2.3631,2.2505,8.5748,1247,3010.69
31439,2.4361,3.8463,9.2249,1255,3010.69
31444,-0.0611,1.3216,12.5169,1245,3010.69
31450,-4.2174,-1.7334,12.9287,1255,3010.69
31454,-2.2015,2.3272,8.5377,1251,3011.14
31460,2.4672,3.8487,9.2093,1251,3011.14
31464,-0.1927,1.2809,12.5839,1247,3011.14
31470,-4.2294,-1.6831,12.894,1247,3011.14
31475,-2.0901,2.2889,8.4683,1253,3010.99
31480,2.4744,3.9073,9.2045,1251,3010.99
31484,-0.2705,1.1301,12.5348,1245,3010.99
31490,-4.3706,-1.6496,12.8126,1245,3010.99
31494,-1.9944,2.2984,8.4013,1247,3011.29
31500,2.4648,3.887,9.3134,1251,3011.29
31504,-0.4154,1.1444,12.6402,1247,3011.29
31510,-4.452,-1.5909,12.7515,1249,3011.29
31514,-1.822,2.3272,8.3953,1254,3010.84
31520,2.4828,3.8511,9.2596,1251,3010.84
31524,-0.4681,1.0511,12.6869,1246,3010.84
31530,-4.5238,-1.5215,12.7252,1240,3010.84
31534,-1.749,2.3715,8.4252,1247,3010.23
31540,2.4696,3.8798,9.3446,1253,3010.23
31544,-0.571,1.0319,12.7731,1245,3010.23
31550,-4.5801,-1.5143,12.6689,1241,3010.23
31554,-1.5957,2.4146,8.3426,1249,3009.93
31560,2.5367,3.9085,9.408,1245,3009.93
31564,-0.6309,0.9804,12.7695,1244,3009.93
31570,-4.634,-1.4234,12.5971,1243,3009.93
31574,-1.4712,2.4576,8.3175,1245,3009.93
31580,2.5319,3.9612,9.4487,1251,3009.93
31584,-0.7338,0.9086,12.8605,1244,3009.93
31590,-4.6843,-1.336,12.615,1242,3009.93
31594,-1.3599,2.4505,8.3246,1247,3009.63
31600,2.5414,3.9504,9.4176,1255,3009.63
31604,-0.8021,0.8224,12.9251,1245,3009.63
31610,-4.7393,-1.3096,12.5923,1245,3009.63
31614,-1.2151,2.5163,8.345,1245,3009.48
31620,2.6372,3.9624,9.414,1255,3009.48
31624,-0.8332,0.8056,12.9466,1243,3009.48
31630,-4.7465,-1.251,12.5253,1243,3009.48
31634,-1.1037,2.5283,8.272,1245,3009.03
31640,2.642,3.9624,9.4367,1251,3009.03
31644,-0.917,0.7542,12.9646,1243,3009.03
31650,-4.7908,-1.1648,12.5181,1240,3009.03
31654,-0.9948,2.557,8.2492,1244,3008.88
31660,2.6851,3.9744,9.493,1251,3008.88
31664,-0.996,0.6955,12.9873,1244,3008.88
31670,-4.8351,-1.1001,12.4379,1245,3008.88
31674,-0.9469,2.5223,8.2193,1241,3009.03
31680,2.7007,3.9923,9.5385,1246,3009.03
31684,-1.0116,0.6608,13.0125,1245,3009.03
31690,-4.8339,-1.0762,12.378,1245,3009.03
31694,-0.7805,2.5558,8.1846,1243,3008.73
31700,2.7605,3.9456,9.5313,1247,3008.73
31704,-1.0319,0.6225,13.052,1251,3008.73
31710,-4.9225,-1.0211,12.3481,1247,3008.73
31714,-0.6979,2.5462,8.1582,1243,3008.57
31720,2.7533,3.9301,9.5996,1250,3008.57
31724,-1.0786,0.565,13.113,1245,3008.57
31730,-4.9213,-0.978,12.2176,1244,3008.57
31734,-0.6273,2.6181,8.1702,1243,3008.42
31740,2.7665,3.8966,9.6055,1249,3008.42
31744,-1.0786,0.492,13.1346,1247,3008.42
31750,-4.9656,-0.9541,12.2392,1243,3008.42
31754,-0.5183,2.6169,8.1451,1245,3008.27
31760,2.8012,3.8894,9.6666,1246,3008.27
31764,-1.148,0.4381,13.125,1251,3008.27
31770,-5.0147,-0.8751,12.1901,1245,3008.27
31774,-0.4381,2.6755,8.1379,1244,3007.97
31780,2.7605,3.9456,9.7205,1247,3007.97
31784,-1.1744,0.3651,13.1549,1247,3007.97
31790,-5.0721,-0.8523,12.147,1235,3007.97
31794,-0.3687,2.6707,8.1295,1245,3007.37
31800,2.7857,3.9289,9.7025,1245,3007.37
31804,-1.257,0.3089,13.1442,1251,3007.37
31810,-5.0949,-0.7649,12.1171,1245,3007.37
31814,-0.261,2.6348,8.1307,1245,3007.07
31820,2.8204,3.9421,9.7516,1245,3007.07
31824,-1.2737,0.2849,13.2555,1251,3007.07
31830,-5.1044,-0.7278,12.0608,1247,3007.07
31834,-0.2274,2.6635,8.1702,1246,3006.92
31840,2.8,3.9301,9.754,1246,3006.92
31844,-1.2761,0.2897,13.2232,1252,3006.92
31850,-5.1296,-0.6548,12.0464,1253,3006.92
31854,-0.1448,2.7378,8.2121,1246,3006.61
31860,2.8479,3.9037,9.8689,1244,3006.61
31864,-1.3144,0.2322,13.2818,1251,3006.61
31870,-5.1679,-0.5686,11.9734,1253,3006.61
31874,-0.0802,2.715,8.1092,1240,3006.61
31880,2.879,3.8678,9.8234,1246,3006.61
31884,-1.3551,0.1437,13.2088,1250,3006.61
31890,-5.1583,-0.5076,12.0045,1251,3006.61
31894,0.0347,2.7749,8.1618,1247,3006.61
31899,2.8551,3.881,9.8414,1247,3006.61
31904,-1.3611,0.146,13.2639,1251,3006.61
31910,-5.1188,-0.4633,11.886,1252,3006.61
31914,0.097,2.7749,8.1092,1245,3006.77
31919,2.9233,3.8702,9.8713,1241,3006.77
31924,-1.336,0.1125,13.3357,1249,3006.77
31930,-5.2337,-0.4298,11.8525,1253,3006.77
31934,0.2011,2.8395,8.1355,1245,3006.46
31939,2.9293,3.8666,9.8569,1253,3006.46
31944,-1.3635,0.0192,13.3824,1247,3006.46
31950,-5.2026,-0.4202,11.7879,1255,3006.46
31954,0.2083,2.7821,8.1463,1245,3007.07
31959,2.9592,3.8176,9.9599,1247,3007.07
31964,-1.4006,-0.0263,13.3991,1243,3007.07
31970,-5.2098,-0.3759,11.8154,1253,3007.07
31974,0.3304,2.8096,8.0996,1241,3007.52
31979,2.9844,3.8415,9.9323,1253,3007.52
31984,-1.4305,-0.1173,13.3596,1245,3007.52
31990,-5.2637,-0.2705,11.6885,1251,3007.52
31994,0.3903,2.8551,8.1499,1243,3007.52
31999,2.9604,3.8128,10.003,1245,3007.52
32004,-1.4413,-0.1425,13.3728,1241,3007.52
32010,-5.3283,-0.237,11.6753,1253,3007.52
32014,0.425,2.8096,8.1822,1243,3007.52
32019,2.9963,3.7517,10.0126,1254,3007.52
32024,-0.9337,0.7542,13.0245,1243,3007.52
32030,-5.302,-0.1951,11.6478,1253,3007.52
32034,-0.9972,2.545,8.2971,1245,3007.22
32040,2.9509,3.7493,10.0521,1247,3007.22
32044,-0.9996,0.6776,12.9921,1241,3007.22
32050,-5.3546,-0.1448,11.5664,1247,3007.22
32054,-0.9325,2.5774,8.2313,1247,3006.46
32060,2.6612,3.9456,9.6127,1247,3006.46
32064,-1.0116,0.6548,12.9514,1244,3006.46
32070,-4.8279,-1.0822,12.3984,1254,3006.46
32075,-0.8571,2.5869,8.2289,1248,3006.31
32080,2.6971,3.9971,9.6343,1242,3006.31
32084,-1.0666,0.5974,12.9502,1257,3006.31
32090,-4.8698,-1.0211,12.3194,1252,3006.31
32094,-0.7829,2.5642,8.2241,1251,3006.77
32100,2.7066,3.9828,9.596,1252,3006.77
32104,-1.0666,0.6141,13.0723,1247,3006.77
32110,-4.9237,-0.9708,12.2583,1252,3006.77
32114,-0.6776,2.6133,8.2145,1251,3006.92
32120,2.7378,3.9397,9.651,1252,3006.92
32124,-1.1073,0.5279,13.0999,1245,3006.92
32130,-4.9093,-0.9493,12.1793,1251,3006.92
32134,-0.5974,2.6576,8.1714,1251,3007.07
32140,2.7426,3.948,9.6462,1251,3007.07
32144,-1.069,0.4501,13.0723,1241,3007.07
32150,-4.9273,-0.893,12.1769,1247,3007.07
32154,-0.5136,2.6624,8.1918,1255,3007.07
32160,2.7246,3.9516,9.6654,1246,3007.07
32164,-1.0906,0.3831,13.0939,1247,3007.07
32170,-4.9799,-0.8882,12.2032,1244,3007.07
32174,-0.3962,2.6336,8.1798,1253,3007.52
32180,2.7857,3.948,9.6965,1250,3007.52
32184,-1.1552,0.3484,13.1789,1247,3007.52
32190,-5.0386,-0.8392,12.123,1246,3007.52
32194,-0.3448,2.7174,8.1918,1253,3007.82
32200,2.7653,3.9133,9.6893,1246,3007.82
32204,-1.1756,0.2861,13.1633,1246,3007.82
32210,-5.0721,-0.7829,12.0584,1247,3007.82
32214,-0.3065,2.7066,8.1965,1255,3007.82
32220,2.7545,3.8978,9.7683,1254,3007.82
32224,-1.2222,0.2717,13.2579,1251,3007.82
32230,-5.1296,-0.7482,12.0141,1247,3007.82
32234,-0.2083,2.7054,8.1259,1255,3007.97
32240,2.788,3.8702,9.7636,1251,3007.97
32244,-1.245,0.2394,13.2196,1248,3007.97
32250,-5.1942,-0.6931,11.9806,1235,3007.97
32254,-0.1257,2.7138,8.1918,1256,3007.67
32260,2.8311,3.8654,9.839,1253,3007.67
32264,-1.3096,0.1592,13.2483,1247,3007.67
32270,-5.2038,-0.5997,12.0357,1245,3007.67
32274,-0.0694,2.7007,8.1977,1253,3007.52
32280,2.8419,3.8918,9.8521,1251,3007.52
32284,-1.3431,0.1365,13.2435,1247,3007.52
32290,-5.2146,-0.486,11.9758,1252,3007.52
32294,0.0527,2.7629,8.163,1247,3007.07
32299,2.8575,3.8858,9.8725,1253,3007.07
32304,-1.3551,0.091,13.2723,1243,3007.07
32310,-5.2589,-0.4441,11.8657,1250,3007.07
32314,0.1185,2.7892,8.1882,1255,3006.92
32319,2.8874,3.9014,9.8821,1253,3006.92
32324,-1.4018,0.0982,13.3573,1251,3006.92
32330,-5.2206,-0.3998,11.8226,1251,3006.92
32334,0.2023,2.8216,8.2073,1250,3007.22
32339,2.9125,3.8702,9.8509,1251,3007.22
32344,-1.4066,0.0383,13.3345,1246,3007.22
32350,-5.2469,-0.3029,11.7507,1251,3007.22
32354,0.2861,2.8587,8.1762,1247,3007.37
32359,2.9485,3.8427,9.9563,1247,3007.37
32364,-1.4617,-0.0503,13.4063,1245,3007.37
32370,-5.2301,-0.249,11.7555,1251,3007.37
32374,0.3496,2.8778,8.1008,1244,3007.67
32379,2.9509,3.8439,9.9383,1247,3007.67
32384,-1.4437,-0.0934,13.38,1244,3007.67
32390,-5.266,-0.2586,11.6981,1247,3007.67
32394,0.4357,2.8862,8.1523,1241,3007.82
32399,2.9832,3.8152,9.9982,1267,3007.82
32404,-1.4557,-0.1341,13.4219,1245,3007.82
32410,-5.3079,-0.1856,11.6322,1246,3007.82
32414,0.4669,2.8922,8.1451,1244,3007.37
32419,2.9916,3.7613,9.991,1251,3007.37
32424,-1.421,-0.1867,13.3944,1239,3007.37
32430,-5.3355,-0.1712,11.558,1245,3007.37
32434,0.571,2.8563,8.2037,1250,3007.82
32439,2.9509,3.7385,10.0413,1251,3007.82
32444,-1.5071,-0.3077,13.3429,1247,3007.82
32450,-5.3175,-0.1844,11.5185,1245,3007.82
32454,0.5902,2.8659,8.1894,1245,3007.97
32459,3.0083,3.7326,10.1059,1251,3007.97
32464,-1.5455,-0.3232,13.4075,1247,3007.97
32470,-5.3929,-0.0371,11.5149,1245,3007.97
32474,0.6656,2.9006,8.2277,1244,3007.97
32479,2.9796,3.6931,10.1299,1245,3007.97
32484,-1.567,-0.3879,13.4458,1247,3007.97
32490,-5.4049,0.073,11.4215,1250,3007.97
32494,0.7446,2.9233,8.2456,1245,3008.27
32499,2.9832,3.6703,10.1706,1245,3008.27
32504,-1.6101,-0.4585,13.4889,1251,3008.27
32510,-5.4013,0.1137,11.4012,1245,3008.27
32514,0.7985,2.9521,8.3187,1245,3007.97
32519,2.958,3.6679,10.1478,1251,3007.97
32524,-1.6712,-0.5447,13.5057,1246,3007.97
32530,-5.4253,0.1939,11.3114,1246,3007.97
32534,0.8763,3.0095,8.3127,1259,3008.12
32539,2.9341,3.6643,10.2436,1246,3008.12
32544,-1.7178,-0.5243,13.5512,1250,3008.12
32550,-5.3822,0.261,11.2779,1247,3008.12
32554,0.9254,3.0299,8.2815,1246,3007.97
32559,2.9951,3.6536,10.2975,1245,3007.97
32564,-1.7382,-0.5818,13.5416,1251,3007.97
32570,-5.4109,0.3388,11.2527,1251,3007.97
32574,1.0187,3.0921,8.3163,1245,3007.82
32579,3.0442,3.6129,10.319,1246,3007.82
32584,-1.749,-0.6584,13.6098,1245,3007.82
32590,-5.3582,0.3938,11.1905,1252,3007.82
32594,1.0858,3.067,8.2815,1243,3007.97
32599,3.0275,3.6081,10.3585,1247,3007.97
32604,-1.7873,-0.6919,13.6338,1250,3007.97
32610,-5.375,0.4621,11.1223,1253,3007.97
32614,1.1193,3.122,8.3199,1246,3008.27
32619,3.0155,3.5506,10.3597,1244,3008.27
32624,-1.8148,-0.7099,13.5703,1250,3008.27
32630,-5.3283,0.4717,10.9918,1254,3008.27
32634,1.1851,3.1005,8.2851,1247,3008.12
32639,3.0263,3.4728,10.392,1247,3008.12
32644,-1.8387,-0.814,13.5284,1245,3008.12
32650,-5.3103,0.5028,10.9654,1255,3008.12
32654,1.2186,3.1041,8.3031,1246,3007.97
32659,3.0323,3.4608,10.4663,1247,3007.97
32664,-1.8687,-0.8655,13.5392,1245,3007.97
32670,-5.3235,0.5722,10.8996,1255,3007.97
32674,1.2737,3.0765,8.3055,1247,3007.97
32679,3.0263,3.4093,10.4794,1247,3007.97
32684,-1.8986,-0.9505,13.5715,1245,3007.97
32690,-5.3355,0.6129,10.8948,1255,3007.97
32694,1.2833,3.1101,8.3402,1244,3007.52
32699,2.9509,3.3423,10.5656,1247,3007.52
32704,-1.9489,-1.0259,13.55,1246,3007.52
32710,-5.3367,0.7123,10.8266,1256,3007.52
32714,1.3551,3.1304,8.3905,1240,3007.22
32719,2.8994,3.2477,10.6039,1251,3007.22
32724,-2.0004,-1.0977,13.5799,1245,3007.22
32730,-5.3103,0.741,10.744,1258,3007.22
32734,1.3815,3.1783,8.3989,1245,3007.22
32739,2.8671,3.3519,10.6554,1251,3007.22
32744,-2.0889,-1.1253,13.6074,1243,3007.22
32750,-5.3079,0.7949,10.7188,1257,3007.22
32754,1.4293,3.2142,8.4719,1247,3007.52
32759,2.812,3.2908,10.6434,1255,3007.52
32764,-2.0782,-1.172,13.5751,1246,3007.52
32770,-5.2876,0.899,10.7009,1257,3007.52
32774,1.4629,3.2525,8.4839,1251,3007.37
32779,2.8084,3.2645,10.7081,1253,3007.37
32784,-2.1129,-1.1827,13.617,1243,3007.37
32790,-5.2541,0.9313,10.5908,1255,3007.37
32794,1.4712,3.2501,8.4683,1246,3007.37
32799,2.7581,3.2298,10.7141,1247,3007.37
32804,-2.1488,-1.2043,13.5703,1245,3007.37
32810,-5.2349,0.9852,10.5656,1254,3007.37
32814,1.5083,3.3172,8.5114,1247,3007.67
32819,2.7234,3.1939,10.7212,1250,3007.67
32824,-2.1452,-1.1947,13.6003,1245,3007.67
32830,-5.2122,1.0499,10.5321,1255,3007.67
32834,1.5718,3.3674,8.509,1251,3007.52
32839,2.727,3.1496,10.7943,1245,3007.52
32844,-2.1512,-1.2773,13.5057,1245,3007.52
32850,-5.1535,1.0894,10.4435,1252,3007.52
32854,1.6281,3.3435,8.491,1255,3008.57
32859,2.7354,3.0837,10.8146,1251,3008.57
32864,-2.2242,-1.3527,13.5811,1247,3008.57
32870,-5.1499,1.1384,10.3765,1252,3008.57
32874,1.6723,3.3315,8.5533,1252,3008.12
32879,2.739,3.0299,10.8709,1245,3008.12
32884,-2.217,-1.3958,13.5332,1247,3008.12
32890,-5.0913,1.1121,10.3034,1251,3008.12
32894,1.6723,3.3375,8.5653,1253,3008.27
32899,2.6181,2.9521,10.8864,1245,3008.27
32904,-2.3128,-1.488,13.5584,1245,3008.27
32910,-5.0458,1.1708,10.2771,1245,3008.27
32914,1.6723,3.3806,8.5617,1253,3007.97
32919,2.5654,2.8994,10.8721,1253,3007.97
32924,-2.3715,-1.5371,13.5751,1245,3007.97
32930,-4.9967,1.2115,10.1778,1247,3007.97
32934,1.6843,3.3267,8.6072,1245,3007.37
32939,2.49,2.8754,10.975,1253,3007.37
32944,-2.4361,-1.5874,13.5655,1243,3007.37
32950,-4.9656,1.2462,10.149,1247,3007.37
32954,1.743,3.3291,8.5353,1253,3006.61
32959,2.4325,2.8168,11.0085,1255,3006.61
32964,-2.4995,-1.6245,13.5596,1245,3006.61
32970,-4.8674,1.3324,10.1706,1251,3006.61
32974,1.7047,3.3782,8.6227,1251,3006.01
32979,2.3044,2.8252,11.0959,1255,3006.01
32984,-2.5821,-1.5921,13.538,1244,3006.01
32990,-4.8746,1.3898,10.1131,1251,3006.01
32994,1.7538,3.401,8.6455,1251,3006.01
32999,2.296,2.8299,11.1259,1257,3006.01
33004,-2.5893,-1.6352,13.5344,1245,3006.01
33010,-4.8435,1.4389,10.0437,1251,3005.56
33014,1.7442,3.4548,8.6682,1250,3005.56
33019,2.2314,2.7689,11.1438,1257,3005.56
33024,-2.6348,-1.6041,13.5296,1244,3005.56
33030,-4.7908,1.4581,9.9778,1250,3006.16
33034,1.7957,3.4728,8.6957,1245,3006.16
33039,2.1823,2.7078,11.1857,1255,3006.16
33044,-2.6552,-1.5969,13.5009,1245,3006.16
33050,-4.7417,1.5179,9.9407,1251,3005.86
33054,1.8483,3.5147,8.6933,1245,3005.86
33059,2.1943,2.6731,11.2659,1255,3005.86
33064,-2.6779,-1.6628,13.4327,1237,3005.86
33070,-4.6855,1.5048,9.8653,1247,3005.71
33074,1.8591,3.5171,8.7364,1245,3005.71
33079,2.1608,2.6647,11.2659,1255,3005.71
33084,-2.6707,-1.7071,13.4554,1243,3005.71
33090,-4.6076,1.5826,9.8462,1253,3006.16
33094,1.9261,3.5159,8.6742,1243,3006.16
33099,2.138,2.5726,11.2683,1257,3006.16
33104,-2.7473,-1.7166,13.5141,1245,3006.16
33110,-4.549,1.5502,9.7815,1253,3006.31
33114,1.8938,3.5362,8.7652,1247,3006.31
33119,2.0435,2.5367,11.3114,1256,3006.31
33124,-2.7569,-1.7298,13.5201,1243,3006.31
33130,-4.4724,1.5455,9.73,1251,3006.31
33134,1.9692,3.5027,8.752,1243,3006.31
33139,1.974,2.4612,11.3318,1257,3006.31
33144,-2.8407,-1.822,13.4363,1246,3006.31
33150,-4.476,1.5754,9.7157,1247,3006.46
33154,1.9357,3.4884,8.7484,1247,3006.46
33159,1.9345,2.4421,11.3964,1253,3006.46
33164,-2.8395,-1.8459,13.441,1250,3006.46
33170,-4.3814,1.6065,9.6905,1249,3005.41
33174,1.9082,3.4788,8.8107,1245,3005.41
33179,1.8232,2.4241,11.4395,1253,3005.41
33184,-2.9173,-1.8483,13.4207,1251,3005.41
33190,-4.3886,1.6305,9.657,1246,3006.31
33194,1.9034,3.4812,8.7963,1247,3006.31
33199,1.7071,2.3607,11.3964,1255,3006.31
33204,-2.9688,-1.8483,13.4111,1252,3006.31
33210,-4.3287,1.6352,9.5768,1247,3005.41
33214,1.8806,3.5314,8.8909,1245,3005.41
33219,1.67,2.3727,11.473,1255,3005.41
33224,-3.0263,-1.8663,13.465,1255,3005.41
33230,-4.294,1.7442,9.5816,1251,3005.26
33234,1.9142,3.5626,8.8466,1245,3005.26
33239,1.6113,2.3224,11.4874,1255,3005.26
33244,-3.0502,-1.828,13.4183,1253,3005.26
33250,-4.227,1.7789,9.5756,1247,3005.26
33254,1.913,3.5578,8.8562,1245,3005.26
33259,1.6125,2.3463,11.576,1256,3005.26
33264,-3.1005,-1.8411,13.3704,1253,3005.26
33270,-4.1671,1.8244,9.499,1249,3005.11
33274,1.9405,3.6176,8.8406,1251,3005.11
33279,1.4868,2.2817,11.5748,1253,3005.11
33284,-3.1005,-1.8172,13.3489,1253,3005.11
33290,-4.0929,1.8184,9.4511,1247,3004.96
33294,2.0111,3.6332,8.9136,1247,3004.96
33299,1.4712,2.2613,11.6442,1251,3004.96
33304,-3.1268,-1.8507,13.3872,1254,3004.96
33310,-4.0294,1.8208,9.3889,1244,3004.96
33314,2.0279,3.6452,8.8897,1249,3004.96
33319,1.4329,2.1715,11.6262,1247,3004.96
33324,-3.1532,-1.8986,13.362,1255,3004.96
33330,-3.9756,1.8208,9.3877,1245,3005.71
33334,2.059,3.6655,8.8705,1247,3005.71
33339,1.3874,2.1261,11.631,1243,3005.71
33344,-3.1843,-1.8914,13.3166,1253,3005.71
33350,-3.9193,1.822,9.3338,1245,3005.86
33354,2.0662,3.6392,8.8957,1253,3005.86
33359,1.3491,2.1045,11.7005,1245,3005.86
33364,-3.1819,-1.9178,13.2782,1255,3005.86
33370,-3.8451,1.8663,9.3087,1245,3005.71
33374,2.1069,3.614,8.9364,1251,3005.71
33379,1.3072,2.0267,11.7005,1245,3005.71
33384,-3.2932,-1.974,13.2818,1253,3005.71
33390,-3.7637,1.8735,9.2488,1245,3006.46
33394,2.0877,3.6476,8.9447,1253,3006.46
33399,1.1839,2.0327,11.6861,1247,3006.46
33404,-3.3698,-1.9932,13.283,1257,3006.46
33410,-3.7601,1.8723,9.2488,1251,3006.31
33414,2.0339,3.626,8.9974,1252,3006.31
33419,1.0654,1.9609,11.7567,1245,3006.31
33424,-3.3758,-1.9573,13.2459,1255,3006.31
33430,-3.705,1.9513,9.2261,1253,3006.16
33434,2.0327,3.6703,9.0094,1251,3006.16
33439,0.9828,2.0123,11.8453,1247,3006.16
33444,-3.4752,-1.9465,13.2375,1256,3006.16
33450,-3.6248,1.98,9.1973,1246,3006.01
33454,2.0446,3.6619,9.019,1253,3006.01
33459,0.905,1.9046,11.91,1246,3006.01
33464,-3.4967,-1.9609,13.2423,1252,3006.01
33470,-3.5362,2.0016,9.1423,1251,3005.71
33474,2.0494,3.7433,9.0609,1253,3005.71
33479,0.8452,1.9225,11.9363,1243,3005.71
33484,-3.547,-1.8914,13.2399,1249,3005.71
33490,-3.4919,2.0746,9.1231,1251,3006.61
33494,2.0722,3.729,9.0872,1251,3006.61
33499,0.7961,1.816,11.898,1251,3006.61
33504,-3.5602,-1.8866,13.2172,1255,3006.61
33510,-3.3603,2.0973,9.0333,1251,3006.16
33514,2.1751,3.796,9.0908,1251,3006.16
33519,0.7314,1.8016,11.9542,1249,3006.16
33524,-3.5997,-1.8639,13.1454,1251,3006.16
33530,-3.2801,2.0734,9.0154,1247,3006.01
33534,2.1859,3.8199,9.0166,1247,3006.01
33539,0.6345,1.7693,11.9926,1245,3006.01
33544,-3.5853,-1.8687,13.1561,1247,3006.01
33550,-3.2154,2.1045,8.9866,1251,3005.41
33554,2.2039,3.7936,9.0908,1247,3005.41
33559,0.6129,1.7023,12.0536,1245,3005.41
33564,-3.6416,-1.8926,13.0664,1246,3005.41
