timestamp_ms,ax,ay,az,acs_adc,rpm
11749,-0.5183,1.5455,11.5616,1446,2854.29
11754,-2.636,-1.4222,12.3014,1455,2854.29
11759,-3.4046,1.7753,9.4116,1483,2854.42
11764,1.585,3.5063,10.1394,1449,2854.42
11769,1.2881,2.3667,11.1606,1455,2854.42
11774,-1.8124,-1.2857,12.3996,1449,2854.42
11779,-4.3179,1.1456,9.9838,1461,2854.42
11784,1.1157,3.1699,9.8138,1459,2854.7
11789,2.3056,3.0909,10.8888,1447,2854.7
11794,-1.3671,-0.6093,12.3984,1445,2854.7
11799,-4.5083,0.3412,10.7344,1454,2854.7
11804,0.2646,2.7833,9.4475,1466,2854.56
11809,2.3272,3.6787,10.5441,1449,2854.56
11814,-1.6017,0.2143,12.2188,1449,2854.56
11819,-4.3179,-0.4417,11.4479,1459,2854.56
11824,-0.8116,2.6109,9.2392,1467,2854.83
11829,2.0566,3.9947,10.4519,1451,2854.83
11834,-1.5862,1.0343,11.9016,1453,2854.83
11839,-3.547,-1.0068,11.9758,1451,2854.83
11844,-2.1632,2.2362,9.1195,1479,2854.7
11849,1.9632,3.8271,10.3094,1455,2854.7
11854,-0.4405,1.6652,11.4754,1452,2854.7
11859,-2.4828,-1.476,12.2655,1459,2854.7
11864,-3.4584,1.6843,9.4727,1487,2854.97
11869,1.5778,3.4165,10.0975,1447,2854.97
11874,1.3539,2.3308,11.1354,1452,2854.97
11879,-1.7418,-1.3934,12.4451,1449,2854.97
11884,-4.3431,1.0451,10.0461,1459,2854.97
11889,1.0403,3.1244,9.8114,1465,2855.24
11894,2.247,3.1603,10.8685,1449,2855.24
11899,-1.4222,-0.5291,12.4235,1449,2855.24
11904,-4.5442,0.3675,10.8278,1451,2855.24
11909,0.2562,2.8683,9.414,1481,2855.38
11914,2.3212,3.7326,10.5369,1447,2855.38
11919,-1.634,0.3017,12.1661,1449,2855.38
11924,-4.1731,-0.4405,11.4491,1459,2855.38
11929,-0.9062,2.5546,9.153,1481,2855.92
11934,2.0758,3.8786,10.3848,1447,2855.92
11939,-1.5,0.9924,11.8501,1451,2855.92
11944,-3.4919,-1.1779,11.9866,1453,2855.92
11949,-2.2446,2.1548,9.1506,1480,2856.46
11954,1.9154,3.7194,10.3118,1453,2856.46
11959,-0.3867,1.6065,11.4862,1449,2856.46
11964,-2.5798,-1.4533,12.3361,1459,2856.46
11969,-3.5805,1.6951,9.4727,1471,2856.46
11974,1.5646,3.4955,10.0868,1449,2856.46
11979,1.3815,2.4157,11.1582,1449,2856.46
11984,-1.7346,-1.2079,12.4941,1447,2856.46
11989,-4.3299,1.1037,10.0832,1463,2856.46
11994,1.0989,3.1256,9.7504,1463,2856.73
11999,2.375,3.1591,10.7799,1449,2856.73
12004,-1.3838,-0.5495,12.4115,1451,2856.73
12009,-4.5095,0.2526,10.7344,1453,2856.73
12014,0.2514,2.7916,9.4152,1465,2856.87
12019,2.3475,3.7002,10.5584,1451,2856.87
12024,-1.7178,0.3053,12.1709,1443,2856.87
12029,-4.1887,-0.5124,11.4551,1461,2856.87
12034,-0.9349,2.5391,9.1866,1485,2857.01
12039,2.0698,3.9648,10.4279,1451,2857.01
12044,-1.6532,1.0523,11.9351,1452,2857.01
12049,-3.5243,-1.0762,12.0225,1453,2857.01
12054,-2.162,2.2182,9.1435,1485,2857.01
12059,1.9525,3.8571,10.2807,1455,2857.01
12064,-0.3627,1.652,11.5029,1449,2857.01
12069,-2.5271,-1.4581,12.3218,1455,2857.01
12074,-3.456,1.6723,9.4822,1467,2857.01
12079,1.6113,3.4117,10.0928,1450,2857.01
12084,1.3994,2.3703,11.1642,1453,2857.01
12089,-1.8148,-1.3982,12.3816,1447,2857.01
12094,-4.3491,1.0702,10.0676,1463,2857.01
12099,1.0942,3.0933,9.7779,1464,2856.87
12104,2.2434,3.1603,10.9319,1451,2856.87
12109,-1.5119,-0.5806,12.4103,1449,2856.87
12114,-4.628,0.3759,10.799,1452,2856.87
12119,0.316,2.8778,9.3889,1469,2857.14
12124,2.3762,3.7601,10.568,1447,2857.14
12129,-1.7166,0.3484,12.1781,1445,2857.14
12134,-4.1863,-0.3783,11.4407,1459,2857.14
12139,-0.7817,2.5786,9.1602,1482,2857.01
12144,2.1668,3.8858,10.41,1449,2857.01
12149,-1.6376,0.9732,11.8226,1450,2857.01
12154,-3.45,-1.1109,11.9135,1453,2857.01
12159,-2.1691,2.1596,9.1171,1471,2857.28
12164,1.8507,3.7469,10.3226,1459,2857.28
12169,-0.3747,1.5945,11.5855,1449,2857.28
12174,-2.6276,-1.5167,12.3265,1455,2857.28
12179,-3.4943,1.7454,9.4499,1468,2857.42
12184,1.567,3.4848,10.1131,1449,2857.42
12189,1.3204,2.3846,11.2504,1449,2857.42
12194,-1.8531,-1.2115,12.4989,1449,2857.42
12199,-4.2976,1.1145,9.9719,1463,2857.42
12204,1.1301,3.1747,9.7588,1460,2857.55
12209,2.3667,3.1149,10.8661,1447,2857.55
12214,-1.4138,-0.5662,12.4008,1449,2857.55
12219,-4.4807,0.2753,10.6722,1450,2857.55
12224,0.261,2.8132,9.4236,1469,2857.55
12229,2.3882,3.6404,10.5991,1451,2857.55
12234,-1.6472,0.2466,12.1985,1447,2857.55
12239,-4.2916,-0.4693,11.4108,1459,2857.55
12244,-0.7973,2.5151,9.1411,1485,2857.82
12249,2.083,3.96,10.4016,1447,2857.82
12254,-1.664,0.9864,11.8573,1451,2857.82
12259,-3.626,-1.087,11.9662,1452,2857.82
12264,-2.1476,2.2685,9.1494,1483,2857.96
12269,1.9848,3.8642,10.2855,1455,2857.96
12274,-0.4226,1.6221,11.5221,1451,2857.96
12279,-2.6288,-1.4545,12.2631,1459,2857.96
12284,-3.395,1.749,9.3984,1485,2858.1
12289,1.5874,3.4668,10.0712,1450,2858.1
12294,1.3467,2.3008,11.2504,1451,2858.1
12299,-1.8196,-1.3647,12.3876,1449,2858.1
12304,-4.3108,1.136,9.9886,1461,2858.1
12309,1.0714,3.1029,9.7516,1464,2858.23
12314,2.2793,3.1089,10.9152,1448,2858.23
12319,-1.4976,-0.656,12.3924,1450,2858.23
12324,-4.6136,0.4082,10.6781,1455,2858.23
12329,0.2957,2.9102,9.4439,1466,2858.1
12334,2.3703,3.6966,10.5776,1454,2858.1
12339,-1.664,0.2682,12.2631,1447,2858.1
12344,-4.2928,-0.3376,11.3725,1455,2858.1
12349,-0.668,2.5809,9.1662,1481,2858.1
12354,2.1847,3.8834,10.3872,1449,2858.1
12359,-1.6831,0.9337,11.8705,1453,2858.1
12364,-3.559,-1.0774,11.9686,1453,2858.1
12369,-2.0638,2.211,9.0872,1485,2858.23
12374,1.828,3.7745,10.2891,1458,2858.23
12379,-0.4992,1.5909,11.5915,1445,2858.23
12384,-2.8108,-1.4664,12.2487,1453,2858.23
12389,-3.3782,1.7825,9.3446,1479,2858.23
12394,1.6245,3.5207,10.1394,1449,2858.23
12399,1.172,2.296,11.3114,1453,2858.23
12404,-1.9046,-1.3096,12.3708,1451,2858.23
12409,-4.2916,1.2318,9.918,1461,2858.23
12414,1.1193,3.2118,9.8162,1461,2858.1
12419,2.308,3.0873,10.9223,1449,2858.1
12424,-1.3922,-0.6488,12.3924,1449,2858.1
12429,-4.5873,0.3986,10.6398,1452,2858.1
12434,0.4621,2.9078,9.4739,1467,2858.23
12439,2.4253,3.6152,10.6518,1450,2858.23
12444,-1.64,0.1137,12.2619,1446,2858.23
12449,-4.3132,-0.425,11.3318,1459,2858.23
12454,-0.7171,2.5582,9.177,1466,2858.37
12459,2.0387,3.9037,10.416,1452,2858.37
12464,-1.6436,0.9098,11.9878,1454,2858.37
12469,-3.6847,-1.002,11.8764,1453,2858.37
12474,-2.0399,2.2901,9.1087,1481,2858.1
12479,1.9896,3.8547,10.3585,1449,2858.1
12484,-0.5375,1.482,11.6107,1451,2858.1
12489,-2.7928,-1.4497,12.2416,1459,2858.1
12494,-3.2645,1.822,9.3111,1467,2858.1
12499,1.7047,3.5111,10.0868,1449,2858.1
12504,1.1887,2.2122,11.2516,1452,2858.1
12509,-1.8806,-1.3695,12.4139,1447,2858.1
12514,-4.2294,1.1564,9.8892,1462,2858.1
12519,1.1756,3.1615,9.8366,1463,2858.37
12524,2.2194,2.9664,10.9451,1446,2858.37
12529,-1.5203,-0.747,12.3888,1451,2858.37
12534,-4.5681,0.4633,10.5931,1451,2858.37
12539,0.4477,2.8695,9.4463,1467,2858.5
12544,2.3607,3.6607,10.6291,1449,2858.5
12549,-1.64,0.2071,12.2224,1459,2858.5
12554,-4.3287,-0.2131,11.3162,1455,2858.5
12559,-0.5255,2.6396,9.1219,1483,2858.78
12564,2.2422,3.9397,10.4363,1449,2858.78
12569,-1.6221,0.8751,11.9746,1453,2858.78
12574,-3.7062,-0.9972,11.8681,1453,2858.78
12579,-1.8328,2.2134,9.1004,1480,2859.05
12584,1.9441,3.7816,10.3681,1453,2859.05
12589,-0.747,1.4581,11.6346,1443,2859.05
12594,-2.8359,-1.4485,12.2248,1455,2859.05
12599,-3.2429,1.8375,9.2871,1485,2859.19
12604,1.6113,3.535,10.1813,1447,2859.19
12609,0.9637,2.1452,11.2851,1465,2859.19
12614,-1.986,-1.3827,12.4738,1451,2859.19
12619,-4.1731,1.3024,9.8677,1461,2859.19
12624,1.227,3.2621,9.8845,1463,2859.32
12629,2.2482,2.9257,10.975,1453,2859.32
12634,-1.4605,-0.7638,12.4247,1451,2859.32
12639,-4.5969,0.5854,10.4663,1449,2859.32
12644,0.565,2.9401,9.5014,1465,2859.46
12649,2.4732,3.5039,10.6506,1449,2859.46
12654,-1.5239,0.0204,12.3349,1450,2859.46
12659,-4.452,-0.2658,11.2348,1449,2859.46
12664,-0.4525,2.6899,9.1854,1467,2859.19
12669,2.1644,3.8595,10.4351,1447,2859.19
12674,-1.7011,0.7733,12.0668,1454,2859.19
12679,-3.9217,-0.9385,11.8058,1451,2859.19
12684,-1.7394,2.3224,9.0752,1479,2859.73
12689,1.9309,3.887,10.3082,1449,2859.73
12694,-0.8751,1.3994,11.7448,1451,2859.73
12699,-2.9137,-1.3779,12.2487,1458,2859.73
12704,-3.0969,1.9501,9.2416,1484,2859.46
12709,1.7609,3.6105,10.1622,1447,2859.46
12714,0.8954,2.0399,11.3701,1456,2859.46
12719,-2.0183,-1.4569,12.4223,1449,2859.46
12724,-4.0725,1.3252,9.7731,1461,2859.46
12729,1.3084,3.2322,9.8928,1454,2859.32
12734,2.1021,2.8084,11.0277,1455,2859.32
12739,-1.5407,-0.9457,12.4056,1449,2859.32
12744,-4.5933,0.6069,10.4327,1452,2859.32
12749,0.6129,2.9712,9.6031,1455,2859.59
12754,2.3655,3.5338,10.7859,1453,2859.59
12759,-1.5838,-0.012,12.3792,1449,2859.59
12764,-4.5083,-0.0826,11.1546,1452,2859.59
12769,-0.3148,2.6863,9.2213,1461,2859.59
12774,2.2494,3.9193,10.4603,1451,2859.59
12779,-1.7083,0.7326,11.9973,1453,2859.59
12784,-3.8343,-0.7997,11.7436,1453,2859.59
12789,-1.5395,2.3559,9.0656,1481,2859.73
12794,1.9992,3.8726,10.4363,1453,2859.73
12799,-1.0259,1.2917,11.7136,1453,2859.73
12804,-3.0586,-1.3874,12.1183,1456,2859.73
12809,-2.9796,1.9094,9.1734,1461,2860.28
12814,1.7681,3.5733,10.2304,1451,2860.28
12819,0.5914,1.974,11.4012,1455,2860.28
12824,-2.2314,-1.4629,12.4379,1452,2860.28
12829,-4.057,1.4485,9.681,1459,2860.28
12834,1.3527,3.3567,9.9623,1460,2860.14
12839,2.0159,2.7605,11.0289,1451,2860.14
12844,-1.5814,-0.9278,12.4319,1452,2860.14
12849,-4.5322,0.7673,10.331,1453,2860.14
12854,0.7973,2.9652,9.5553,1459,2860.41
12859,2.4995,3.4058,10.6757,1455,2860.41
12864,-1.4569,-0.1221,12.3804,1447,2860.41
12869,-4.4903,-0.0563,11.1079,1451,2860.41
12874,-0.164,2.6971,9.2237,1455,2860.0
12879,2.1811,3.808,10.4495,1452,2860.0
12884,-1.7047,0.6093,12.0943,1453,2860.0
12889,-4.0486,-0.7925,11.7053,1452,2860.0
12894,-1.3683,2.405,9.0968,1479,2860.14
12899,1.9908,3.8894,10.3573,1455,2860.14
12904,-1.1983,1.2701,11.8094,1451,2860.14
12909,-3.219,-1.2713,12.0955,1455,2860.14
12914,-2.6863,2.1237,9.2105,1462,2860.14
12919,1.8914,3.7086,10.1742,1446,2860.14
12924,0.3891,1.8806,11.5005,1461,2860.14
12929,-2.2565,-1.4748,12.3074,1449,2860.14
12934,-3.8511,1.5263,9.5265,1453,2860.14
12939,1.5107,3.298,9.9719,1451,2860.28
12944,1.9333,2.5774,11.1043,1453,2860.28
12949,-1.5981,-1.1205,12.39,1449,2860.28
12954,-4.5346,0.826,10.173,1449,2860.28
12959,0.8559,3.0107,9.6247,1461,2860.55
12964,2.3559,3.316,10.7835,1460,2860.55
12969,-1.5443,-0.2658,12.3517,1451,2860.55
12974,-4.555,0.1101,10.9439,1450,2860.55
12979,-0.0539,2.7569,9.3266,1465,2860.82
12984,2.2829,3.8379,10.5093,1469,2860.82
12989,-1.6735,0.5842,12.1075,1451,2860.82
12994,-4.1144,-0.595,11.5951,1452,2860.82
12999,-1.1959,2.4756,9.0908,1483,2861.09
13004,2.138,3.8978,10.3777,1455,2861.09
13009,-1.2893,1.1289,11.7986,1451,2861.09
13014,-3.3387,-1.2689,12.0572,1451,2861.09
13019,-2.557,2.065,9.1099,1472,2861.09
13024,1.8675,3.6883,10.2424,1453,2861.09
13029,0.1257,1.7023,11.4742,1460,2861.09
13034,-2.4421,-1.4748,12.3361,1447,2861.09
13039,-3.7697,1.5682,9.5421,1453,2861.09
13044,1.4928,3.4117,10.064,1463,2861.23
13049,1.664,2.5474,11.1845,1453,2861.23
13054,-1.7861,-1.1576,12.4199,1447,2861.23
13059,-4.5119,0.9744,10.0808,1433,2861.23
13064,1.0139,3.0885,9.6678,1463,2861.5
13069,2.4122,3.2286,10.7978,1453,2861.5
13074,-1.4856,-0.3986,12.3924,1451,2861.5
13079,-4.5191,0.2035,10.8577,1451,2861.5
13084,0.1808,2.8323,9.2763,1466,2861.37
13089,2.3547,3.7098,10.5812,1451,2861.37
13094,-1.7334,0.3663,12.1949,1448,2861.37
13099,-4.1539,-0.5842,11.4874,1450,2861.37
13104,-0.9804,2.4816,9.074,1482,2861.64
13109,2.1033,3.9193,10.4698,1451,2861.64
13114,-1.482,1.0068,11.9195,1450,2861.64
13119,-3.5602,-1.1624,12.0668,1448,2861.64
13124,-2.3308,2.2374,9.0597,1483,2861.5
13129,1.9213,3.8104,10.2795,1453,2861.5
13134,-0.2358,1.6041,11.5544,1452,2861.5
13139,-2.6444,-1.4808,12.2906,1443,2861.5
13144,-3.5446,1.7059,9.3781,1454,2861.5
13149,1.6496,3.4273,10.082,1467,2861.64
13154,1.4736,2.3487,11.2611,1459,2861.64
13159,-1.8411,-1.2977,12.3816,1443,2861.64
13164,-4.3419,1.0977,9.9623,1461,2861.64
13169,1.1528,3.1041,9.7456,1465,2861.91
13174,2.3236,3.0562,10.914,1449,2861.91
13179,-1.4904,-0.5962,12.3637,1447,2861.91
13184,-4.6064,0.4082,10.6674,1451,2861.91
13189,0.3555,2.8934,9.4236,1468,2862.19
13194,2.393,3.6751,10.6554,1453,2862.19
13199,-1.6496,0.2658,12.2428,1445,2862.19
13204,-4.3694,-0.3232,11.3078,1455,2862.19
13209,-0.6931,2.6193,9.1123,1480,2862.6
13214,2.2182,3.8882,10.4866,1453,2862.6
13219,-1.6185,0.9086,11.9662,1449,2862.6
13224,-3.699,-1.0139,11.898,1449,2862.6
13229,-1.9728,2.2529,9.1147,1461,2862.46
13234,1.9788,3.8211,10.3382,1455,2862.46
13239,-0.486,1.4688,11.6167,1451,2862.46
13244,-2.8611,-1.476,12.2583,1460,2862.46
13249,-3.2657,1.8352,9.341,1483,2863.14
13254,1.7418,3.4704,10.155,1451,2863.14
13259,1.0666,2.2098,11.3485,1449,2863.14
13264,-2.0435,-1.3659,12.4247,1452,2863.14
13269,-4.2318,1.3192,9.8378,1462,2863.14
13274,1.2594,3.213,9.8378,1463,2863.14
13279,2.2039,2.9951,10.9858,1448,2863.14
13284,-1.5706,-0.7159,12.4642,1452,2863.14
13289,-4.6232,0.6045,10.4914,1454,2863.14
13294,0.6273,2.9185,9.5014,1470,2863.01
13299,2.4876,3.5386,10.7188,1449,2863.01
13304,-1.6412,0.0527,12.3242,1447,2863.01
13309,-4.452,-0.2167,11.157,1460,2863.01
13314,-0.4046,2.6228,9.1219,1467,2863.01
13319,2.2278,3.8702,10.4866,1451,2863.01
13324,-1.6987,0.7314,12.0321,1455,2863.01
13329,-3.9397,-0.9409,11.7795,1455,2863.01
13334,-1.664,2.3355,9.0609,1480,2863.28
13339,2.0458,3.8666,10.3956,1454,2863.28
13344,-0.9529,1.312,11.6933,1451,2863.28
13349,-3.0478,-1.3683,12.1302,1461,2863.28
13354,-2.9521,1.9597,9.2177,1471,2863.28
13359,1.81,3.6691,10.222,1448,2863.28
13364,0.6955,1.9692,11.3749,1461,2863.28
13369,-2.2314,-1.4461,12.3888,1453,2863.28
13374,-4.0031,1.4341,9.657,1465,2863.28
13379,1.4174,3.298,9.9132,1460,2863.42
13384,2.0674,2.7078,11.0516,1452,2863.42
13389,-1.6328,-1.0092,12.3577,1453,2863.42
13394,-4.5849,0.7709,10.3154,1451,2863.42
13399,0.7482,2.9401,9.5756,1459,2863.14
13404,2.4792,3.4189,10.8625,1453,2863.14
13409,-1.5886,-0.1915,12.3744,1451,2863.14
13414,-4.5454,0.0192,11.0588,1451,2863.14
13419,-0.1389,2.7306,9.2093,1482,2862.6
13424,2.2721,3.8427,10.4734,1450,2862.6
13429,-1.8352,0.595,12.1242,1455,2862.6
13434,-4.033,-0.6596,11.716,1453,2862.6
13439,-1.3491,2.4612,9.0764,1468,2863.01
13444,2.0961,3.8571,10.3729,1453,2863.01
13449,-1.2318,1.2103,11.8321,1451,2863.01
13454,-3.2262,-1.2737,12.068,1451,2863.01
13459,-2.6552,2.0782,9.104,1481,2862.32
13464,1.9022,3.6512,10.2699,1453,2862.32
13469,0.2598,1.8411,11.479,1464,2862.32
13474,-2.4253,-1.5119,12.3265,1451,2862.32
13479,-3.8283,1.5455,9.4858,1451,2862.32
13484,1.5024,3.3746,9.997,1461,2862.19
13489,1.7729,2.5654,11.1654,1453,2862.19
13494,-1.7466,-1.1121,12.4343,1449,2862.19
13499,-4.4664,0.9433,10.1909,1451,2862.19
13504,0.9541,3.1161,9.6666,1463,2862.32
13509,2.4241,3.3267,10.7847,1453,2862.32
13514,-1.5646,-0.2885,12.3804,1451,2862.32
13519,-4.5669,0.1748,10.8338,1453,2862.32
13524,0.152,2.8539,9.3529,1464,2862.05
13529,2.3774,3.7326,10.5824,1453,2862.05
13534,-1.7837,0.4262,12.226,1453,2862.05
13539,-4.118,-0.6249,11.4946,1452,2862.05
13544,-1.0678,2.5127,9.068,1485,2862.19
13549,2.071,3.8858,10.4184,1459,2862.19
13554,-1.4676,1.0379,11.8764,1450,2862.19
13559,-3.5291,-1.1983,12.0285,1451,2862.19
13564,-2.3954,2.1835,9.0992,1471,2862.05
13569,1.9405,3.8176,10.3118,1451,2862.05
13574,-0.1377,1.6424,11.5341,1459,2862.05
13579,-2.5307,-1.4018,12.3242,1447,2862.05
13584,-3.5817,1.7382,9.4056,1455,2862.05
13589,1.6209,3.4848,10.0999,1462,2862.19
13594,1.585,2.3367,11.2288,1455,2862.19
13599,-1.7717,-1.2426,12.4295,1447,2862.19
13604,-4.373,1.0534,9.9599,1455,2862.19
13609,1.1145,3.1077,9.675,1463,2862.19
13614,2.4038,3.0562,10.89,1454,2862.19
13619,-1.5455,-0.5519,12.4283,1452,2862.19
13624,-4.6256,0.3555,10.7021,1451,2862.19
13629,0.2969,2.8515,9.3805,1465,2862.32
13634,2.3858,3.6811,10.6255,1455,2862.32
13639,-1.7573,0.3184,12.2128,1449,2862.32
13644,-4.288,-0.3484,11.4395,1453,2862.32
13649,-0.7518,2.551,9.086,1481,2862.46
13654,2.1955,3.9277,10.4495,1453,2862.46
13659,-1.6616,0.9708,11.9435,1449,2862.46
13664,-3.5506,-1.0403,11.9219,1449,2862.46
13669,-2.0267,2.2278,9.0453,1465,2862.87
13674,2.0267,3.808,10.3154,1454,2862.87
13679,-0.425,1.5012,11.546,1454,2862.87
13684,-2.7749,-1.482,12.1937,1451,2862.87
13689,-3.3615,1.7621,9.3529,1459,2862.46
13694,1.6759,3.462,10.1646,1454,2862.46
13699,1.2019,2.2063,11.3018,1459,2862.46
13704,-2.0423,-1.4533,12.3984,1447,2862.46
13709,-4.3132,1.2234,9.8833,1461,2862.46
13714,1.2605,3.225,9.8354,1463,2862.19
13719,2.2769,2.9987,10.969,1448,2862.19
13724,-1.5778,-0.7219,12.4642,1445,2862.19
13729,-4.6148,0.595,10.6338,1455,2862.19
13734,0.5483,2.9532,9.5098,1467,2862.19
13739,2.4648,3.6021,10.6434,1451,2862.19
13744,-1.6676,0.0994,12.22,1445,2862.19
13749,-4.3958,-0.2526,11.1713,1460,2862.19
13754,-0.4908,2.6312,9.1423,1471,2862.19
13759,2.2565,3.8367,10.5141,1452,2862.19
13764,-1.6987,0.7997,12.068,1451,2862.19
13769,-3.8463,-0.9673,11.8046,1451,2862.19
13774,-1.6915,2.3367,9.0872,1485,2862.32
13779,2.0051,3.8223,10.3166,1455,2862.32
13784,-0.8344,1.3659,11.7232,1448,2862.32
13789,-3.0035,-1.3958,12.1721,1455,2862.32
13794,-3.1161,1.9549,9.2787,1468,2862.19
13799,1.7813,3.6368,10.1598,1447,2862.19
13804,0.905,2.0698,11.3952,1453,2862.19
13809,-2.1548,-1.3731,12.4271,1449,2862.19
13814,-4.1049,1.3791,9.6666,1459,2862.19
13819,1.3946,3.2681,9.8665,1462,2862.73
13824,2.1775,2.7701,11.0073,1449,2862.73
13829,-1.5826,-0.9397,12.3864,1451,2862.73
13834,-4.5693,0.6393,10.3298,1453,2862.73
13839,0.7111,2.9389,9.5517,1467,2862.19
13844,2.4445,3.4967,10.7727,1451,2862.19
13849,-1.6556,-0.0611,12.3505,1452,2862.19
13854,-4.4807,-0.073,11.1127,1455,2862.19
13859,-0.2538,2.7174,9.2225,1471,2861.91
13864,2.2841,3.8499,10.5345,1449,2861.91
13869,-1.9644,-0.6165,-0.6165,1447,2861.91
13874,-3.9552,-0.7087,11.6957,1451,2861.91
13879,-1.4581,2.4421,9.0285,1469,2862.73
13884,2.0949,3.8678,10.3657,1449,2862.73
13889,-1.0774,1.2342,11.7663,1449,2862.73
13894,-3.0897,-1.3431,12.141,1460,2862.73
13899,-2.7617,1.9932,9.1566,1467,2862.19
13904,1.8627,3.5769,10.2424,1449,2862.19
13909,0.4932,1.8711,11.4395,1459,2862.19
13914,-2.3427,-1.5,12.3206,1449,2862.19
13919,-3.9229,1.5071,9.5684,1462,2862.19
13924,1.4305,3.3232,10.0173,1459,2862.32
13929,1.8998,2.6791,11.0756,1450,2862.32
13934,-1.7538,-1.0463,12.4594,1453,2862.32
13939,-4.5394,0.9026,10.2819,1453,2862.32
13944,0.8978,3.0502,9.6438,1462,2862.32
13949,2.4541,3.3423,10.8469,1453,2862.32
13954,-1.5981,-0.2849,12.3505,1451,2862.32
13959,-4.4927,0.1137,10.9822,1453,2862.32
13964,0.0048,2.7737,9.2308,1462,2862.46
13969,2.3918,3.729,10.5189,1453,2862.46
13974,-1.7909,0.5052,12.1206,1461,2862.46
13979,-4.1168,-0.6512,11.6047,1453,2862.46
13984,-1.1768,2.4529,9.0704,1479,2862.19
13989,2.0865,3.8678,10.4327,1454,2862.19
13994,-1.3599,1.0582,11.8657,1453,2862.19
13999,-3.4345,-1.2318,12.0333,1461,2862.19
14004,-2.5438,2.1129,9.0956,1467,2862.19
14009,1.9022,3.7362,10.2663,1451,2862.19
14014,0.0551,1.7585,11.5951,1464,2862.19
14019,-2.5283,-1.4533,12.3625,1452,2862.19
14024,-3.6955,1.6652,9.4882,1455,2862.19
14029,1.5874,3.4213,10.0269,1455,2862.19
14034,1.7406,2.4612,11.1725,1443,2862.19
14039,-1.7549,-1.2031,12.3852,1451,2862.19
14044,-4.4544,1.0295,10.0233,1449,2862.19
14049,1.0678,3.0622,9.6247,1461,2862.19
14054,2.46,3.1903,10.8721,1453,2862.19
14059,-1.5071,-0.4741,12.3373,1451,2862.19
14064,-4.6448,0.2526,10.7655,1447,2862.19
14069,0.2286,2.7689,9.3841,1465,2862.32
14074,2.3643,3.6907,10.5764,1454,2862.32
14079,-1.8519,0.3388,12.208,1447,2862.32
14084,-4.2461,-0.4322,11.485,1452,2862.32
14089,-0.9254,2.5917,9.1482,1484,2862.32
14094,2.1428,3.9421,10.4902,1455,2862.32
14099,-1.5155,0.99,11.9231,1452,2862.32
14104,-3.553,-1.0798,11.9638,1449,2862.32
14109,-2.211,2.1883,9.068,1465,2862.32
14114,2.0171,3.7278,10.3358,1454,2862.32
14119,-0.2119,1.5479,11.5508,1456,2862.32
14124,-2.648,-1.4449,12.323,1448,2862.32
14129,-3.4752,1.7214,9.3745,1453,2862.32
14134,1.6316,3.4465,10.0963,1463,2861.91
14139,1.3755,2.3236,11.2827,1459,2861.91
14144,-1.9597,-1.3276,12.4187,1448,2861.91
14149,-4.3802,1.1492,9.9695,1453,2861.91
14154,1.1492,3.1819,9.8067,1465,2861.64
14159,2.32,3.0849,10.9487,1453,2861.64
14164,-1.6005,-0.571,12.4259,1450,2861.64
14169,-4.5945,0.4824,10.6614,1451,2861.64
14174,0.3771,2.8742,9.4224,1467,2861.37
14179,2.49,3.6033,10.6267,1452,2861.37
14184,-1.6269,0.2322,12.2751,1447,2861.37
14189,-4.3299,-0.3687,11.3114,1450,2861.37
14194,-0.595,2.5654,9.1159,1467,2861.5
14199,2.2266,3.8678,10.4663,1460,2861.5
14204,-1.7478,0.8475,11.9818,1449,2861.5
14209,-3.6691,-1.0187,11.8238,1449,2861.5
14214,-1.9764,2.2865,9.0106,1487,2861.64
14219,1.98,3.8271,10.3465,1455,2861.64
14224,-0.6165,1.4497,11.637,1453,2861.64
14229,-2.8659,-1.3827,12.2846,1447,2861.64
14234,-3.2681,1.8938,9.3206,1455,2861.64
14239,1.7083,3.5889,10.1299,1463,2861.64
14244,1.1325,2.1835,11.3808,1463,2861.64
14249,-2.0255,-1.3994,12.3768,1439,2861.64
14254,-4.209,1.3156,9.7719,1459,2861.64
14259,1.3348,3.1759,9.9024,1464,2861.64
14264,2.314,2.8659,10.969,1449,2861.64
14269,-1.5802,-0.7769,12.4187,1446,2861.64
14274,-4.5933,0.577,10.4758,1453,2861.64
14279,0.5638,2.9185,9.4272,1465,2861.5
14284,2.4169,3.5147,10.6985,1449,2861.5
14289,-1.6939,0.0407,12.3098,1447,2861.5
14294,-4.4365,-0.1568,11.1929,1455,2861.5
14299,-0.4393,2.6516,9.159,1470,2861.37
14304,2.1823,3.899,10.5309,1453,2861.37
14309,-1.8292,0.7805,12.0632,1449,2861.37
14314,-3.8654,-0.8452,11.7591,1451,2861.37
14319,-1.6807,2.3739,9.0321,1479,2861.5
14324,2.1045,3.863,10.3561,1455,2861.5
14329,-0.844,1.2701,11.7196,1449,2861.5
14334,-2.9341,-1.4341,12.1649,1455,2861.5
14339,-3.0107,1.8926,9.2177,1481,2860.96
14344,1.7861,3.553,10.1837,1449,2860.96
14349,0.8068,1.9561,11.3784,1455,2860.96
14354,-2.1668,-1.4593,12.3325,1449,2860.96
14359,-4.0845,1.391,9.6845,1459,2860.96
14364,1.3527,3.2537,9.9144,1463,2861.23
14369,2.0674,2.8108,11.0468,1449,2861.23
14374,-1.6472,-0.9062,12.4654,1447,2861.23
14379,-4.5382,0.7697,10.4028,1449,2861.23
14384,0.7506,3.0287,9.5229,1469,2860.82
14389,2.4864,3.4752,10.7679,1448,2860.82
14394,-1.646,-0.0742,12.2835,1448,2860.82
14399,-4.4257,-0.0287,11.0217,1460,2860.82
14404,-0.2239,2.745,9.2117,1484,2860.96
14409,2.3188,3.8199,10.5285,1445,2860.96
14414,-1.7753,0.6129,12.0668,1453,2860.96
14419,-3.9133,-0.8164,11.6813,1453,2860.96
14424,-1.4641,2.3631,9.0501,1479,2860.82
14429,2.0279,3.8331,10.3657,1459,2860.82
14434,-1.1875,1.2163,11.7603,1449,2860.82
14439,-3.1316,-1.3276,12.141,1452,2860.82
14444,-2.8395,2.0506,9.2177,1479,2860.96
14449,1.81,3.6595,10.3202,1445,2860.96
14454,0.4956,1.8986,11.4479,1453,2860.96
14459,-2.2793,-1.4186,12.3194,1447,2860.96
14464,-3.9433,1.4856,9.6103,1461,2860.96
14469,1.4545,3.298,9.9192,1463,2860.96
14474,2.0231,2.6336,11.0887,1449,2860.96
14479,-1.6221,-1.0558,12.3936,1450,2860.96
14484,-4.4927,0.8092,10.2615,1453,2860.96
14489,0.8691,3.0107,9.6331,1469,2861.09
14494,2.472,3.3088,10.8026,1449,2861.09
14499,-1.6257,-0.2682,12.3481,1451,2861.09
14504,-4.5633,0.0646,10.9846,1455,2861.09
14509,-0.085,2.7461,9.2727,1471,2860.96
14514,2.2841,3.8104,10.5896,1451,2860.96
14519,-1.8627,0.5938,12.1518,1452,2860.96
14524,-4.1001,-0.6129,11.6765,1453,2860.96
14529,-1.2665,2.5115,9.098,1482,2860.96
14534,2.1201,3.8882,10.4004,1445,2860.96
14539,-1.3467,1.1133,11.8345,1452,2860.96
14544,-3.2226,-1.2653,12.0297,1463,2860.96
14549,-2.6097,2.1033,9.1411,1465,2860.55
14554,1.8902,3.6571,10.252,1447,2860.55
14559,0.2586,1.719,11.5796,1459,2860.55
14564,-2.4169,-1.5682,12.3565,1451,2860.55
14569,-3.7745,1.5646,9.5229,1462,2860.55
14574,1.5287,3.3543,10.0042,1461,2860.68
14579,1.7214,2.5438,11.1905,1453,2860.68
14584,-1.7897,-1.1708,12.3756,1453,2860.68
14589,-4.4688,0.996,10.1825,1452,2860.68
14594,0.9445,3.0825,9.76,1464,2860.41
14599,2.4325,3.322,10.9331,1452,2860.41
14604,-1.5658,-0.3412,12.3409,1449,2860.41
14609,-4.5035,0.2634,10.8553,1448,2860.41
14614,0.1556,2.806,9.2811,1480,2860.55
14619,2.4277,3.729,10.5465,1451,2860.55
14624,-1.7633,0.4345,12.1566,1452,2860.55
14629,-4.1599,-0.565,11.5245,1453,2860.55
14634,-0.9936,2.4756,9.0728,1483,2860.41
14639,2.1392,3.8343,10.4315,1453,2860.41
14644,-1.4868,0.99,11.8633,1453,2860.41
14649,-3.401,-1.1863,11.995,1459,2860.41
14654,-2.4062,2.156,9.1267,1463,2860.82
14659,1.8914,3.7733,10.2687,1447,2860.82
14664,-0.0168,1.652,11.5712,1461,2860.82
14669,-2.5606,-1.4186,12.2835,1453,2860.82
14674,-3.614,1.725,9.4296,1461,2860.82
14679,1.5754,3.4465,10.0329,1455,2861.09
14684,1.64,2.3786,11.2168,1455,2861.09
14689,-1.8399,-1.2103,12.4211,1449,2861.09
14694,-4.4137,1.0439,10.0281,1452,2861.09
14699,1.0642,3.0933,9.7181,1461,2860.96
14704,2.4588,3.1627,10.8852,1459,2860.96
14709,-1.5407,-0.498,12.3924,1449,2860.96
14714,-4.561,0.2873,10.7416,1453,2860.96
14719,0.237,2.7976,9.3506,1455,2861.37
14724,2.3703,3.6739,10.6279,1454,2861.37
14729,-1.8016,0.2885,12.1697,1453,2861.37
14734,-4.2868,-0.3795,11.4455,1459,2861.37
14739,-0.8344,2.5989,9.1075,1476,2861.37
14744,2.1392,3.9636,10.4866,1448,2861.37
14749,-1.6759,0.99,11.9698,1451,2861.37
14754,-3.5446,-1.0618,11.9387,1467,2861.37
14759,-2.1416,2.1931,9.08,1465,2861.23
14764,1.9656,3.8008,10.2987,1451,2861.23
14769,-0.2921,1.5036,11.625,1465,2861.23
14774,-2.6576,-1.4976,12.2535,1449,2861.23
14779,-3.395,1.7166,9.3218,1449,2861.23
14784,1.6747,3.4812,10.1167,1459,2861.09
14789,1.306,2.2027,11.2707,1453,2861.09
14794,-1.9597,-1.3934,12.3601,1447,2861.09
14799,-4.2988,1.1732,9.9228,1447,2861.09
14804,1.1803,3.1831,9.8234,1461,2860.96
14809,2.3511,3.0574,11.0205,1453,2860.96
14814,-1.5586,-0.6381,12.4487,1449,2860.96
14819,-4.2856,-0.2825,11.2994,1449,2860.96
14824,0.4537,2.9532,9.414,1469,2860.82
14829,2.2338,3.8834,10.4651,1453,2860.82
14834,-1.7154,0.8595,11.9507,1449,2860.82
14839,-3.6823,-1.0199,11.8621,1453,2860.82
14844,-0.5997,2.63,9.1626,1481,2860.82
14849,1.9597,3.7804,10.3681,1461,2860.82
14854,-0.5447,1.4557,11.6574,1448,2860.82
14859,-2.8599,-1.4293,12.2104,1450,2860.82
14864,-3.2693,1.8986,9.329,1483,2860.96
14869,1.6484,3.4919,10.1359,1453,2860.96
14874,1.1229,2.156,11.3413,1461,2860.96
14879,-2.0782,-1.3479,12.4187,1445,2860.96
14884,-4.2461,1.2989,9.8857,1455,2860.96
14889,1.2582,3.2298,9.8701,1465,2861.09
14894,2.3212,2.9281,11.0265,1453,2861.09
14899,-1.5514,-0.7302,12.4391,1447,2861.09
14904,-4.5502,0.5519,10.5321,1455,2861.09
14909,0.5327,2.9353,9.4415,1471,2861.37
14914,2.4529,3.5267,10.7057,1452,2861.37
14919,-1.6089,0.0479,12.3242,1453,2861.37
14924,-4.4556,-0.2251,11.1809,1449,2861.37
14929,-0.4705,2.6671,9.1351,1467,2861.37
14934,2.2302,3.9037,10.5321,1455,2861.37
14939,-1.834,0.7482,12.0572,1449,2861.37
14944,-3.8307,-0.893,11.8393,1451,2861.37
14949,-1.7334,2.3978,9.0489,1482,2861.5
14954,2.053,3.9025,10.3944,1455,2861.5
14959,-0.8224,1.3192,11.7436,1449,2861.5
14964,-2.9963,-1.3575,12.202,1451,2861.5
14969,-3.0442,1.9034,9.2835,1467,2861.37
14974,1.8124,3.6236,10.2699,1453,2861.37
14979,0.8775,1.9956,11.3617,1454,2861.37
14984,-2.1272,-1.4808,12.3996,1450,2861.37
14989,-4.1001,1.3755,9.6857,1452,2861.37
14994,1.3276,3.2729,9.9335,1466,2861.23
14999,2.1189,2.7677,11.0624,1455,2861.23
15004,-1.5993,-0.9278,12.3744,1447,2861.23
15009,-4.561,0.7398,10.3453,1461,2861.23
15014,0.6476,3.0239,9.5553,1463,2860.96
15019,2.4876,3.4895,10.7536,1450,2860.96
15024,-1.646,-0.0407,12.3505,1447,2860.96
15029,-4.458,0.0227,11.0947,1451,2860.96
15034,-0.2286,2.7054,9.2129,1469,2860.68
15039,2.3451,3.8475,10.4962,1451,2860.68
15044,-1.8304,0.5914,12.0165,1446,2860.68
15049,-3.9217,-0.729,11.6993,1453,2860.68
15054,-1.5311,2.381,9.0501,1469,2860.68
15059,2.0734,3.8283,10.3657,1453,2860.68
15064,-1.0989,1.1887,11.8166,1448,2860.68
15069,-3.1771,-1.3204,12.1362,1451,2860.68
15074,-2.8359,2.0494,9.1722,1470,2860.68
15079,1.7945,3.62,10.1778,1455,2860.68
15084,0.5375,1.9106,11.4898,1449,2860.68
15089,-2.2901,-1.4269,12.3792,1454,2860.68
15094,-3.8942,1.5215,9.6786,1469,2860.55
15099,1.403,3.3339,9.9874,1451,2860.55
15104,2.0267,2.7174,11.1235,1453,2860.55
15109,-1.6867,-1.0104,12.4259,1448,2860.55
15114,-4.5358,0.8499,10.2556,1460,2860.55
15119,0.8428,2.9856,9.5636,1463,2861.37
15124,2.4828,3.3375,10.7823,1447,2861.37
15129,-1.6041,-0.2011,12.4103,1449,2861.37
15134,-4.5119,0.0227,10.9846,1453,2861.37
15139,-0.0407,2.7725,9.2751,1467,2861.64
15144,2.2865,3.814,10.5548,1450,2861.64
15149,-1.8364,0.516,12.1386,1449,2861.64
15154,-4.0905,-0.6812,11.5616,1463,2861.64
15159,-1.2641,2.4612,9.0537,1479,2861.91
15164,2.1093,3.9085,10.4088,1451,2861.91
15169,-1.3396,1.1552,11.8693,1453,2861.91
15174,-3.3208,-1.2318,12.068,1453,2861.91
15179,-2.5869,2.1249,9.1231,1469,2862.05
15184,1.9309,3.7254,10.2604,1454,2862.05
15189,0.2454,1.7585,11.5233,1449,2862.05
15194,-2.4181,-1.5311,12.3074,1455,2862.05
15199,-3.7888,1.6029,9.4954,1481,2862.32
15204,1.6017,3.3842,10.0449,1450,2862.32
15209,1.8196,2.4792,11.1761,1453,2862.32
15214,-1.7765,-1.1744,12.4355,1451,2862.32
15219,-4.4807,0.9948,10.0892,1461,2862.32
15224,0.984,3.0969,9.6714,1461,2862.32
15229,2.4301,3.2094,10.817,1449,2862.32
15234,-1.5622,-0.4118,12.402,1450,2862.32
15239,-4.5586,0.261,10.8649,1451,2862.32
15244,0.1185,2.8383,9.3206,1465,2861.91
15249,2.3846,3.7074,10.5237,1451,2861.91
15254,-1.7873,0.3795,12.2056,1447,2861.91
15259,-4.197,-0.4525,11.4706,1451,2861.91
15264,-0.9577,2.5343,9.0489,1463,2861.64
15269,2.1763,3.9265,10.4136,1449,2861.64
15274,-1.5909,0.9828,11.8298,1455,2861.64
15279,-3.4285,-1.1313,11.9794,1451,2861.64
15284,-2.2853,2.1679,9.0728,1481,2861.78
15289,1.8771,3.7098,10.2663,1447,2861.78
15294,-0.1832,1.5598,11.546,1452,2861.78
15299,-2.6935,-1.5143,12.293,1455,2861.78
15304,-3.5314,1.7059,9.426,1481,2861.91
15309,1.646,3.4512,10.1323,1449,2861.91
15314,1.4916,2.3906,11.2946,1461,2861.91
15319,-1.9201,-1.2342,12.4068,1449,2861.91
15324,-4.3479,1.1061,10.0425,1456,2861.91
15329,1.093,3.146,9.7528,1455,2862.19
15334,2.4217,3.0909,10.9223,1451,2862.19
15339,-1.5682,-0.5112,12.4199,1449,2862.19
15344,-4.5777,0.4429,10.6446,1448,2862.19
15349,0.3328,2.8778,9.3913,1461,2863.01
15354,2.4505,3.6344,10.6326,1461,2863.01
15359,-1.7837,0.2143,12.1709,1451,2863.01
15364,-4.3227,-0.3938,11.3365,1452,2863.01
15369,-0.7626,2.5881,9.1399,1464,2862.87
15374,2.1596,3.8762,10.4914,1453,2862.87
15379,-1.6903,0.8703,11.9938,1451,2862.87
15384,-3.6655,-1.0032,11.9507,1455,2862.87
15389,-2.053,2.2996,9.0824,1479,2863.01
15394,1.9788,3.8499,10.331,1453,2863.01
15399,-0.4597,1.4724,11.6442,1448,2863.01
15404,-2.8144,-1.4916,12.2272,1453,2863.01
15409,-3.3064,1.8184,9.2907,1483,2862.87
15414,1.7645,3.5219,10.1023,1449,2862.87
15419,1.2222,2.1153,11.3545,1463,2862.87
15424,-2.0027,-1.3803,12.4044,1451,2862.87
15429,-4.2114,1.2893,9.8222,1450,2862.87
15434,1.2151,3.2034,9.7719,1461,2862.6
15439,2.302,2.8934,11.0456,1450,2862.6
15444,-1.6221,-0.8033,12.408,1447,2862.6
15449,-4.6495,0.6069,10.4579,1449,2862.6
15454,0.5626,2.976,9.4822,1463,2862.6
15459,2.4912,3.5638,10.7176,1454,2862.6
15464,-1.7777,0.0275,12.3277,1451,2862.6
15469,-4.4041,-0.0946,11.2719,1451,2862.6
15474,-0.3699,2.7031,9.1518,1469,2862.19
15479,2.2589,3.8391,10.4543,1453,2862.19
15484,-1.7693,0.7075,12.0632,1449,2862.19
15489,-3.8104,-0.8212,11.7615,1448,2862.19
15494,-1.7107,2.3834,9.0333,1485,2862.19
15499,2.0339,3.8211,10.3418,1458,2862.19
15504,-0.8595,1.3001,11.7591,1449,2862.19
15509,-2.9808,-1.3958,12.153,1451,2862.19
15514,-3.0179,1.9058,9.232,1467,2862.19
15519,1.7657,3.5889,10.2065,1452,2862.19
15524,0.7626,1.9692,11.4371,1455,2862.19
15529,-2.2134,-1.4234,12.3816,1448,2862.19
15534,-4.0534,1.482,9.681,1453,2862.19
15539,1.3719,3.2908,9.9467,1461,2862.05
15544,2.1189,2.7749,11.06,1461,2862.05
15549,-1.6556,-0.899,12.3936,1445,2862.05
15554,-4.5286,0.741,10.4016,1454,2862.05
15559,0.6979,3.0071,9.5469,1463,2862.32
15564,2.5007,3.4393,10.7452,1451,2862.32
15569,-1.6293,-0.1413,12.3385,1450,2862.32
15574,-4.5011,-0.0084,11.0624,1453,2862.32
15579,-0.1604,2.7102,9.1614,1467,2862.32
15584,2.2936,3.796,10.4974,1451,2862.32
15589,-1.8423,0.5974,12.0524,1449,2862.32
15594,-3.9923,-0.7518,11.6945,1453,2862.32
15599,-1.4497,2.4301,9.1051,1481,2862.46
15604,2.0578,3.8858,10.3777,1448,2862.46
15609,-1.1971,1.1672,11.8621,1449,2862.46
15614,-3.2394,-1.2833,12.0835,1449,2862.46
15619,-2.7318,2.0925,9.159,1465,2862.73
15624,1.8735,3.7074,10.2125,1455,2862.73
15629,0.4178,1.8244,11.5556,1451,2862.73
15634,-2.3942,-1.4641,12.4056,1455,2862.73
15639,-3.8128,1.5371,9.5553,1464,2862.73
15644,1.579,3.3028,9.9683,1450,2862.73
15649,1.9333,2.569,11.1582,1458,2862.73
15654,-1.7142,-1.1456,12.3888,1449,2862.73
15659,-4.5226,0.9301,10.1586,1456,2862.73
15664,0.9038,3.0323,9.6151,1463,2862.46
15669,2.4541,3.3028,10.8864,1448,2862.46
15674,-1.6233,-0.3412,12.4139,1449,2862.46
15679,-4.61,0.2346,10.9104,1453,2862.46
15684,0.1089,2.8299,9.3206,1469,2862.46
15689,2.3451,3.7888,10.5979,1451,2862.46
15694,-1.9333,0.4345,12.1877,1448,2862.46
15699,-4.1037,-0.4812,11.564,1461,2862.46
15704,-1.0834,2.5917,9.0513,1479,2862.05
15709,2.138,3.8846,10.4471,1452,2862.05
15714,-1.3408,1.0594,11.8944,1453,2862.05
15719,-3.4034,-1.2318,12.0584,1450,2862.05
15724,-2.4134,2.1404,9.1004,1479,2862.19
15729,1.9381,3.6607,10.2627,1459,2862.19
15734,0.0335,1.6029,11.5317,1449,2862.19
15739,-2.5402,-1.5119,12.2631,1452,2862.19
15744,-3.5997,1.6364,9.5158,1484,2862.19
15749,1.5538,3.4153,10.0676,1449,2862.19
15754,1.5766,2.4457,11.2252,1455,2862.19
15759,-1.8615,-1.2198,12.4295,1447,2862.19
15764,-4.4628,1.093,10.0688,1461,2862.19
15769,1.093,3.1388,9.7193,1461,2862.19
15774,2.472,3.1879,10.8733,1452,2862.19
15779,-1.555,-0.4477,12.3972,1451,2862.19
15784,-4.5741,0.3627,10.7595,1451,2862.19
15789,0.2873,2.8527,9.3122,1467,2862.32
15794,2.4457,3.6571,10.5776,1451,2862.32
15799,-1.7526,0.2705,12.1985,1449,2862.32
15804,-4.3,-0.4597,11.3856,1453,2862.32
15809,-0.8308,2.545,9.0968,1467,2862.05
15814,2.1703,3.8894,10.4244,1449,2862.05
15819,-1.6879,0.9254,11.983,1461,2862.05
15824,-3.571,-1.0654,11.9267,1451,2862.05
15829,-2.1811,2.2134,9.0692,1480,2861.78
15834,1.9465,3.8307,10.3142,1451,2861.78
15839,-0.4202,1.5371,11.6669,1449,2861.78
15844,-2.6049,-1.4126,12.2571,1459,2861.78
15849,-3.45,1.7741,9.3553,1485,2861.5
15854,1.658,3.5243,10.1047,1448,2861.5
15859,1.3791,2.229,11.3222,1463,2861.5
15864,-1.9561,-1.3551,12.3613,1449,2861.5
15869,-4.2916,1.2019,9.8892,1459,2861.5
15874,1.1995,3.1711,9.815,1455,2861.37
15879,2.32,2.9652,11.0026,1453,2861.37
15884,-1.6053,-0.6943,12.3828,1451,2861.37
15889,-4.5981,0.4944,10.6303,1453,2861.37
15894,0.4034,2.9054,9.4116,1459,2861.09
15899,2.4217,3.6476,10.6937,1453,2861.09
15904,-1.7358,0.182,12.2511,1451,2861.09
15909,-4.3981,-0.2215,11.2839,1449,2861.09
15914,-0.5279,2.6576,9.1674,1469,2860.41
15919,2.2865,3.9014,10.507,1451,2860.41
15924,-1.7705,0.8021,11.9602,1459,2860.41
15929,-3.6308,-0.9589,11.8525,1452,2860.41
15934,-1.8771,2.2781,9.0405,1471,2859.87
15939,1.9956,3.7445,10.3597,1453,2859.87
15944,-0.644,1.3946,11.631,1451,2859.87
15949,-2.8108,-1.4928,12.1578,1455,2859.87
15954,-3.2394,1.8531,9.3158,1483,2859.59
15959,1.6783,3.4895,10.1442,1450,2859.59
15964,1.0726,2.1548,11.3725,1461,2859.59
15969,-2.0423,-1.403,12.3852,1451,2859.59
15974,-4.1958,1.2977,9.8114,1452,2859.59
15979,1.2258,3.2417,9.8306,1459,2859.46
15984,2.2637,2.9305,11.0002,1453,2859.46
15989,-1.5634,-0.729,12.451,1450,2859.46
15994,-4.5657,0.6357,10.5405,1449,2859.46
15999,0.5878,3.0059,9.4739,1461,2859.59
16004,2.5343,3.5482,10.659,1453,2859.59
16009,-1.6616,0.0479,12.2679,1451,2859.59
16014,-4.3922,-0.2646,11.1917,1449,2859.59
16019,-0.4489,2.6109,9.1578,1455,2859.46
16024,2.247,3.8164,10.4698,1454,2859.46
16029,-1.8016,0.729,12.0512,1451,2859.46
16034,-3.8439,-0.9301,11.8166,1455,2859.46
16039,-1.7957,2.3906,9.074,1479,2859.32
16044,1.9668,3.8774,10.3058,1459,2859.32
16049,-0.8643,1.3683,11.6933,1449,2859.32
16054,-2.9808,-1.3982,12.1709,1455,2859.32
16059,-3.0825,1.9716,9.2596,1477,2858.64
16064,1.8567,3.6081,10.1993,1451,2858.64
16069,0.8978,2.0901,11.4275,1463,2858.64
16074,-2.0662,-1.3491,12.4008,1451,2858.64
16079,-4.0881,1.3228,9.76,1448,2858.64
16084,1.3587,3.2106,9.8497,1461,2859.32
16089,2.1955,2.8228,10.9978,1452,2859.32
16094,-1.585,-0.893,12.3289,1447,2859.32
16099,-4.5717,0.65,10.4244,1449,2859.32
16104,0.6273,2.9736,9.5648,1463,2859.05
16109,2.3762,3.5171,10.7799,1453,2859.05
16114,-1.7131,-0.0359,12.2439,1451,2859.05
16119,-4.4784,-0.0503,11.1534,1449,2859.05
16124,-0.3184,2.733,9.2021,1464,2858.64
16129,2.2733,3.9014,10.4746,1456,2858.64
16134,-1.8364,0.7195,12.0632,1453,2858.64
16139,-3.8068,-0.7877,11.8429,1452,2858.64
16144,-1.6053,2.3762,9.068,1479,2858.78
16149,2.059,3.8128,10.3789,1456,2858.78
16154,-0.9278,1.2605,11.7136,1451,2858.78
16159,-2.9676,-1.3396,12.147,1452,2858.78
16164,-3.0011,1.9453,9.2392,1483,2858.64
16169,1.7753,3.5422,10.2304,1451,2858.64
16174,0.7123,1.9393,11.4084,1460,2858.64
16179,-2.1739,-1.4629,12.3122,1449,2858.64
16184,-4.0354,1.4509,9.7372,1447,2858.64
16189,1.318,3.2753,9.9288,1461,2858.91
16194,2.0901,2.806,11.0947,1457,2858.91
16199,-1.6556,-0.9062,12.3984,1448,2858.91
16204,-4.4963,0.7793,10.3944,1449,2858.91
16209,0.7147,3.0323,9.5984,1461,2859.32
16214,2.5091,3.4716,10.7296,1453,2859.32
16219,-1.6592,-0.0886,12.3146,1449,2859.32
16224,-4.4221,-0.0886,11.0816,1453,2859.32
16229,-0.2765,2.7043,9.2105,1467,2859.46
16234,2.2745,3.7685,10.4842,1453,2859.46
16239,-1.8232,0.5794,12.1111,1449,2859.46
16244,-3.9157,-0.7793,11.6933,1449,2859.46
16249,-1.5909,2.4409,9.0573,1481,2859.46
16254,2.0159,3.8415,10.4196,1459,2859.46
16259,-1.1253,1.2522,11.7998,1445,2859.46
16264,-3.1376,-1.3204,12.0931,1450,2859.46
16269,-2.9197,2.0614,9.1925,1483,2859.19
16274,1.8148,3.6655,10.2424,1451,2859.19
16279,0.6596,1.9297,11.4778,1459,2859.19
16284,-2.1787,-1.4006,12.3134,1448,2859.19
16289,-3.9804,1.4736,9.6486,1449,2859.19
16294,1.3838,3.2896,9.9311,1461,2859.32
16299,2.0853,2.6157,11.0756,1455,2859.32
16304,-1.5945,-0.996,12.3768,1447,2859.32
16309,-4.5322,0.7254,10.3011,1452,2859.32
16314,0.7219,2.9963,9.6115,1464,2859.19
16319,2.4361,3.389,10.7751,1449,2859.19
16324,-1.6472,-0.2011,12.3828,1450,2859.19
16329,-4.5538,0.0754,11.0325,1447,2859.19
16334,-0.1413,2.7725,9.2165,1467,2859.32
16339,2.3331,3.8211,10.5369,1452,2859.32
16344,-1.8962,0.6069,12.0919,1451,2859.32
16349,-3.9816,-0.6632,11.7148,1448,2859.32
16354,-1.3635,2.4553,9.0644,1482,2859.32
16359,2.1416,3.8858,10.3968,1455,2859.32
16364,-1.2354,1.1301,11.7196,1451,2859.32
16369,-3.1412,-1.3144,12.0919,1449,2859.32
16374,-2.7102,1.9932,9.0944,1485,2859.32
16379,1.8711,3.6009,10.1933,1451,2859.32
16384,0.4262,1.7873,11.5077,1460,2859.32
16389,-2.2877,-1.5335,12.3756,1447,2859.32
16394,-3.9002,1.4952,9.5972,1451,2859.32
16399,1.3898,3.3591,10.0126,1466,2859.46
16404,1.8603,2.5774,11.1163,1454,2859.46
16409,-1.7394,-1.0534,12.4618,1447,2859.46
16414,-4.4879,0.9325,10.228,1455,2859.46
16419,0.8547,3.0909,9.6498,1465,2859.87
16424,2.5235,3.371,10.835,1450,2859.87
16429,-1.6328,-0.2658,12.3349,1447,2859.87
16434,-4.4831,0.1496,10.9092,1449,2859.87
16439,-0.0084,2.7713,9.2141,1467,2859.46
16444,2.3463,3.735,10.5201,1451,2859.46
16449,-1.8567,0.4405,12.1206,1449,2859.46
16454,-4.0175,-0.6907,11.5293,1451,2859.46
16459,-1.2737,2.4134,9.0704,1460,2859.05
16464,2.0351,3.8307,10.4232,1459,2859.05
16469,-1.3491,1.1061,11.8429,1447,2859.05
16474,-3.3519,-1.221,12.0871,1449,2859.05
16479,-2.6324,2.162,9.1877,1465,2858.91
16484,1.8699,3.711,10.2915,1455,2858.91
16489,0.2454,1.7418,11.491,1453,2858.91
16494,-2.3523,-1.4234,12.2787,1447,2858.91
16499,-3.7649,1.6544,9.6175,1451,2858.91
16504,1.5335,3.3483,9.9742,1465,2859.32
16509,1.8974,2.4948,11.1881,1459,2859.32
16514,-1.6783,-1.1313,12.3349,1449,2859.32
16519,-4.4317,0.9697,10.1239,1459,2859.32
16524,0.9278,3.0586,9.6941,1465,2859.19
16529,2.4397,3.2106,10.8661,1449,2859.19
16534,-1.6305,-0.407,12.3601,1444,2859.19
16539,-4.5693,0.1736,10.9235,1453,2859.19
16544,0.0718,2.8599,9.2859,1469,2859.05
16549,2.2757,3.802,10.6159,1452,2859.05
16554,-1.9441,0.4764,12.1063,1447,2859.05
16559,-4.1444,-0.5255,11.5365,1454,2859.05
16564,-1.0678,2.5786,9.0932,1483,2858.78
16569,2.1572,3.9492,10.4279,1451,2858.78
16574,-1.482,1.1073,11.9028,1449,2858.78
16579,-3.3196,-1.1983,12.0021,1450,2858.78
16584,-2.4301,2.1225,9.068,1471,2858.64
16589,1.9213,3.6823,10.2963,1455,2858.64
16594,0.0395,1.6819,11.4982,1449,2858.64
16599,-2.5199,-1.5502,12.3026,1451,2858.64
16604,-3.6703,1.6089,9.4966,1463,2858.23
16609,1.5251,3.3483,10.137,1453,2858.23
16614,1.6161,2.466,11.2611,1453,2858.23
16619,-1.7909,-1.1923,12.4127,1445,2858.23
16624,-4.4077,1.0307,10.0437,1460,2858.23
16629,0.9661,3.1292,9.7252,1463,2858.23
16634,2.4696,3.2453,10.8254,1450,2858.23
16639,-1.5622,-0.3998,12.3553,1443,2858.23
16644,-4.5633,0.3112,10.8002,1452,2858.23
16649,0.2263,2.8659,9.3601,1461,2858.1
16654,2.4181,3.7062,10.6099,1449,2858.1
16659,-1.8292,0.3292,12.1506,1439,2858.1
16664,-4.1144,-0.5531,11.4251,1452,2858.1
16669,-1.0259,2.5079,9.0716,1467,2858.37
16674,2.0961,3.8343,10.4052,1453,2858.37
16679,-1.5012,0.9828,11.9016,1449,2858.37
16684,-3.4692,-1.1504,12.0129,1448,2858.37
16689,-2.4134,2.1919,9.1447,1478,2858.37
16694,1.883,3.7697,10.2484,1456,2858.37
16699,-0.0994,1.6436,11.5688,1449,2858.37
16704,-2.5821,-1.4832,12.2763,1456,2858.37
16709,-3.5985,1.7059,9.4451,1465,2858.1
16714,1.5886,3.4345,10.094,1449,2858.1
16719,1.664,2.4301,11.2671,1459,2858.1
16724,-1.8172,-1.1899,12.39,1449,2858.1
16729,-4.3287,1.057,10.0221,1461,2858.1
16734,1.081,3.0646,9.6714,1465,2858.78
16739,2.4146,3.1089,10.89,1451,2858.78
16744,-1.585,-0.51,12.3481,1445,2858.78
16749,-4.5849,0.3508,10.7883,1451,2858.78
16754,0.1999,2.8539,9.3697,1467,2858.5
16759,2.3439,3.6978,10.6494,1451,2858.5
16764,-1.9453,0.3699,12.1889,1447,2858.5
16769,-4.2341,-0.4357,11.4084,1454,2858.5
16774,-0.9206,2.6037,9.0788,1479,2858.23
16779,2.1727,3.9444,10.4303,1447,2858.23
16784,-1.5957,0.99,11.9147,1450,2858.23
16789,-3.4417,-1.1013,12.0009,1451,2858.23
16794,-2.1859,2.2146,9.171,1463,2858.1
16799,1.9668,3.7266,10.2855,1455,2858.1
16804,-0.1772,1.579,11.5843,1452,2858.1
16809,-2.5857,-1.5083,12.2511,1453,2858.1
16814,-3.5386,1.6843,9.4176,1477,2859.32
16819,1.5993,3.389,10.094,1451,2859.32
16824,1.4688,2.3547,11.248,1453,2859.32
16829,-1.9333,-1.3048,12.4163,1449,2859.32
16834,-4.3431,1.1217,10.0293,1459,2859.32
16839,1.136,3.1747,9.8031,1463,2858.78
16844,2.3894,3.14,10.9212,1449,2858.78
16849,-1.5682,-0.5483,12.3888,1443,2858.78
16854,-4.5586,0.4226,10.726,1451,2858.78
16859,0.3448,2.8802,9.3972,1466,2858.91
16864,2.4469,3.6775,10.5836,1451,2858.91
16869,-1.7801,0.2801,12.2212,1439,2858.91
16874,-4.2102,-0.4238,11.3653,1455,2858.91
16879,-0.8272,2.6145,9.0836,1485,2858.91
16884,2.1691,3.8583,10.4208,1450,2858.91
16889,-1.5981,0.8727,11.9447,1451,2858.91
16894,-3.6081,-1.1109,11.892,1451,2858.91
16899,-2.1883,2.2422,9.074,1479,2858.91
16904,1.9166,3.7553,10.313,1459,2858.91
16909,-0.3891,1.5706,11.6382,1449,2858.91
16914,-2.7222,-1.4569,12.2463,1458,2858.91
16919,-3.4309,1.7645,9.3853,1471,2858.78
16924,1.6879,3.4632,10.0784,1449,2858.78
16929,1.4126,2.2709,11.2815,1451,2858.78
16934,-1.8902,-1.2713,12.4594,1448,2858.78
16939,-4.2856,1.1636,9.9431,1447,2858.78
16944,1.1899,3.1484,9.7396,1464,2858.64
16949,2.3846,3.0191,10.914,1447,2858.64
16954,-1.5802,-0.6297,12.3289,1449,2858.64
16959,-4.6005,0.407,10.6315,1453,2858.64
16964,0.3735,2.8539,9.4487,1470,2858.78
16969,2.3547,3.6248,10.6829,1447,2858.78
16974,-1.7897,0.2071,12.2344,1449,2858.78
16979,-4.361,-0.2945,11.394,1459,2858.78
16984,-0.7051,2.6157,9.1411,1482,2858.78
16989,2.2027,3.9935,10.4256,1449,2858.78
16994,-1.7777,0.8787,11.9818,1453,2858.78
16999,-3.62,-0.9661,11.9734,1453,2858.78
17004,-2.0327,2.2877,9.092,1483,2858.91
17009,2.0375,3.8583,10.2843,1455,2858.91
17014,-0.48,1.4808,11.6167,1451,2858.91
17019,-2.788,-1.4868,12.2308,1455,2858.91
17024,-3.3375,1.7645,9.3122,1485,2858.64
17029,1.7298,3.4488,10.2005,1449,2858.64
17034,1.221,2.1775,11.2958,1453,2858.64
17039,-2.0411,-1.3707,12.4008,1446,2858.64
17044,-4.2485,1.2366,9.8761,1461,2858.64
17049,1.1552,3.1903,9.8557,1464,2858.64
17054,2.2877,2.9987,10.9583,1446,2858.64
17059,-1.6352,-0.7003,12.4199,1448,2858.64
17064,-4.6148,0.5219,10.5393,1454,2858.64
17069,0.5411,2.9772,9.4571,1467,2858.78
17074,2.4828,3.6021,10.7188,1448,2858.78
17079,-1.804,0.1269,12.2811,1449,2858.78
17084,-4.2964,-0.2334,11.3054,1455,2858.78
17089,-0.5638,2.6384,9.0932,1465,2859.19
17094,2.2122,3.8044,10.4567,1451,2859.19
17099,-1.7741,0.7733,11.9806,1455,2859.19
17104,-3.6356,-0.9816,11.8058,1452,2859.19
17109,-1.913,2.3044,9.0992,1483,2859.73
17114,1.895,3.7852,10.3729,1455,2859.73
17119,-0.6117,1.4581,11.7567,1445,2859.73
17124,-2.9245,-1.4784,12.208,1455,2859.73
17129,-3.2406,1.8914,9.2464,1484,2860.28
17134,1.7358,3.5171,10.1167,1449,2860.28
17139,1.136,2.1608,11.3365,1455,2860.28
17144,-2.071,-1.3755,12.3637,1450,2860.28
17149,-4.1611,1.2809,9.8258,1465,2860.28
17154,1.3288,3.2238,9.8581,1461,2860.68
17159,2.3176,2.897,11.0313,1449,2860.68
17164,-1.5479,-0.8116,12.3948,1448,2860.68
17169,-4.5825,0.5926,10.4531,1446,2860.68
17174,0.5578,2.9341,9.4846,1455,2860.96
17179,2.4481,3.4931,10.75,1450,2860.96
17184,-1.7047,-0.0048,12.2775,1444,2860.96
17189,-4.4604,-0.1879,11.248,1453,2860.96
17194,-0.4417,2.7114,9.1554,1478,2860.82
17199,2.2039,3.8858,10.4878,1449,2860.82
17204,-1.81,0.753,12.0764,1453,2860.82
17209,-3.8882,-0.8487,11.7843,1454,2860.82
17214,-1.6807,2.4062,9.1111,1481,2860.96
17219,2.0638,3.881,10.4028,1451,2860.96
17224,-0.9062,1.3096,11.6933,1451,2860.96
17229,-2.9425,-1.3731,12.1817,1459,2860.96
17234,-2.9963,1.919,9.1889,1479,2860.41
17239,1.7669,3.5925,10.1813,1448,2860.41
17244,0.8607,2.0123,11.3713,1463,2860.41
17249,-2.1715,-1.4533,12.4283,1451,2860.41
17254,-4.1228,1.342,9.6893,1453,2860.41
17259,1.3779,3.2657,9.9407,1453,2860.14
17264,2.1596,2.7713,11.0959,1453,2860.14
17269,-1.6664,-0.9361,12.4343,1448,2860.14
17274,-4.5897,0.741,10.3597,1451,2860.14
17279,0.7458,3.0454,9.5804,1455,2859.87
17284,2.4672,3.4728,10.7129,1455,2859.87
17289,-1.7262,-0.0587,12.384,1449,2859.87
17294,-4.4341,0.0084,11.1306,1451,2859.87
17299,-0.2322,2.727,9.1901,1479,2859.73
17304,2.3116,3.8451,10.5405,1452,2859.73
17309,-1.8663,0.6321,12.1171,1455,2859.73
17314,-3.8427,-0.7997,11.6789,1455,2859.73
17319,-1.5,2.4157,9.0022,1470,2859.73
17324,2.0255,3.8355,10.392,1459,2859.73
17329,-1.0487,1.2342,11.8202,1449,2859.73
17334,-3.1388,-1.3408,12.0692,1455,2859.73
17339,-2.9102,1.9932,9.2237,1467,2859.59
17344,1.8124,3.5937,10.246,1449,2859.59
17349,0.5974,1.8759,11.4311,1461,2859.59
17354,-2.2673,-1.4305,12.2858,1451,2859.59
17359,-3.978,1.5167,9.6869,1452,2859.59
17364,1.4808,3.3291,9.9754,1455,2860.55
17369,2.0518,2.7043,11.0887,1453,2860.55
17374,-1.658,-0.99,12.3732,1449,2860.55
17379,-4.5358,0.8068,10.24,1451,2860.55
17384,0.8643,3.0071,9.584,1464,2860.68
17389,2.5019,3.3662,10.7895,1454,2860.68
17394,-1.6448,-0.2071,12.2882,1449,2860.68
17399,-4.531,0.0132,11.0421,1447,2860.68
17404,-0.1664,2.7785,9.2308,1461,2860.41
17409,2.2446,3.8008,10.5441,1455,2860.41
17414,-1.8052,0.5662,12.1697,1453,2860.41
17419,-4.1073,-0.6369,11.6825,1451,2860.41
17424,-1.342,2.4816,9.0716,1479,2860.0
17429,2.0865,3.881,10.3944,1453,2860.0
17434,-1.3048,1.154,11.8046,1450,2860.0
17439,-3.2094,-1.2677,12.0847,1453,2860.0
17444,-2.6971,2.059,9.1482,1477,2859.73
17449,1.8914,3.6428,10.1921,1451,2859.73
17454,0.3388,1.7538,11.5053,1464,2859.73
17459,-2.3655,-1.5395,12.3625,1451,2859.73
17464,-3.8499,1.5179,9.5277,1449,2859.73
17469,1.5107,3.2956,10.0018,1463,2859.05
17474,1.8747,2.5486,11.1306,1447,2859.05
17479,-1.7238,-1.087,12.4415,1449,2859.05
17484,-4.5095,0.8751,10.1538,1449,2859.05
17489,0.911,3.0825,9.657,1463,2859.05
17494,2.4289,3.3184,10.835,1455,2859.05
17499,-1.6867,-0.2981,12.4235,1451,2859.05
17504,-4.4879,0.1927,10.9092,1449,2859.05
17509,0.0263,2.8347,9.2871,1465,2858.91
17514,2.3499,3.7984,10.5321,1451,2858.91
17519,-1.8124,0.4872,12.1242,1451,2858.91
17524,-4.0594,-0.6069,11.5496,1451,2858.91
17529,-1.1325,2.4936,9.0333,1478,2859.05
17534,2.0842,3.8714,10.4507,1457,2859.05
17539,-1.4006,1.0403,11.7747,1449,2859.05
17544,-3.2537,-1.2857,12.0153,1449,2859.05
17549,-2.6133,2.0889,9.183,1487,2859.05
17554,1.7933,3.6488,10.2915,1454,2859.05
17559,0.182,1.7178,11.4766,1461,2859.05
17564,-2.5007,-1.4581,12.2894,1445,2859.05
17569,-3.7924,1.6616,9.5313,1447,2859.05
17574,1.5933,3.3758,10.0257,1461,2858.78
17579,1.7777,2.5391,11.1558,1454,2858.78
17584,-1.7609,-1.1229,12.402,1450,2858.78
17589,-4.4053,0.9517,10.1766,1451,2858.78
17594,0.9732,3.0789,9.6905,1463,2858.78
17599,2.5271,3.2166,10.8278,1454,2858.78
17604,-1.5407,-0.3903,12.3325,1451,2858.78
17609,-4.5191,0.1987,10.8745,1449,2858.78
17614,0.0874,2.7593,9.3206,1465,2858.91
17619,2.3535,3.7409,10.562,1453,2858.91
17624,-1.7825,0.4178,12.1841,1445,2858.91
17629,-4.221,-0.5854,11.5544,1451,2858.91
17634,-1.0475,2.5019,9.086,1472,2858.78
17639,2.0853,3.9133,10.4375,1459,2858.78
17644,-1.5443,1.0846,11.8597,1447,2858.78
17649,-3.3854,-1.1564,12.0512,1451,2858.78
17654,-2.4026,2.2254,9.171,1485,2858.64
17659,1.9632,3.784,10.2544,1451,2858.64
17664,0.0048,1.6975,11.5616,1461,2858.64
17669,-2.4924,-1.4676,12.2679,1446,2858.64
17674,-3.6583,1.6113,9.4643,1451,2858.64
17679,1.6017,3.3543,10.0449,1455,2858.5
17684,1.7406,2.4241,11.2132,1455,2858.5
17689,-1.7861,-1.2737,12.3984,1445,2858.5
17694,-4.4161,0.9984,10.088,1455,2858.5
17699,0.9936,3.1125,9.7229,1463,2858.64
17704,2.3762,3.1867,10.8433,1453,2858.64
17709,-1.5897,-0.4549,12.3864,1451,2858.64
17714,-4.5262,0.3041,10.7978,1449,2858.64
17719,0.2095,2.9113,9.3937,1467,2858.64
17724,2.3631,3.7481,10.6075,1453,2858.64
17729,-1.8052,0.3795,12.208,1447,2858.64
17734,-4.1539,-0.4489,11.4419,1449,2858.64
17739,-0.9505,2.5786,9.1315,1481,2858.91
17744,2.132,3.8702,10.4052,1455,2858.91
17749,-1.5299,0.972,11.9004,1449,2858.91
17754,-3.4046,-1.1947,11.9231,1459,2858.91
17759,-2.3116,2.15,9.1686,1479,2858.64
17764,1.8818,3.6799,10.2963,1455,2858.64
17769,-0.0778,1.5886,11.5831,1459,2858.64
17774,-2.6121,-1.4904,12.2607,1450,2858.64
17779,-3.5626,1.7166,9.3948,1453,2858.64
17784,1.6161,3.4177,10.0856,1469,2859.59
17789,1.6029,2.3607,11.2731,1455,2859.59
17794,-1.8591,-1.2163,12.4091,1447,2859.59
17799,-4.3503,1.1133,10.0556,1455,2859.59
17804,1.1468,3.1484,9.7863,1464,2859.46
17809,2.4888,3.128,10.884,1453,2859.46
17814,-1.5455,-0.4896,12.372,1453,2859.46
17819,-4.4927,0.3424,10.6626,1453,2859.46
17824,0.2574,2.8264,9.3422,1467,2859.46
17829,2.4349,3.6332,10.6039,1453,2859.46
17834,-1.7418,0.2705,12.1853,1446,2859.46
17839,-4.3335,-0.4501,11.4443,1453,2859.46
17844,-0.8619,2.6073,9.1291,1480,2859.73
17849,2.1476,3.9205,10.4543,1453,2859.73
17854,-1.7298,0.923,11.9662,1449,2859.73
17859,-3.5566,-1.0846,12.0045,1450,2859.73
17864,-2.1859,2.247,9.0728,1465,2859.59
17869,2.0027,3.8116,10.3334,1453,2859.59
17874,-0.3555,1.5622,11.625,1445,2859.59
17879,-2.6133,-1.4234,12.3014,1447,2859.59
17884,-3.3938,1.7621,9.335,1455,2859.59
17889,1.6676,3.4728,10.0796,1465,2859.46
17894,1.4437,2.2505,11.2695,1463,2859.46
17899,-1.8304,-1.3384,12.378,1446,2859.46
17904,-4.3407,1.1205,9.9359,1454,2859.46
17909,1.0846,3.122,9.8545,1465,2859.46
17914,2.3523,3.0586,10.9475,1451,2859.46
17919,-1.5981,-0.6333,12.39,1447,2859.46
17924,-4.6663,0.4585,10.6195,1453,2859.46
17929,0.3938,2.9245,9.4403,1469,2859.19
17934,2.4146,3.6871,10.6027,1447,2859.19
17939,-1.8675,0.2215,12.2751,1447,2859.19
17944,-4.2653,-0.2741,11.3689,1454,2859.19
17949,-0.7003,2.7007,9.1087,1481,2859.19
17954,2.1859,3.8762,10.3705,1455,2859.19
17959,-1.6472,0.8751,11.9794,1449,2859.19
17964,-3.6392,-1.0235,11.8202,1453,2859.19
17969,-2.0027,2.2601,9.1123,1469,2859.05
17974,1.9429,3.7338,10.3418,1455,2859.05
17979,-0.486,1.4449,11.7005,1451,2859.05
17984,-2.7629,-1.4736,12.2104,1452,2859.05
17989,-3.3782,1.7849,9.3158,1463,2859.46
17994,1.6807,3.4237,10.1538,1451,2859.46
17999,1.2689,2.2015,11.3665,1456,2859.46
18004,-2.0123,-1.3372,12.3852,1447,2859.46
18009,-4.2629,1.2701,9.9276,1461,2859.46
18014,1.2222,3.2082,9.8665,1463,2859.05
18019,2.3547,3.0071,10.9966,1447,2859.05
18024,-1.5622,-0.6644,12.3792,1445,2859.05
18029,-4.5179,0.5183,10.5524,1453,2859.05
18034,0.4585,2.8958,9.4308,1467,2859.19
18039,2.4828,3.5434,10.6315,1451,2859.19
18044,-1.6712,0.1149,12.2487,1444,2859.19
18049,-4.373,-0.3184,11.236,1455,2859.19
18054,-0.5531,2.6671,9.1351,1478,2859.32
18059,2.1656,3.8295,10.4267,1452,2859.32
18064,-1.8328,0.7805,12.0644,1449,2859.32
18069,-3.723,-0.9708,11.8752,1453,2859.32
18074,-1.9273,2.3236,9.0597,1461,2859.19
18079,2.0063,3.8535,10.3585,1453,2859.19
18084,-0.6177,1.4521,11.7041,1451,2859.19
18089,-2.8994,-1.3731,12.202,1455,2859.19
18094,-3.1927,1.9417,9.2524,1485,2859.73
18099,1.816,3.5554,10.1299,1447,2859.73
18104,1.16,2.0985,11.3078,1451,2859.73
18109,-1.9692,-1.4509,12.3625,1451,2859.73
18114,-4.1863,1.2306,9.7552,1461,2859.73
18119,1.2605,3.1867,9.8892,1466,2859.46
18124,2.2446,2.891,10.9343,1451,2859.46
18129,-1.634,-0.8284,12.4546,1445,2859.46
18134,-4.6304,0.6357,10.4651,1451,2859.46
18139,0.577,2.9449,9.4906,1468,2859.46
18144,2.4409,3.5781,10.6374,1453,2859.46
18149,-1.798,0.0323,12.3265,1447,2859.46
18154,-4.4077,-0.1245,11.2192,1459,2859.46
18159,-0.4298,2.7222,9.2057,1481,2859.73
18164,2.2745,3.9121,10.4555,1451,2859.73
18169,-1.7957,0.7566,12.0153,1451,2859.73
18174,-3.7769,-0.8464,11.7986,1448,2859.73
18179,-1.737,2.3224,9.0285,1482,2859.46
18184,2.0423,3.717,10.3501,1459,2859.46
18189,-0.7913,1.2402,11.7352,1445,2859.46
18194,-2.9437,-1.4497,12.1123,1459,2859.46
18199,-3.0502,1.8866,9.2416,1487,2857.69
18204,1.7274,3.5494,10.2017,1449,2857.69
18209,0.8631,2.0039,11.4132,1452,2857.69
18214,-2.1679,-1.3803,12.3433,1447,2857.69
18219,-4.1156,1.4006,9.7875,1447,2857.69
18224,1.3168,3.2825,9.9,1461,2857.28
18229,2.1524,2.9042,11.1247,1450,2857.28
18234,-1.6101,-0.7841,12.3589,1448,2857.28
18239,-4.5226,0.6859,10.4663,1451,2857.28
18244,0.65,2.9796,9.5241,1469,2856.05
18249,2.4828,3.4453,10.7069,1452,2856.05
18254,-1.5814,-0.0072,12.2799,1447,2856.05
18259,-4.3778,-0.1496,11.1426,1459,2856.05
18264,-0.3771,2.6875,9.1877,1484,2855.51
18269,2.162,3.7816,10.4806,1446,2855.51
18274,-1.7957,0.7219,12.0093,1452,2855.51
18279,-3.8607,-0.8775,11.7507,1449,2855.51
18284,-1.7406,2.4002,9.1016,1485,2855.24
18289,2.0051,3.8523,10.386,1459,2855.24
18294,-0.8631,1.3443,11.6741,1448,2855.24
18299,-2.9305,-1.3384,12.1949,1459,2855.24
18304,-3.0921,1.9908,9.2919,1485,2854.56
18309,1.7992,3.5817,10.1418,1448,2854.56
18314,1.0175,2.0423,11.3665,1449,2854.56
18319,-2.0279,-1.3922,12.3206,1445,2854.56
18324,-4.1252,1.3252,9.7444,1459,2854.56
18329,1.2917,3.2166,9.8797,1465,2853.61
18334,2.1979,2.8156,10.981,1449,2853.61
18339,-1.5718,-0.8164,12.384,1445,2853.61
18344,-4.5861,0.5351,10.4974,1449,2853.61
18349,0.5183,2.9616,9.5253,1469,2853.34
18354,2.3607,3.5494,10.6446,1451,2853.34
18359,-1.8423,0.0634,12.2715,1448,2853.34
18364,-4.3562,-0.1341,11.2432,1455,2853.34
18369,-0.5291,2.7521,9.2739,1465,2852.93
18374,2.1823,3.8738,10.4806,1453,2852.93
18379,-1.7837,0.8452,12.0105,1445,2852.93
18384,-3.6344,-0.8966,11.8309,1448,2852.93
18389,-1.8316,2.3284,9.1063,1463,2851.71
18394,2.0243,3.723,10.2963,1453,2851.71
18399,-0.6464,1.3791,11.6514,1453,2851.71
18404,-2.8168,-1.4784,12.1781,1451,2851.71
18409,-3.2286,1.8088,9.3877,2123,2851.85
18414,1.6544,3.4824,10.1574,1453,2851.85
18419,1.0918,2.1632,11.3581,1455,2851.85
18424,-2.0004,-1.3408,12.3038,1446,2851.85
18429,-4.2222,1.2677,9.8378,1456,2851.85
18434,1.245,3.1963,9.8761,1463,2852.93
18439,2.2446,3.0059,10.9726,1449,2852.93
18444,-1.5826,-0.6524,12.3864,1447,2852.93
18449,-4.452,0.5447,10.6243,1449,2852.93
18454,0.413,2.9018,9.4786,1465,2852.12
18459,2.4193,3.6081,10.6362,1453,2852.12
18464,-1.7322,0.152,12.2092,1445,2852.12
18469,-4.2497,-0.3519,11.3258,1447,2852.12
18474,-0.7027,2.5917,9.2069,1481,2852.12
18479,2.1249,3.8463,10.4208,1453,2852.12
18484,-1.6819,0.8499,11.9327,1451,2852.12
18489,-3.5805,-1.0283,11.8956,1447,2852.12
18494,-2.0925,2.3104,9.1315,1467,2852.12
18499,1.9381,3.8008,10.3046,1451,2852.12
18504,-0.4274,1.5395,11.6215,1455,2852.12
18509,-2.6516,-1.3551,12.2583,1448,2852.12
18514,-3.3962,1.7693,9.4308,1450,2852.12
18519,1.6269,3.4644,10.0844,1463,2852.39
18524,1.4892,2.2805,11.2551,1455,2852.39
18529,-1.7633,-1.2522,12.3433,1447,2852.39
18534,-4.2509,1.0834,9.9347,1448,2852.39
18539,1.0762,3.1089,9.7612,1463,2853.07
18544,2.3475,3.0382,10.9235,1451,2853.07
18549,-1.579,-0.5926,12.3672,1452,2853.07
18554,-4.5394,0.3615,10.7296,1449,2853.07
18559,0.2346,2.9054,9.3901,1464,2853.2
18564,2.2972,3.7098,10.5955,1455,2853.2
18569,-1.8399,0.3364,12.2068,1451,2853.2
18574,-4.221,-0.3903,11.4299,1450,2853.2
18579,-0.838,2.6336,9.2105,1479,2853.34
18584,2.1261,3.9253,10.4411,1459,2853.34
18589,-1.6077,1.0044,11.9375,1452,2853.34
18594,-3.3782,-1.0558,11.9327,1453,2853.34
18599,-2.2829,2.1979,9.1207,1481,2853.61
18604,1.9201,3.6727,10.2352,1451,2853.61
18609,-0.1161,1.5838,11.5736,1463,2853.61
18614,-2.5582,-1.5275,12.208,1451,2853.61
18619,-3.6368,1.6604,9.4164,1451,2853.61
18624,1.5443,3.3998,10.0987,1461,2853.47
18629,1.4784,2.3798,11.2085,1456,2853.47
18634,-1.7957,-1.227,12.4295,1451,2853.47
18639,-4.4125,1.0762,10.0173,1449,2853.47
18644,0.996,3.1484,9.7516,1463,2853.47
18649,2.3846,3.2082,10.7859,1461,2853.47
18654,-1.5826,-0.3735,12.3852,1453,2853.47
18659,-4.4772,0.3412,10.8074,1453,2853.47
18664,0.1401,2.8611,9.3625,1453,2853.34
18669,2.393,3.6787,10.5261,1452,2853.34
18674,-1.7992,0.3699,12.147,1454,2853.34
18679,-4.1408,-0.5614,11.4658,1453,2853.34
18684,-1.0487,2.557,9.0824,1479,2853.07
18689,2.0985,3.8307,10.3645,1459,2853.07
18694,-1.4676,1.0295,11.88,1451,2853.07
18699,-3.4285,-1.1372,12.0464,1459,2853.07
18704,-2.472,2.2051,9.1674,1462,2852.93
18709,1.8495,3.6943,10.2376,1447,2852.93
18714,0.0096,1.6855,11.5329,1461,2852.93
18719,-2.3667,-1.3695,12.2583,1453,2852.93
18724,-3.65,1.6053,9.5337,1460,2852.93
18729,1.506,3.3854,10.0604,1453,2852.8
18734,1.7837,2.4804,11.1642,1453,2852.8
18739,-1.7142,-1.0762,12.4475,1451,2852.8
18744,-4.4125,0.9242,10.1227,1450,2852.8
18749,0.9792,3.0538,9.7121,1461,2853.61
18754,2.4074,3.2022,10.8206,1455,2853.61
18759,-1.6448,-0.4094,12.3361,1451,2853.61
18764,-4.5083,0.158,10.8828,1453,2853.61
18769,0.0431,2.8132,9.4008,1465,2853.75
18774,2.2565,3.8116,10.574,1452,2853.75
18779,-1.8747,0.5076,12.1673,1451,2853.75
18784,-4.0785,-0.5136,11.5436,1453,2853.75
18789,-1.1791,2.5426,9.1207,1481,2854.29
18794,2.1464,3.8918,10.4064,1451,2854.29
18799,-1.3443,1.0858,11.8489,1450,2854.29
18804,-3.2765,-1.1863,12.0345,1459,2854.29
18809,-2.5606,2.1117,9.1722,1491,2854.15
18814,1.901,3.6787,10.2663,1447,2854.15
18819,0.2801,1.6975,11.4491,1459,2854.15
18824,-2.3284,-1.5227,12.2978,1451,2854.15
18829,-3.8032,1.4868,9.5744,1461,2854.15
18834,1.4293,3.3543,10.0868,1459,2853.75
18839,1.8423,2.5582,11.1678,1431,2853.75
18844,-1.7502,-1.1289,12.3924,1451,2853.75
18849,-4.5011,0.9529,10.258,1451,2853.75
18854,0.9218,3.0885,9.7013,1465,2853.47
18859,2.4732,3.3567,10.7667,1453,2853.47
18864,-1.6185,-0.2442,12.3457,1451,2853.47
18869,-4.4257,0.1616,10.999,1459,2853.47
18874,-0.0227,2.7761,9.2835,1480,2853.47
18879,2.3176,3.7158,10.55,1449,2853.47
18884,-1.8411,0.4824,12.147,1455,2853.47
18889,-3.9037,-0.68,11.5879,1453,2853.47
18894,-1.3647,2.4696,9.1195,1480,2853.34
18899,2.0435,3.8439,10.3418,1453,2853.34
18904,-1.2414,1.148,11.7914,1447,2853.34
18909,-3.1747,-1.221,12.0728,1459,2853.34
18914,-2.7964,2.0913,9.262,1466,2852.93
18919,1.7693,3.6464,10.2807,1448,2852.93
18924,0.4645,1.8519,11.467,1455,2852.93
18929,-2.2721,-1.3934,12.2787,1449,2852.93
18934,-3.881,1.5275,9.6103,1463,2852.93
18939,1.4724,3.322,9.9635,1461,2853.75
18944,2.0291,2.6228,11.0828,1451,2853.75
18949,-1.6065,-0.9744,12.3684,1443,2853.75
18954,-4.4532,0.7434,10.3046,1454,2853.75
18959,0.7446,2.9999,9.5876,1467,2853.75
18964,2.4253,3.3387,10.7141,1452,2853.75
18969,-1.6173,-0.1999,12.3242,1440,2853.75
18974,-4.5238,-0.0192,10.9726,1456,2853.75
18979,-0.2011,2.7701,9.3302,1478,2853.88
18984,2.1991,3.8104,10.4938,1451,2853.88
18989,-1.919,0.6333,12.0416,1451,2853.88
18994,-3.893,-0.6835,11.6574,1453,2853.88
18999,-1.4892,2.4684,9.1279,1482,2854.29
19004,2.0626,3.8738,10.3561,1459,2854.29
19009,-1.0786,1.2402,11.7053,1450,2854.29
19014,-2.9987,-1.3192,12.1171,1459,2854.29
19019,-2.8659,1.9896,9.2416,1467,2854.42
19024,1.8328,3.6069,10.2568,1451,2854.42
19029,0.6871,1.8579,11.4419,1453,2854.42
19034,-2.15,-1.4473,12.3493,1449,2854.42
19039,-3.9995,1.342,9.7109,1459,2854.42
19044,1.3587,3.2394,9.9551,1463,2854.29
19049,2.0662,2.7126,11.0804,1449,2854.29
19054,-1.6855,-0.9337,12.3696,1447,2854.29
19059,-4.5645,0.7901,10.3645,1449,2854.29
19064,0.7446,3.0203,9.5768,1469,2854.15
19069,2.4636,3.4548,10.7069,1451,2854.15
19074,-1.7131,-0.0934,12.2607,1447,2854.15
19079,-4.3802,0.0132,11.1067,1454,2854.15
19084,-0.3112,2.7294,9.2632,1482,2854.29
19089,2.2817,3.8367,10.556,1453,2854.29
19094,-1.7753,0.6416,12.0752,1449,2854.29
19099,-3.8247,-0.8104,11.6885,1451,2854.29
19104,-1.5682,2.3631,9.0836,1470,2854.15
19109,1.962,3.784,10.343,1459,2854.15
19114,-1.0714,1.239,11.6993,1452,2854.15
19119,-3.0335,-1.342,12.1087,1456,2854.15
19124,-3.0023,1.9788,9.2308,1465,2853.88
19129,1.6975,3.5626,10.2472,1444,2853.88
19134,0.759,2.0063,11.4539,1459,2853.88
19139,-2.1895,-1.3743,12.3218,1445,2853.88
19144,-4.063,1.4138,9.6845,1461,2853.88
19149,1.3719,3.2453,9.93,1460,2854.29
19154,2.156,2.7904,11.0552,1453,2854.29
19159,-1.5718,-0.9122,12.3792,1439,2854.29
19164,-4.5274,0.6596,10.3884,1451,2854.29
19169,0.6189,2.964,9.5732,1467,2854.42
19174,2.4229,3.4488,10.7033,1454,2854.42
19179,-1.664,-0.0455,12.311,1448,2854.42
19184,-4.4377,-0.1293,11.1929,1458,2854.42
19189,-0.3962,2.7078,9.2608,1463,2854.83
19194,2.2003,3.869,10.4543,1455,2854.83
19199,-1.8842,0.6895,12.0177,1445,2854.83
19204,-3.7936,-0.8404,11.807,1450,2854.83
19209,-1.7071,2.3798,9.177,1463,2854.97
19214,2.0291,3.8966,10.3525,1459,2854.97
19219,-0.8499,1.3408,11.6993,1453,2854.97
19224,-2.9473,-1.4018,12.1458,1451,2854.97
19229,-3.0179,1.9285,9.25,1459,2855.24
19234,1.8364,3.5793,10.1789,1465,2855.24
19239,0.9266,2.0099,11.3844,1461,2855.24
19244,-1.9992,-1.4257,12.3649,1447,2855.24
19249,-4.0773,1.3312,9.7576,1459,2855.24
19254,1.2629,3.2537,9.8126,1465,2855.38
19259,2.1632,2.8264,11.0169,1451,2855.38
19264,-1.5874,-0.8475,12.4259,1448,2855.38
19269,-4.5741,0.6584,10.4878,1449,2855.38
19274,0.5555,3.0107,9.6043,1467,2855.65
19279,2.4541,3.5338,10.7308,1455,2855.65
19284,-1.7154,0.0144,12.2823,1447,2855.65
19289,-4.3694,-0.1077,11.1366,1459,2855.65
19294,-0.4022,2.7114,9.1806,1477,2855.51
19299,2.2948,3.8523,10.4447,1455,2855.51
19304,-1.8842,0.729,12.0021,1449,2855.51
19309,-3.6512,-0.8547,11.7651,1449,2855.51
19314,-1.7621,2.3331,9.074,1480,2855.51
19319,1.9549,3.784,10.3418,1452,2855.51
19324,-0.747,1.3539,11.7041,1451,2855.51
19329,-2.9509,-1.3874,12.1434,1447,2855.51
19334,-3.1388,1.9082,9.2608,1455,2855.51
19339,1.7741,3.5362,10.1981,1464,2855.38
19344,0.9565,2.0363,11.3377,1459,2855.38
19349,-2.0674,-1.391,12.3254,1449,2855.38
19354,-4.1132,1.3276,9.7588,1455,2855.38
19359,1.2917,3.2202,9.9048,1467,2855.78
19364,2.2206,2.8802,10.9774,1447,2855.78
19369,-1.6101,-0.7805,12.384,1452,2855.78
19374,-4.5586,0.5962,10.4686,1453,2855.78
19379,0.5734,2.9712,9.566,1466,2855.92
19384,2.4457,3.5267,10.6757,1454,2855.92
19389,-1.7346,0.0443,12.2499,1447,2855.92
19394,-4.3718,-0.164,11.1953,1452,2855.92
19399,-0.4764,2.6743,9.1937,1485,2856.05
19404,2.223,3.8499,10.4363,1461,2856.05
19409,-1.8567,0.7649,12.0416,1451,2856.05
19414,-3.79,-0.8882,11.8597,1451,2856.05
19419,-1.7777,2.375,9.1111,1486,2856.33
19424,1.7837,3.5841,10.1754,1455,2856.33
19429,-0.7314,1.3934,11.6837,1455,2856.33
19434,-2.077,-1.3922,12.3074,1445,2856.33
19439,-4.1815,1.3216,9.7731,1453,2856.33
19444,1.33,3.1939,9.8976,1465,2856.33
19449,2.2589,2.8647,11.0193,1455,2856.33
19454,-1.6125,-0.8535,12.378,1449,2856.33
19459,-4.5849,0.6165,10.4842,1459,2856.33
19464,0.5902,2.9532,9.4763,1463,2856.6
19469,2.4098,3.535,10.6853,1453,2856.6
19474,-1.8004,0.0275,12.287,1451,2856.6
19479,-4.3503,-0.1006,11.248,1451,2856.6
19484,-0.486,2.7043,9.2392,1467,2856.46
19489,2.2422,3.8451,10.5237,1460,2856.46
19494,-1.7837,0.7554,12.0644,1449,2856.46
19499,-3.7086,-0.8535,11.7831,1448,2856.46
19504,-1.7789,2.3571,9.0513,1483,2856.46
19509,2.0195,3.8379,10.3382,1455,2856.46
19514,-0.7757,1.3683,11.6753,1449,2856.46
19519,-2.8527,-1.4257,12.1482,1453,2856.46
19524,-3.1879,1.8495,9.3063,1471,2856.46
19529,1.7071,3.5243,10.2208,1455,2856.46
19534,1.0403,2.0399,11.3174,1462,2856.46
19539,-2.0482,-1.3587,12.3613,1449,2856.46
19544,-4.1695,1.324,9.8222,1455,2856.46
19549,1.233,3.2322,9.9168,1462,2856.33
19554,2.2206,2.8874,10.9702,1459,2856.33
19559,-1.5514,-0.7733,12.4319,1443,2856.33
19564,-4.5574,0.6129,10.4734,1458,2856.33
19569,0.5794,3.0119,9.4942,1466,2856.46
19574,2.4565,3.5398,10.6578,1455,2856.46
19579,-1.7011,0.0335,12.287,1449,2856.46
19584,-4.3622,-0.1796,11.2276,1459,2856.46
19589,-0.4824,2.6707,9.183,1461,2856.05
19594,2.2505,3.8463,10.4531,1455,2856.05
19599,-1.7657,0.7709,12.0512,1450,2856.05
19604,-3.7589,-0.9266,11.7819,1452,2856.05
19609,-1.7813,2.3044,8.9711,1477,2856.33
19614,1.9788,3.8092,10.3058,1459,2856.33
19619,-0.7338,1.3467,11.7304,1449,2856.33
19624,-2.8922,-1.3623,12.1637,1452,2856.33
19629,-3.1615,1.9178,9.2787,1479,2856.19
19634,1.7765,3.5805,10.167,1453,2856.19
19639,1.0594,2.1045,11.3952,1453,2856.19
19644,-1.9824,-1.3575,12.3146,1451,2856.19
19649,-4.1396,1.3216,9.7803,1453,2856.19
19654,1.2761,3.1903,9.8617,1464,2856.19
19659,2.2541,2.8611,11.0253,1453,2856.19
19664,-1.555,-0.82,12.4343,1449,2856.19
19669,-4.5837,0.5411,10.4926,1451,2856.19
19674,0.5626,2.9006,9.5445,1461,2856.73
19679,2.4026,3.5542,10.7117,1453,2856.73
19684,-1.7717,0.0192,12.2308,1453,2856.73
19689,-4.3814,-0.176,11.2001,1452,2856.73
19694,-0.4848,2.6947,9.1877,1471,2856.6
19699,2.1835,3.8702,10.4698,1451,2856.6
19704,-1.7753,0.7721,12.0105,1451,2856.6
19709,-3.7302,-0.8667,11.8202,1449,2856.6
19714,-1.8112,2.3212,9.0585,1480,2856.6
19719,2.0435,3.808,10.3238,1459,2856.6
19724,-0.68,1.3491,11.6622,1452,2856.6
19729,-2.8455,-1.3815,12.1434,1447,2856.6
19734,-3.1855,1.8878,9.341,1483,2856.33
19739,1.6819,3.4704,10.1598,1453,2856.33
19744,1.063,2.0865,11.3413,1461,2856.33
19749,-2.071,-1.4293,12.3577,1448,2856.33
19754,-4.1647,1.2917,9.7947,1455,2856.33
19759,1.2546,3.2286,9.9096,1463,2856.33
19764,2.1967,2.9018,10.969,1455,2856.33
19769,-1.6412,-0.7721,12.4283,1447,2856.33
19774,-4.5705,0.5866,10.5393,1451,2856.33
19779,0.5555,2.982,9.5756,1464,2856.19
19784,2.4672,3.5949,10.6805,1455,2856.19
19789,-1.7226,0.0994,12.378,1448,2856.19
19794,-4.3179,-0.1796,11.1857,1451,2856.19
19799,-0.4669,2.6887,9.1602,1463,2856.33
19804,2.2458,3.8247,10.4627,1459,2856.33
19809,-1.7873,0.7159,12.074,1453,2856.33
19814,-3.7038,-0.9301,11.8321,1451,2856.33
19819,-1.8459,2.3355,9.0166,1483,2856.6
19824,1.9441,3.8116,10.3286,1461,2856.6
19829,-0.735,1.3683,11.6897,1451,2856.6
19834,-2.8778,-1.4234,12.1985,1453,2856.6
19839,-3.158,1.9381,9.3111,1487,2857.01
19844,1.743,3.565,10.234,1455,2857.01
19849,1.0523,2.0806,11.412,1461,2857.01
19854,-2.0207,-1.318,12.3948,1448,2857.01
19859,-4.1599,1.2869,9.7911,1447,2857.01
19864,1.2701,3.2537,9.8581,1461,2857.28
19869,2.2529,2.8347,10.9798,1455,2857.28
19874,-1.5634,-0.7745,12.3553,1450,2857.28
19879,-4.5681,0.5507,10.4639,1453,2857.28
19884,0.5842,2.9257,9.5181,1465,2857.42
19889,2.411,3.5159,10.6662,1454,2857.42
19894,-1.7885,0.0622,12.2751,1453,2857.42
19899,-4.4053,-0.1544,11.1534,1451,2857.42
19904,-0.5088,2.66,9.1566,1465,2857.55
19909,2.2314,3.899,10.4746,1458,2857.55
19914,-1.7717,0.7841,12.056,1451,2857.55
19919,-3.8271,-0.8595,11.8034,1449,2857.55
19924,-1.7502,2.3774,9.0992,1471,2857.55
19929,2.0482,3.8726,10.3082,1459,2857.55
19934,-0.814,1.3192,11.6334,1449,2857.55
19939,-2.879,-1.3587,12.1673,1451,2857.55
19944,-3.1173,1.8615,9.2177,1484,2857.69
19949,1.7741,3.5051,10.1682,1448,2857.69
19954,1.0163,2.0482,11.321,1459,2857.69
19959,-2.1488,-1.4497,12.3888,1447,2857.69
19964,-4.1492,1.3132,9.7995,1453,2857.69
19969,1.2797,3.2226,9.8545,1464,2857.28
19974,2.1572,2.885,11.0109,1454,2857.28
19979,-1.6448,-0.8404,12.4295,1447,2857.28
19984,-4.5586,0.6716,10.5034,1453,2857.28
19989,0.5878,3.0023,9.4918,1461,2857.14
19994,2.4541,3.5745,10.7476,1455,2857.14
19999,-1.664,0.0467,12.3182,1455,2857.14
20004,-4.4113,-0.1065,11.1773,1451,2857.14
20009,-0.3962,2.6971,9.1111,1465,2856.73
20014,2.2697,3.8211,10.4483,1459,2856.73
20019,-1.8328,0.668,12.0512,1449,2856.73
20024,-3.7661,-0.8894,11.7352,1452,2856.73
20029,-1.7047,2.3667,9.0321,1478,2856.6
20034,1.9644,3.814,10.3621,1461,2856.6
20039,-0.8116,1.3384,11.6945,1462,2856.6
20044,-2.9987,-1.3683,12.1254,1451,2856.6
20049,-3.0801,1.9513,9.2632,1487,2856.6
20054,1.7478,3.5638,10.1909,1456,2856.6
20059,0.9146,2.0123,11.4156,1462,2856.6
20064,-2.0949,-1.3599,12.3744,1448,2856.6
20069,-4.0965,1.3563,9.8174,1452,2856.6
20074,1.2701,3.2753,9.9012,1463,2856.6
20079,2.241,2.8527,11.0181,1455,2856.6
20084,-1.5479,-0.832,12.396,1448,2856.6
20089,-4.5765,0.5878,10.4387,1451,2856.6
20094,0.6249,2.9281,9.5146,1463,2857.14
20099,2.4696,3.4656,10.6769,1455,2857.14
20104,-1.7274,-0.0287,12.3002,1455,2857.14
20109,-4.3981,-0.1257,11.2025,1447,2857.14
20114,-0.4669,2.6923,9.2237,1467,2856.87
20119,2.1979,3.881,10.4722,1453,2856.87
20124,-1.8052,0.7649,12.0668,1451,2856.87
20129,-3.8343,-0.8272,11.8082,1451,2856.87
20134,-1.7466,2.3846,9.0752,1483,2857.01
20139,2.0746,3.8654,10.3693,1458,2857.01
20144,-0.7781,1.3228,11.7041,1449,2857.01
20149,-2.9628,-1.3599,12.1625,1452,2857.01
20154,-3.0406,1.9381,9.268,1481,2856.73
20159,1.8399,3.5243,10.1801,1457,2856.73
20164,0.9756,1.9824,11.3916,1463,2856.73
20169,-2.1129,-1.4234,12.4295,1447,2856.73
20174,-4.1204,1.3132,9.7408,1453,2856.73
20179,1.2977,3.2202,9.8833,1463,2857.69
20184,2.1129,2.8216,11.0588,1455,2857.69
20189,-1.634,-0.8296,12.4223,1447,2857.69
20194,-4.5693,0.6823,10.4794,1453,2857.69
20199,0.6141,3.0011,9.5325,1461,2857.28
20204,2.4277,3.571,10.732,1455,2857.28
20209,-1.7358,0.0287,12.317,1451,2857.28
20214,-4.391,-0.0634,11.1582,1453,2857.28
20219,-0.3304,2.727,9.1806,1467,2857.28
20224,2.3451,3.8511,10.507,1455,2857.28
20229,-1.8364,0.6943,11.9926,1453,2857.28
20234,-3.7218,-0.8595,11.716,1447,2857.28
20239,-1.7047,2.3475,9.0273,1481,2857.82
20244,1.998,3.8068,10.404,1459,2857.82
20249,-0.8631,1.3001,11.7232,1450,2857.82
20254,-2.9389,-1.3515,12.1111,1451,2857.82
20259,-3.0538,1.9237,9.2392,1487,2858.37
20264,1.7358,3.5662,10.1622,1456,2858.37
20269,0.8871,2.0147,11.3749,1461,2858.37
20274,-2.1979,-1.3659,12.39,1449,2858.37
20279,-4.1312,1.4102,9.7743,1451,2858.37
20284,1.3408,3.2729,9.9204,1465,2858.23
20289,2.229,2.7869,11.0504,1452,2858.23
20294,-1.5766,-0.8763,12.3804,1449,2858.23
20299,-4.5238,0.6728,10.3992,1459,2858.23
20304,0.6177,2.9844,9.5313,1465,2858.23
20309,2.5235,3.4632,10.7332,1453,2858.23
20314,-1.6903,-0.0838,12.3074,1454,2858.23
20319,-4.4353,-0.1053,11.1354,1451,2858.23
20324,-0.3412,2.733,9.2428,1465,2857.96
20329,2.2242,3.8618,10.4519,1455,2857.96
20334,-1.8926,0.6393,12.0979,1447,2857.96
20339,-3.8391,-0.7781,11.7663,1449,2857.96
20344,-1.6472,2.4181,9.0656,1481,2858.1
20349,2.0554,3.9061,10.3693,1455,2858.1
20354,-0.905,1.2881,11.7663,1452,2858.1
20359,-2.9868,-1.324,12.1889,1451,2858.1
20364,-2.9664,1.9644,9.2081,1483,2857.82
20369,1.822,3.6009,10.1682,1451,2857.82
20374,0.8236,1.9166,11.4156,1461,2857.82
20379,-2.1632,-1.4868,12.3385,1449,2857.82
20384,-4.0522,1.3743,9.7037,1450,2857.82
20389,1.3491,3.2597,9.9527,1464,2857.55
20394,2.071,2.7438,11.1211,1453,2857.55
20399,-1.6544,-0.9972,12.4091,1449,2857.55
20404,-4.5442,0.7506,10.3382,1455,2857.55
20409,0.6524,2.9999,9.6163,1461,2857.82
20414,2.4481,3.486,10.7069,1455,2857.82
20419,-1.6484,-0.0539,12.317,1451,2857.82
20424,-4.4377,0.0108,11.0911,1443,2857.82
20429,-0.2562,2.7701,9.2177,1464,2857.69
20434,2.3272,3.8223,10.4878,1455,2857.69
20439,-1.8423,0.6512,12.0692,1453,2857.69
20444,-3.8056,-0.7638,11.6562,1452,2857.69
20449,-1.561,2.4014,9.074,1480,2857.28
20454,2.047,3.8307,10.3801,1459,2857.28
20459,-1.0235,1.2079,11.7807,1449,2857.28
20464,-3.061,-1.3455,12.141,1451,2857.28
20469,-2.9221,1.9896,9.2428,1471,2857.14
20474,1.7298,3.5769,10.2436,1453,2857.14
20479,0.7111,1.9321,11.4191,1461,2857.14
20484,-2.2039,-1.3455,12.3397,1447,2857.14
20489,-4.0115,1.5012,9.6989,1451,2857.14
20494,1.391,3.3028,9.9814,1465,2856.73
20499,2.1201,2.721,11.0816,1454,2856.73
20504,-1.6233,-0.911,12.3625,1447,2856.73
20509,-4.5226,0.741,10.3202,1454,2856.73
20514,0.7314,2.988,9.5624,1461,2857.28
20519,2.5295,3.4058,10.7667,1454,2857.28
20524,-1.6496,-0.1377,12.2499,1453,2857.28
20529,-4.4448,-0.0706,11.0852,1449,2857.28
20534,-0.2478,2.6851,9.2308,1464,2857.42
20539,2.2745,3.8487,10.5405,1463,2857.42
20544,-1.8675,0.6057,12.0931,1451,2857.42
20549,-3.9708,-0.7494,11.7328,1449,2857.42
20554,-1.4976,2.4505,9.092,1485,2857.82
20559,2.0937,3.899,10.4196,1463,2857.82
20564,-1.0487,1.227,11.7879,1453,2857.82
20569,-3.0454,-1.2665,12.1446,1450,2857.82
20574,-2.8611,2.0099,9.1973,1467,2857.42
20579,1.8459,3.5913,10.2364,1455,2857.42
20584,0.7171,1.8794,11.4371,1459,2857.42
20589,-2.1799,-1.4593,12.3301,1449,2857.42
20594,-3.9732,1.4162,9.6546,1455,2857.42
20599,1.4114,3.2262,9.985,1466,2858.23
20604,2.0183,2.6576,11.145,1459,2858.23
20609,-1.6843,-1.0116,12.3876,1447,2858.23
20614,-4.537,0.8033,10.2867,1461,2858.23
20619,0.723,3.0323,9.6391,1465,2857.69
20624,2.4541,3.4477,10.756,1459,2857.69
20629,-1.7166,-0.1353,12.3074,1451,2857.69
20634,-4.4676,0.0443,11.0552,1453,2857.69
20639,-0.17,2.818,9.2261,1469,2857.55
20644,2.3727,3.8618,10.4902,1455,2857.55
20649,-1.7933,0.6381,12.0823,1449,2857.55
20654,-3.9265,-0.7099,11.6562,1453,2857.55
20659,-1.4485,2.3894,9.0561,1481,2857.42
20664,2.1009,3.7876,10.3441,1459,2857.42
20669,-1.1073,1.166,11.7495,1451,2857.42
20674,-3.0921,-1.3156,12.0776,1449,2857.42
20679,-2.8491,2.0051,9.2296,1483,2857.01
20684,1.7801,3.6164,10.2472,1455,2857.01
20689,0.5303,1.9034,11.473,1455,2857.01
20694,-2.3511,-1.4461,12.3445,1449,2857.01
20699,-3.9875,1.4988,9.6403,1451,2857.01
20704,1.4102,3.3579,9.9659,1465,2857.55
20709,2.0626,2.654,11.163,1459,2857.55
20714,-1.6747,-0.9493,12.4463,1448,2857.55
20719,-4.5203,0.7865,10.2639,1455,2857.55
20724,0.8332,3.0011,9.5816,1464,2857.69
20729,2.4481,3.3411,10.7548,1449,2857.69
20734,-1.6257,-0.1736,12.3457,1453,2857.69
20739,-4.446,-0.0192,10.9954,1451,2857.69
20744,-0.1712,2.7342,9.2404,1467,2857.55
20749,2.2709,3.8235,10.5704,1463,2857.55
20754,-1.8316,0.6057,12.0835,1451,2857.55
20759,-4.0067,-0.7195,11.6669,1454,2857.55
20764,-1.4054,2.4756,9.0668,1483,2857.96
20769,2.0734,3.9145,10.422,1454,2857.96
20774,-1.2079,1.1444,11.8286,1448,2857.96
20779,-3.1472,-1.2354,12.0787,1451,2857.96
20784,-2.7785,2.0722,9.2165,1487,2857.82
20789,1.8352,3.6631,10.2879,1453,2857.82
20794,0.5986,1.81,11.479,1461,2857.82
20799,-2.2889,-1.4174,12.2942,1447,2857.82
20804,-3.9397,1.4569,9.5792,1459,2857.82
20809,1.4389,3.3088,9.979,1465,2857.55
20814,1.9609,2.5977,11.0983,1459,2857.55
20819,-1.7095,-1.0606,12.3912,1447,2857.55
20824,-4.5322,0.8595,10.2639,1461,2857.55
20829,0.7829,2.9904,9.6941,1467,2857.96
20834,2.4062,3.3591,10.7607,1455,2857.96
20839,-1.6795,-0.1604,12.3517,1452,2857.96
20844,-4.4951,0.1425,10.9307,1451,2857.96
20849,-0.0934,2.8084,9.2811,1469,2857.82
20854,2.3296,3.8391,10.5441,1455,2857.82
20859,-1.8471,0.571,12.0907,1448,2857.82
20864,-4.0055,-0.6381,11.6155,1455,2857.82
20869,-1.2821,2.4229,9.0513,1483,2857.42
20874,2.1476,3.814,10.3465,1461,2857.42
20879,-1.2019,1.1444,11.7579,1445,2857.42
20884,-3.1795,-1.2546,12.0859,1451,2857.42
20889,-2.7162,2.0446,9.1566,1485,2857.28
20894,1.7849,3.65,10.228,1459,2857.28
20899,0.419,1.7885,11.5221,1459,2857.28
20904,-2.3954,-1.5,12.3601,1447,2857.28
20909,-3.9181,1.549,9.56,1451,2857.28
20914,1.47,3.3507,9.9898,1465,2857.14
20919,1.9489,2.6468,11.1594,1455,2857.14
20924,-1.6939,-1.0187,12.4295,1451,2857.14
20929,-4.4867,0.9206,10.2831,1455,2857.14
20934,0.8212,3.0789,9.5624,1466,2858.1
20939,2.4541,3.3519,10.805,1451,2858.1
20944,-1.573,-0.2658,12.3206,1447,2858.1
20949,-4.4843,0.0742,10.8864,1447,2858.1
20954,-0.0862,2.7593,9.2919,1469,2857.82
20959,2.2805,3.7433,10.5453,1445,2857.82
20964,-1.8471,0.492,12.1685,1451,2857.82
20969,-4.0426,-0.6644,11.5616,1450,2857.82
20974,-1.318,2.4924,9.1111,1487,2858.1
20979,2.0674,3.863,10.4076,1455,2858.1
20984,-1.2246,1.1169,11.8058,1449,2858.1
20989,-3.2813,-1.2665,12.0452,1450,2858.1
20994,-2.6612,2.1237,9.1626,1482,2858.23
20999,1.919,3.6739,10.2472,1455,2858.23
21004,0.3938,1.7753,11.5341,1454,2858.23
21009,-2.326,-1.4581,12.2906,1445,2858.23
21014,-3.8176,1.5706,9.517,1455,2858.23
21019,1.5179,3.2956,9.9766,1463,2857.96
21024,1.9321,2.4876,11.1725,1459,2857.96
21029,-1.7119,-1.1265,12.4331,1449,2857.96
21034,-4.5095,0.8667,10.2232,1459,2857.96
21039,0.9074,3.0263,9.657,1465,2858.37
21044,2.4289,3.2741,10.829,1454,2858.37
21049,-1.6568,-0.3065,12.39,1452,2858.37
21054,-4.5574,0.1891,10.8745,1452,2858.37
21059,-0.0144,2.8168,9.3051,1470,2858.5
21064,2.3882,3.8188,10.4998,1453,2858.5
21069,-1.8878,0.4741,12.1769,1449,2858.5
21074,-4.0654,-0.5531,11.5484,1450,2858.5
21079,-1.2007,2.5223,9.0058,1483,2858.78
21084,2.162,3.8942,10.3585,1460,2858.78
21089,-1.3611,1.1097,11.789,1451,2858.78
21094,-3.2477,-1.1995,12.0428,1450,2858.78
21099,-2.5726,2.0602,9.1028,1465,2859.19
21104,1.8747,3.6571,10.3058,1453,2859.19
21109,0.2083,1.7035,11.5329,1452,2859.19
21114,-2.4744,-1.482,12.2679,1450,2859.19
21119,-3.784,1.5538,9.5014,2165,2858.5
21124,1.5251,3.3339,10.094,1453,2858.5
21129,1.7538,2.5199,11.1797,1459,2858.5
21134,-1.816,-1.1061,12.4283,1447,2858.5
21139,-4.4855,0.9792,10.1466,1462,2858.5
21144,0.923,3.0694,9.7671,1467,2860.41
21149,2.4708,3.2346,10.8816,1451,2860.41
21154,-1.5742,-0.3747,12.3984,1447,2860.41
21159,-4.5298,0.1856,10.8481,1454,2860.41
21164,0.1221,2.818,9.3003,1465,2859.59
21169,2.3655,3.7086,10.5656,1453,2859.59
21174,-1.7597,0.4286,12.1805,1450,2859.59
21179,-4.2102,-0.5471,11.5568,1466,2859.59
21184,-1.0499,2.5355,9.0776,1470,2859.59
21189,2.138,3.9073,10.4172,1453,2859.59
21194,-1.5167,1.0032,11.825,1449,2859.59
21199,-3.4429,-1.1504,11.9554,1453,2859.59
21204,-2.4624,2.1955,9.1016,1471,2859.87
21209,1.9213,3.699,10.3226,1456,2859.87
21214,0.0299,1.6448,11.5855,1449,2859.87
21219,-2.5163,-1.4413,12.2811,1451,2859.87
21224,-3.6787,1.6999,9.4475,1466,2859.73
21229,1.5814,3.3986,10.0221,1453,2859.73
21234,1.6975,2.387,11.2192,1464,2859.73
21239,-1.8399,-1.2031,12.4259,1449,2859.73
21244,-4.4125,1.0534,9.9778,1465,2859.73
21249,1.0451,3.0861,9.6307,1465,2859.87
21254,2.4241,3.1412,10.8864,1452,2859.87
21259,-1.6053,-0.5183,12.3816,1451,2859.87
21264,-4.6483,0.3256,10.6925,1453,2859.87
21269,0.243,2.8264,9.3158,1465,2859.87
21274,2.3727,3.7026,10.6434,1453,2859.87
21279,-1.889,0.3292,12.2439,1447,2859.87
21284,-4.1815,-0.3926,11.4766,1459,2859.87
21289,-0.9158,2.6157,9.092,1477,2859.73
21294,2.1823,3.9061,10.477,1451,2859.73
21299,-1.5263,0.9457,11.9578,1450,2859.73
21304,-3.5374,-1.1145,11.9028,1453,2859.73
21309,-2.1931,2.2063,9.0369,1471,2859.59
21314,2.0063,3.7445,10.3489,1461,2859.59
21319,-0.237,1.5275,11.5772,1447,2859.59
21324,-2.648,-1.4234,12.2882,1461,2859.59
21329,-3.541,1.7083,9.4176,1467,2859.19
21334,1.6149,3.4201,10.1191,1450,2859.19
21339,1.4581,2.3104,11.2336,1453,2859.19
21344,-1.9285,-1.2713,12.4259,1451,2859.19
21349,-4.3838,1.1468,9.9647,1463,2859.19
21354,1.1205,3.1663,9.8019,1466,2858.91
21359,2.3715,3.1065,10.9415,1449,2858.91
21364,-1.6328,-0.5662,12.4546,1451,2858.91
21369,-4.5298,0.3795,10.653,1453,2858.91
21374,0.3508,2.8874,9.3314,1469,2858.78
21379,2.4493,3.6559,10.5608,1451,2858.78
21384,-1.7274,0.1856,12.2775,1449,2858.78
21389,-4.2892,-0.425,11.3653,1462,2858.78
21394,-0.7482,2.5893,9.1016,1481,2858.91
21399,2.2003,3.8846,10.4327,1451,2858.91
21404,-1.6771,0.8475,11.9339,1454,2858.91
21409,-3.6248,-1.0654,11.9112,1455,2858.91
21414,-2.1356,2.2757,9.0728,1479,2859.46
21419,1.9561,3.7769,10.3705,1455,2859.46
21424,-0.346,1.4724,11.6646,1453,2859.46
21429,-2.7186,-1.4521,12.2823,1454,2859.46
21434,-3.4285,1.816,9.3913,1487,2860.0
21439,1.7035,3.5063,10.1035,1448,2860.0
21444,1.4234,2.2553,11.3353,1454,2860.0
21449,-1.9668,-1.3048,12.4546,1451,2860.0
21454,-4.2928,1.2222,9.8665,1464,2860.0
21459,1.1827,3.1352,9.8031,1465,2860.28
21464,2.3331,2.976,10.993,1452,2860.28
21469,-1.6077,-0.7207,12.3996,1450,2860.28
21474,-4.5813,0.4609,10.5776,1453,2860.28
21479,0.413,2.9066,9.4284,1469,2859.87
21484,2.4014,3.6009,10.6793,1453,2859.87
21489,-1.7178,0.1305,12.2356,1450,2859.87
21494,-4.3993,-0.2263,11.2887,1459,2859.87
21499,-0.5938,2.7043,9.159,1484,2859.87
21504,2.2613,3.9397,10.483,1450,2859.87
21509,-1.7657,0.844,11.9602,1459,2859.87
21514,-3.6751,-0.9361,11.8429,1454,2859.87
21519,-1.8842,2.3212,9.0704,1483,2859.87
21524,2.0626,3.8379,10.3346,1452,2859.87
21529,-0.589,1.391,11.7005,1453,2859.87
21534,-2.8276,-1.3982,12.1961,1461,2859.87
21539,-3.2657,1.8543,9.3194,1487,2859.59
21544,1.6712,3.4812,10.1502,1451,2859.59
21549,1.1492,2.1225,11.3892,1461,2859.59
21554,-2.0542,-1.3898,12.4199,1453,2859.59
21559,-4.2329,1.2893,9.7995,1462,2859.59
21564,1.2582,3.1711,9.8892,1463,2859.32
21569,2.3248,2.9365,10.9978,1448,2859.32
21574,-1.6592,-0.7314,12.457,1453,2859.32
21579,-4.5526,0.5986,10.5668,1451,2859.32
21584,0.5543,2.9868,9.4834,1467,2859.05
21589,2.4576,3.5434,10.6889,1455,2859.05
21594,-1.6891,0.0982,12.2703,1449,2859.05
21599,-4.367,-0.2598,11.2192,1455,2859.05
21604,-0.486,2.7186,9.1662,1469,2858.78
21609,2.2637,3.8295,10.4543,1449,2858.78
21614,-1.7777,0.7302,12.0644,1455,2858.78
21619,-3.7481,-0.9385,11.7783,1454,2858.78
21624,-1.8052,2.3331,9.001,1468,2860.0
21629,1.9968,3.808,10.3513,1452,2860.0
21634,-0.8009,1.2917,11.7268,1452,2860.0
21639,-2.8814,-1.4281,12.1817,1462,2860.0
21644,-3.1496,1.919,9.2572,1483,2859.59
21649,1.7968,3.5997,10.2077,1449,2859.59
21654,0.99,2.0087,11.4275,1459,2859.59
21659,-2.0578,-1.318,12.39,1455,2859.59
21664,-4.1456,1.3408,9.7133,1460,2859.59
21669,1.3276,3.2645,9.8928,1463,2859.59
21674,2.2505,2.788,11.0528,1452,2859.59
21679,-1.6005,-0.844,12.3876,1453,2859.59
21684,-4.5765,0.6596,10.4016,1449,2859.59
21689,0.6057,2.9449,9.578,1460,2859.05
21694,2.4277,3.486,10.6985,1459,2859.05
21699,-1.6987,-0.0419,12.2643,1452,2859.05
21704,-4.4472,-0.1041,11.0983,1451,2859.05
21709,-0.3915,2.6827,9.2141,1461,2859.19
21714,2.235,3.8666,10.5261,1465,2859.19
21719,-1.8304,0.7135,12.0692,1455,2859.19
21724,-3.8858,-0.7721,11.728,1449,2859.19
21729,-1.6448,2.393,9.0896,1477,2858.91
21734,2.1272,3.8822,10.3262,1459,2858.91
21739,-0.9146,1.2821,11.7424,1451,2858.91
21744,-2.97,-1.3228,12.1147,1455,2858.91
21749,-2.976,1.9489,9.1842,1463,2858.91
21754,1.7825,3.5626,10.2005,1451,2858.91
21759,0.8092,1.919,11.4634,1467,2858.91
21764,-2.1775,-1.4449,12.3649,1454,2858.91
21769,-4.0797,1.3491,9.6714,1455,2858.91
21774,1.306,3.2753,9.9096,1455,2858.5
21779,2.1057,2.7545,11.0696,1451,2858.5
21784,-1.7274,-0.9038,12.4475,1451,2858.5
21789,-4.5957,0.7578,10.3681,1452,2858.5
21794,0.7242,3.0382,9.596,1463,2858.37
21799,2.466,3.4716,10.7164,1455,2858.37
21804,-1.7322,-0.0467,12.3122,1451,2858.37
21809,-4.4089,-0.0012,11.0935,1452,2858.37
21814,-0.2693,2.7234,9.2045,1471,2858.64
21819,2.332,3.8032,10.5093,1453,2858.64
21824,-1.7825,0.6141,12.141,1455,2858.64
21829,-3.9061,-0.8416,11.7064,1455,2858.64
21834,-1.4964,2.4074,9.0237,1471,2858.5
21839,2.053,3.7936,10.3118,1455,2858.5
21844,-1.0475,1.2067,11.7735,1453,2858.5
21849,-3.0718,-1.3503,12.0823,1455,2858.5
21854,-2.891,2.0614,9.2428,1481,2858.5
21859,1.8016,3.6547,10.246,1451,2858.5
21864,0.7123,1.9082,11.485,1462,2858.5
21869,-2.223,-1.3731,12.3397,1451,2858.5
21874,-3.9708,1.5203,9.6486,1459,2858.5
21879,1.4317,3.3327,9.9347,1463,2857.82
21884,2.0913,2.6372,11.1055,1450,2857.82
21889,-1.5921,-0.9361,12.3625,1452,2857.82
21894,-4.5657,0.7458,10.3298,1444,2857.82
21899,0.7386,2.9592,9.5912,1464,2858.37
21904,2.4337,3.3471,10.8098,1451,2858.37
21909,-1.6448,-0.1736,12.2966,1452,2858.37
21914,-4.4784,-0.0072,10.999,1453,2858.37
21919,-0.2251,2.7378,9.2799,1461,2857.69
21924,2.2529,3.8403,10.5548,1452,2857.69
21929,-1.8052,0.6201,12.0895,1455,2857.69
21934,-3.96,-0.6584,11.7029,1455,2857.69
21939,-1.4341,2.5055,9.1315,1478,2857.55
21944,2.1296,3.9361,10.4076,1463,2857.55
21949,-1.1528,1.251,11.746,1453,2857.55
21954,-3.0909,-1.2929,12.0907,1460,2857.55
21959,-2.7869,1.98,9.165,1481,2857.42
21964,1.8914,3.5925,10.1837,1449,2857.42
21969,0.5974,1.8196,11.394,1461,2857.42
21974,-2.2793,-1.4724,12.4103,1453,2857.42
21979,-3.978,1.403,9.6558,1455,2857.42
21984,1.3946,3.2441,9.9802,1453,2857.42
21989,1.986,2.6384,11.0672,1453,2857.42
21994,-1.7825,-1.0247,12.4439,1451,2857.42
21999,-4.5933,0.8404,10.2999,1451,2857.42
22004,0.8344,3.0682,9.6367,1461,2857.82
22009,2.4529,3.4141,10.7679,1461,2857.82
22014,-1.7514,-0.1664,12.3768,1454,2857.82
22019,-4.3981,0.1041,11.0109,1451,2857.82
22024,-0.1018,2.7785,9.2308,1455,2857.28
22029,2.3415,3.7984,10.5046,1455,2857.28
22034,-1.7645,0.5411,12.062,1459,2857.28
22039,-3.9624,-0.753,11.6262,1455,2857.28
22044,-1.3994,2.4529,9.0956,1477,2858.23
22049,2.0901,3.8044,10.4603,1455,2858.23
22054,-1.1444,1.148,11.7998,1466,2858.23
22059,-3.2358,-1.3001,12.0285,1459,2858.23
22064,-2.7749,2.071,9.1889,1482,2857.82
22069,1.8148,3.6248,10.2675,1447,2857.82
22074,0.4693,1.8148,11.4694,1456,2857.82
22079,-2.3056,-1.4533,12.3194,1455,2857.82
22084,-3.8834,1.6041,9.5996,1453,2857.82
22089,1.4664,3.3662,9.9766,1459,2857.42
22094,2.0279,2.6528,11.1654,1451,2857.42
22099,-1.6388,-0.9876,12.3457,1448,2857.42
22104,-4.5035,0.8727,10.2292,1451,2857.42
22109,0.8092,3.0095,9.59,1462,2857.01
22114,2.4612,3.2896,10.7164,1459,2857.01
22119,-1.5646,-0.2418,12.3158,1452,2857.01
22124,-4.5143,0.0239,10.9762,1451,2857.01
22129,-0.0958,2.7797,9.2296,1459,2856.19
22134,2.2877,3.8008,10.5189,1459,2856.19
22139,-1.8866,0.5758,12.1326,1460,2856.19
22144,-4.0247,-0.6608,11.6574,1455,2856.19
22149,-1.3503,2.4888,9.1291,1471,2856.05
22154,2.1464,3.9109,10.386,1459,2856.05
22159,-1.2222,1.233,11.8286,1453,2856.05
22164,-3.1831,-1.2426,12.0596,1459,2856.05
22169,-2.7306,2.0267,9.1399,1486,2855.65
22174,1.919,3.5949,10.2197,1449,2855.65
22179,0.5088,1.7597,11.4838,1465,2855.65
22184,-2.2649,-1.5167,12.3577,1453,2855.65
22189,-3.8774,1.4605,9.6031,1455,2855.65
22194,1.4246,3.3064,9.9719,1462,2855.38
22199,1.9154,2.6037,11.0971,1452,2855.38
22204,-1.7394,-1.0259,12.3876,1455,2855.38
22209,-4.5657,0.8344,10.2819,1449,2855.38
22214,0.7973,3.0382,9.7181,1460,2855.51
22219,2.4122,3.3926,10.7895,1456,2855.51
22224,-1.6951,-0.1257,12.3026,1451,2855.51
22229,-4.3993,0.085,11.0193,1447,2855.51
22234,-0.0934,2.7557,9.2632,1471,2855.24
22239,2.3367,3.7996,10.489,1448,2855.24
22244,-1.7693,0.5818,12.0776,1453,2855.24
22249,-3.9169,-0.7254,11.6394,1453,2855.24
22254,-1.415,2.4481,9.1219,1485,2855.24
22259,2.0411,3.8391,10.4591,1452,2855.24
22264,-1.1241,1.1696,11.8154,1453,2855.24
22269,-3.158,-1.2989,12.0368,1455,2855.24
22274,-2.8144,2.0339,9.1877,1467,2855.51
22279,1.8088,3.6093,10.2268,1451,2855.51
22284,0.51,1.8771,11.5173,1459,2855.51
22289,-2.3535,-1.3946,12.3493,1455,2855.51
22294,-3.9349,1.5431,9.6438,1461,2855.51
22299,1.4545,3.3423,10.0054,1454,2855.51
22304,2.0411,2.6899,11.0828,1453,2855.51
22309,-1.6747,-0.9708,12.3744,1451,2855.51
22314,-4.4831,0.8092,10.258,1447,2855.51
22319,0.7877,2.9844,9.6558,1464,2855.65
22324,2.4876,3.3782,10.7811,1456,2855.65
22329,-1.6029,-0.1927,12.3098,1447,2855.65
22334,-4.5047,-0.018,11.0373,1453,2855.65
22339,-0.1784,2.739,9.2763,1461,2855.24
22344,2.2613,3.7733,10.5117,1451,2855.24
22349,-1.9058,0.5806,12.0596,1459,2855.24
22354,-3.9456,-0.7087,11.6729,1453,2855.24
22359,-1.5095,2.4397,9.1075,1483,2855.51
22364,2.0842,3.9253,10.3813,1455,2855.51
22369,-1.0594,1.2605,11.7388,1451,2855.51
22374,-3.1388,-1.2677,12.1135,1464,2855.51
22379,-2.7845,2.0087,9.2117,1491,2855.51
22384,1.8926,3.6009,10.2053,1453,2855.51
22389,0.6668,1.8794,11.3689,1461,2855.51
22394,-2.1991,-1.4521,12.3086,1451,2855.51
22399,-3.978,1.4341,9.6618,1464,2855.51
22404,1.3862,3.2238,10.0114,1461,2855.92
22409,2.0123,2.7102,11.1426,1451,2855.92
22414,-1.6939,-1.002,12.3816,1455,2855.92
22419,-4.5586,0.7913,10.3106,1453,2855.92
22424,0.7602,3.0011,9.6199,1463,2856.05
22429,2.4361,3.462,10.7524,1459,2856.05
22434,-1.7047,-0.1257,12.3517,1450,2856.05
22439,-4.4772,0.0455,11.0397,1451,2856.05
22444,-0.1688,2.7713,9.2715,1496,2856.33
22449,2.3379,3.8092,10.4435,1451,2856.33
22454,-1.834,0.6165,12.0644,1459,2856.33
22459,-3.8822,-0.7542,11.6562,1449,2856.33
22464,-1.5167,2.4157,9.0429,1483,2856.33
22469,2.047,3.7864,10.3609,1452,2856.33
22474,-1.0223,1.1887,11.7041,1451,2856.33
22479,-3.1496,-1.3743,12.1135,1460,2856.33
22484,-2.9521,1.9944,9.2512,1485,2856.46
22489,1.7717,3.6057,10.173,1449,2856.46
22494,0.6117,1.8723,11.4575,1461,2856.46
22499,-2.2829,-1.4317,12.3325,1455,2856.46
22504,-3.9828,1.4904,9.7145,1465,2856.46
22509,1.421,3.3112,9.9264,1464,2856.6
22514,2.0794,2.727,11.0672,1452,2856.6
22519,-1.6496,-0.8835,12.4846,1456,2856.6
22524,-4.5155,0.7638,10.325,1453,2856.6
22529,0.7997,3.0023,9.5936,1464,2856.73
22534,2.4576,3.3531,10.7631,1459,2856.73
22539,-1.6316,-0.1496,12.2751,1449,2856.73
22544,-4.4807,-0.0826,11.0564,1453,2856.73
22549,-0.2274,2.7318,9.2751,1477,2856.46
22554,2.2098,3.8271,10.5548,1447,2856.46
22559,-1.8687,0.6213,12.0656,1459,2856.46
22564,-3.9528,-0.7626,11.6981,1455,2856.46
22569,-1.4629,2.4241,9.0896,1485,2856.87
22574,2.1021,3.9468,10.3908,1453,2856.87
22579,-1.1337,1.2629,11.807,1449,2856.87
22584,-3.0825,-1.2486,12.1302,1461,2856.87
22589,-2.8443,2.071,9.1913,1481,2856.19
22594,1.8806,3.6308,10.2053,1449,2856.19
22599,0.7099,1.8555,11.394,1461,2856.19
22604,-2.2075,-1.4916,12.3086,1451,2856.19
22609,-3.9816,1.4114,9.6462,1464,2856.19
22614,1.4401,3.2417,9.9874,1455,2856.6
22619,2.0267,2.6564,11.0852,1452,2856.6
22624,-1.7071,-0.9996,12.4463,1455,2856.6
22629,-4.531,0.7853,10.3202,1453,2856.6
22634,0.7793,2.9856,9.6175,1469,2856.46
22639,2.3942,3.4297,10.7488,1449,2856.46
22644,-1.7083,-0.0862,12.3098,1449,2856.46
22649,-4.4724,0.0874,11.1007,1453,2856.46
22654,-0.2011,2.7617,9.2727,1468,2856.46
22659,2.3296,3.8511,10.5477,1451,2856.46
22664,-1.7968,0.6381,12.1171,1459,2856.46
22669,-3.8858,-0.7302,11.655,1452,2856.46
22674,-1.4593,2.3918,9.0668,1481,2856.6
22679,2.1081,3.7589,10.3549,1453,2856.6
22684,-1.0678,1.2115,11.7795,1452,2856.6
22689,-3.1364,-1.3587,12.147,1462,2856.6
22694,-2.8898,1.9824,9.2763,1467,2856.6
22699,1.7454,3.5446,10.2256,1449,2856.6
22704,0.5782,1.9345,11.4503,1461,2856.6
22709,-2.314,-1.4437,12.3086,1451,2856.6
22714,-3.9744,1.5036,9.6905,1464,2856.6
22719,1.4138,3.2465,9.9611,1455,2856.6
22724,2.0913,2.7402,11.1474,1449,2856.6
22729,-1.6783,-0.905,12.4032,1451,2856.6
22734,-4.476,0.7985,10.3717,1455,2856.6
22739,0.808,3.0442,9.5589,1467,2856.6
22744,2.4732,3.4046,10.7536,1451,2856.6
22749,-1.5981,-0.1616,12.2966,1447,2856.6
22754,-4.4412,-0.0862,10.9906,1461,2856.6
22759,-0.2251,2.7294,9.262,1487,2856.19
22764,2.2553,3.7936,10.5165,1453,2856.19
22769,-1.8112,0.6057,12.0596,1455,2856.19
22774,-3.9444,-0.7793,11.6729,1455,2856.19
22779,-1.5012,2.484,9.0656,1483,2856.19
22784,2.1021,3.8762,10.4076,1451,2856.19
22789,-1.0918,1.2713,11.74,1453,2856.19
22794,-3.0933,-1.2558,12.1386,1459,2856.19
22799,-2.8323,2.0411,9.25,1485,2855.65
22804,1.8902,3.6595,10.2388,1452,2855.65
22809,0.7147,1.8854,11.3892,1459,2855.65
22814,-2.2003,-1.4593,12.3828,1449,2855.65
22819,-4.0019,1.4162,9.6343,1463,2855.65
22824,1.3659,3.2477,9.9659,1463,2854.7
22829,2.0099,2.636,11.0157,1451,2854.7
22834,-1.6412,-0.9744,12.4175,1450,2854.7
22839,-4.5131,0.7434,10.3729,1453,2854.7
22844,0.6596,2.9939,9.5852,1469,2852.12
22849,2.375,3.4584,10.7356,1454,2852.12
22854,-1.725,-0.073,12.2954,1447,2852.12
22859,-4.458,0.0323,11.0995,1455,2852.12
22864,-0.2921,2.7964,9.2416,1481,2850.36
22869,2.3056,3.8714,10.4962,1454,2850.36
22874,-1.8328,0.7135,12.0129,1453,2850.36
22879,-3.7637,-0.8332,11.722,1451,2850.36
22884,-1.6305,2.381,9.0561,1481,2849.14
22889,2.0662,3.7326,10.3154,1459,2849.14
22894,-0.917,1.2653,11.6562,1451,2849.14
22899,-2.8659,-1.4317,12.1278,1459,2849.14
22904,-3.0993,1.8866,9.2991,1483,2848.73
22909,1.6855,3.5195,10.24,1451,2848.73
22914,0.905,2.0758,11.3784,1461,2848.73
22919,-2.0554,-1.3719,12.2882,1445,2848.73
22924,-4.0893,1.2989,9.8282,1461,2848.73
22929,1.2366,3.2202,9.8797,1461,2848.73
22934,2.2374,2.9329,10.9822,1453,2848.73
22939,-1.5862,-0.6788,12.3146,1448,2848.73
22944,-4.5394,0.5926,10.5465,1451,2848.73
22949,0.504,2.9796,9.5325,1469,2848.6
22954,2.4193,3.5446,10.6003,1453,2848.6
22959,-1.7609,0.0718,12.1374,1447,2848.6
22964,-4.2138,-0.3172,11.2875,1455,2848.6
22969,-0.656,2.63,9.1877,1479,2848.46
22974,2.0997,3.8259,10.4291,1459,2848.46
22979,-1.7418,0.844,11.9291,1451,2848.46
22984,-3.5662,-0.9744,11.9076,1451,2848.46
22996,-2.0901,2.3128,9.183,1479,2848.06
23000,-0.4214,1.5012,11.6143,1451,2848.06
23005,-2.6348,-1.415,12.2044,1461,2848.06
23010,-3.401,1.7933,9.4547,1487,2847.92
23015,1.6233,3.4967,10.0796,1459,2847.92
23020,1.4557,2.2745,11.1977,1463,2847.92
23025,-1.7741,-1.2055,12.3708,1450,2847.92
23030,-4.2485,1.0846,10.0317,1466,2847.92
23035,1.0307,3.1041,9.7779,1467,2848.87
23040,2.3116,3.0945,10.8948,1460,2848.87
23045,-1.579,-0.5231,12.3541,1449,2848.87
23050,-4.476,0.3005,10.7595,1453,2848.87
23055,0.164,2.8671,9.4499,1468,2848.46
23060,2.3164,3.723,10.6051,1453,2848.46
23065,-1.9525,0.4094,12.1254,1451,2848.46
23070,-4.0953,-0.4429,11.4598,1455,2848.46
23075,-1.0475,2.5989,9.1686,1485,2848.6
23080,2.1213,3.8954,10.4495,1461,2848.6
23085,-1.4569,1.0307,11.874,1451,2848.6
23090,-3.298,-1.1911,11.9566,1452,2848.6
23095,-2.4481,2.1021,9.1937,1468,2848.73
23100,1.9142,3.6224,10.3046,1459,2848.73
23105,0.067,1.64,11.4862,1463,2848.73
23110,-2.3882,-1.4569,12.2511,1453,2848.73
23115,-3.7553,1.5658,9.5804,1455,2848.73
23120,1.4473,3.3363,10.0604,1465,2849.14
23125,1.7645,2.5139,11.1797,1459,2849.14
23130,-1.7322,-1.0738,12.3469,1459,2849.14
23135,-4.452,0.9122,10.1789,1455,2849.14
23140,0.8643,3.0801,9.7025,1461,2849.54
23145,2.4361,3.3052,10.7715,1462,2849.54
23150,-1.6352,-0.2143,12.3122,1451,2849.54
23155,-4.4137,0.1077,10.9798,1453,2849.54
23160,-0.0443,2.8156,9.3314,1467,2849.14
23165,2.3224,3.7673,10.55,1461,2849.14
23170,-1.9273,0.5279,12.0524,1455,2849.14
23175,-3.8738,-0.674,11.576,1459,2849.14
23180,-1.3396,2.4588,9.098,1483,2849.0
23185,2.0027,3.8583,10.3322,1463,2849.0
23190,-1.172,1.2139,11.6825,1453,2849.0
23195,-3.0574,-1.2701,12.0859,1461,2849.0
23200,-2.7773,2.0842,9.2811,1485,2848.6
23205,1.7957,3.6176,10.2256,1454,2848.6
23210,0.6764,1.913,11.3904,1465,2848.6
23215,-2.1189,-1.3276,12.2966,1455,2848.6
23220,-3.9373,1.415,9.7312,1463,2848.6
23225,1.3228,3.2286,9.9515,1461,2848.87
23230,2.0901,2.7438,11.0995,1454,2848.87
23235,-1.5802,-0.8763,12.3409,1455,2848.87
23240,-4.4712,0.6979,10.3681,1455,2848.87
23245,0.577,2.9892,9.56,1465,2848.87
23250,2.381,3.4752,10.6745,1461,2848.87
23255,-1.7526,-0.0323,12.2739,1451,2848.87
23260,-4.3108,-0.1065,11.1654,1459,2848.87
23265,-0.4082,2.7198,9.2703,1465,2848.73
23270,2.1835,3.8678,10.4663,1455,2848.73
23275,-1.7837,0.7781,11.9997,1459,2848.73
23280,-3.7397,-0.8392,11.7376,1455,2848.73
23285,-1.737,2.3499,9.1794,1483,2848.87
23290,2.0542,3.802,10.3394,1461,2848.87
23295,-0.7793,1.3934,11.6562,1451,2848.87
23300,-2.7605,-1.4222,12.1506,1463,2848.87
23305,-3.1711,1.8316,9.3889,1486,2848.87
23310,1.6592,3.4668,10.1335,1444,2848.87
23315,1.081,2.1153,11.3042,1454,2848.87
23320,-1.9465,-1.3803,12.3732,1454,2848.87
23325,-4.2234,1.2318,9.9156,1465,2848.87
23330,1.16,3.134,9.8713,1466,2849.0
23335,2.2601,2.9461,11.0193,1452,2849.0
23340,-1.6305,-0.6584,12.3637,1449,2849.0
23345,-4.549,0.516,10.6159,1453,2849.0
23350,0.4633,2.9772,9.5086,1471,2849.14
23355,2.3786,3.6057,10.562,1453,2849.14
23360,-1.8423,0.2179,12.1937,1449,2849.14
23365,-4.1647,-0.3124,11.315,1455,2849.14
23370,-0.7362,2.6659,9.1842,1483,2849.14
23375,2.1344,3.7757,10.4663,1461,2849.14
23380,-1.6664,0.8918,11.9159,1452,2849.14
23385,-3.5255,-1.0882,11.8226,1453,2849.14
23390,-2.1476,2.2302,9.1554,1468,2849.27
23395,1.9094,3.7326,10.3154,1460,2849.27
23400,-0.3148,1.5622,11.546,1463,2849.27
23405,-2.6109,-1.4186,12.3002,1450,2849.27
23410,-3.5063,1.7274,9.4834,1455,2849.27
23415,1.5443,3.4249,10.1646,1469,2849.27
23420,1.4904,2.3355,11.248,1461,2849.27
23425,-1.7945,-1.1863,12.4032,1453,2849.27
23430,-4.2748,1.0594,9.9958,1462,2849.27
23435,1.0654,3.1316,9.7899,1465,2849.54
23440,2.3559,3.0885,10.8529,1461,2849.54
23445,-1.5766,-0.4405,12.3744,1457,2849.54
23450,-4.4604,0.237,10.7691,1453,2849.54
23455,0.1472,2.8527,9.4272,1471,2849.81
23460,2.2817,3.7254,10.5141,1461,2849.81
23465,-1.9477,0.3711,12.1302,1452,2849.81
23470,-4.1037,-0.5519,11.5424,1451,2849.81
23475,-1.0702,2.5702,9.2165,1483,2850.22
23480,2.1141,3.8978,10.41,1463,2850.22
23485,-1.5251,1.0379,11.8333,1454,2850.22
23490,-3.2753,-1.1325,12.0297,1453,2850.22
23495,-2.4876,2.138,9.2129,1469,2850.09
23500,1.8687,3.6799,10.2639,1453,2850.09
23505,0.2143,1.7035,11.4431,1465,2850.09
23510,-2.314,-1.4401,12.3002,1453,2850.09
23515,-3.7338,1.5383,9.5696,1455,2850.09
23520,1.4593,3.3339,10.0533,1465,2849.95
23525,1.8052,2.5031,11.1725,1456,2849.95
23530,-1.6915,-1.142,12.3373,1447,2849.95
23535,-4.4831,0.9433,10.2137,1453,2849.95
23540,0.9301,3.0466,9.7085,1461,2849.95
23545,2.4146,3.3076,10.7296,1463,2849.95
23550,-1.6915,-0.2083,12.3122,1455,2849.95
23555,-4.446,0.1712,11.0337,1455,2849.95
23560,0.0012,2.8,9.3506,1456,2849.81
23565,2.3296,3.7828,10.471,1455,2849.81
23570,-1.8531,0.5878,12.0752,1459,2849.81
23575,-3.9409,-0.6847,11.5712,1457,2849.81
23580,-1.3012,2.4289,9.1028,1483,2850.63
23585,2.0758,3.7984,10.3813,1463,2850.63
23590,-1.1887,1.1756,11.7699,1455,2850.63
23595,-3.1005,-1.2977,12.0608,1459,2850.63
23600,-2.7904,2.0423,9.2165,1467,2850.09
23605,1.725,3.5626,10.2424,1451,2850.09
23610,0.5722,1.8627,11.3856,1465,2850.09
23615,-2.2446,-1.4485,12.2906,1455,2850.09
23620,-3.9385,1.4521,9.7648,1465,2850.09
23625,1.3862,3.3124,10.0006,1453,2850.36
23630,2.0698,2.7545,11.0504,1453,2850.36
23635,-1.6544,-0.8703,12.317,1453,2850.36
23640,-4.452,0.7422,10.3741,1455,2850.36
23645,0.6752,2.9724,9.6426,1471,2850.22
23650,2.4026,3.4105,10.6997,1452,2850.22
23655,-1.6089,-0.0323,12.2667,1451,2850.22
23660,-4.4065,-0.1293,11.1318,1463,2850.22
23665,-0.3077,2.7306,9.3146,1482,2850.22
23670,2.1979,3.8188,10.4459,1452,2850.22
23675,-1.8615,0.6907,12.0141,1460,2850.22
23680,-3.8056,-0.8655,11.7495,1455,2850.22
23685,-1.6879,2.3978,9.1243,1472,2850.22
23690,2.0219,3.8104,10.343,1463,2850.22
23695,-0.8811,1.3168,11.6957,1451,2850.22
23700,-2.9054,-1.3647,12.1362,1461,2850.22
23705,-3.0634,1.9597,9.3063,1481,2850.36
23710,1.804,3.5374,10.173,1453,2850.36
23715,1.0163,2.059,11.321,1453,2850.36
23720,-1.9944,-1.3671,12.3361,1453,2850.36
23725,-4.1061,1.2641,9.7983,1465,2850.36
23730,1.257,3.2094,9.9132,1465,2850.22
23735,2.1871,2.8695,10.9666,1453,2850.22
23740,-1.5766,-0.7697,12.3577,1450,2850.22
23745,-4.5382,0.5578,10.5776,1451,2850.22
23750,0.4729,2.9521,9.5038,1477,2850.63
23755,2.2972,3.5458,10.6183,1453,2850.63
23760,-1.7957,0.1664,12.2451,1451,2850.63
23765,-4.3239,-0.231,11.3018,1461,2850.63
23770,-0.5866,2.6755,9.244,1485,2851.03
23775,2.2434,3.881,10.4902,1453,2851.03
23780,-1.7178,0.8248,11.8956,1451,2851.03
23785,-3.5841,-0.9804,11.7962,1453,2851.03
23790,-1.9549,2.2769,9.1063,1484,2850.9
23795,1.9896,3.7266,10.3549,1455,2850.9
23800,-0.5267,1.4497,11.625,1455,2850.9
23805,-2.6827,-1.4234,12.238,1455,2850.9
23810,-3.371,1.7705,9.426,1464,2850.63
23815,1.573,3.4273,10.1538,1455,2850.63
23820,1.2761,2.2565,11.2671,1464,2850.63
23825,-1.9022,-1.257,12.3289,1451,2850.63
23830,-4.2904,1.1947,9.9814,1463,2850.63
23835,1.0762,3.1663,9.8378,1467,2850.22
23840,2.3595,3.1053,10.908,1455,2850.22
23845,-1.5754,-0.5183,12.3768,1455,2850.22
23850,-4.5454,0.4369,10.7105,1451,2850.22
23855,0.3077,2.9209,9.4463,1469,2850.09
23860,2.3308,3.6392,10.5931,1460,2850.09
23865,-1.895,0.2741,12.1709,1453,2850.09
23870,-4.1096,-0.4286,11.4311,1451,2850.09
23875,-0.9086,2.5833,9.1363,1483,2850.36
23880,2.1057,3.8331,10.4064,1461,2850.36
23885,-1.6364,0.978,11.8728,1447,2850.36
23890,-3.5063,-1.1277,11.959,1453,2850.36
23895,-2.2601,2.2505,9.177,1487,2850.63
23900,1.9716,3.7086,10.2927,1455,2850.63
23905,-0.1269,1.6149,11.5556,1464,2850.63
23910,-2.4912,-1.3647,12.2487,1451,2850.63
23915,-3.5506,1.6975,9.5505,1453,2850.63
23920,1.5538,3.389,10.0784,1463,2851.03
23925,1.6688,2.405,11.1462,1459,2851.03
23930,-1.6807,-1.1923,12.3601,1453,2851.03
23935,-4.3503,0.9972,10.1442,1451,2851.03
23940,0.9266,3.0622,9.7229,1466,2851.58
23945,2.4014,3.1687,10.8505,1479,2851.58
23950,-1.658,-0.3735,12.372,1455,2851.58
23955,-4.5466,0.2502,10.8649,1454,2851.58
23960,0.0814,2.8766,9.3709,1465,2851.71
23965,2.2829,3.7505,10.5477,1462,2851.71
23970,-1.901,0.4166,12.1302,1461,2851.71
23975,-4.0498,-0.5303,11.5017,1461,2851.71
23980,-1.0906,2.5594,9.1375,1483,2851.85
23985,2.15,3.8846,10.4363,1461,2851.85
23990,-1.4102,1.1013,11.8046,1453,2851.85
23995,-3.2058,-1.2222,11.983,1464,2851.85
24000,-2.575,2.1105,9.1578,1481,2851.98
24005,1.8591,3.626,10.2544,1452,2851.98
24010,0.2873,1.719,11.4634,1464,2851.98
24015,-2.4014,-1.5131,12.2607,1459,2851.98
24020,-3.8355,1.5299,9.5672,1455,2851.98
24025,1.4724,3.2908,10.0952,1461,2852.12
24030,1.8076,2.5582,11.157,1453,2852.12
24035,-1.719,-1.0367,12.3684,1465,2852.12
24040,-4.4281,0.9206,10.2891,1455,2852.12
24045,0.838,3.0957,9.7169,1463,2852.52
24050,2.4744,3.3124,10.7751,1463,2852.52
24055,-1.6472,-0.2023,12.3756,1452,2852.52
24060,-4.4137,0.1077,10.9894,1453,2852.52
24065,-0.067,2.824,9.2823,1463,2852.12
24070,2.3236,3.7553,10.4938,1455,2852.12
24075,-1.9201,0.5267,12.0512,1459,2852.12
24080,-3.9468,-0.7123,11.6454,1460,2852.12
24085,-1.3946,2.5223,9.074,1483,2852.8
24090,2.0291,3.8487,10.3908,1453,2852.8
24095,-1.2402,1.1815,11.789,1453,2852.8
24100,-3.1161,-1.2881,12.0943,1465,2852.8
24105,-2.7773,2.0351,9.2165,1492,2852.12
24110,1.8411,3.6643,10.2101,1453,2852.12
24115,0.5387,1.8495,11.461,1459,2852.12
24120,-2.2386,-1.3587,12.317,1453,2852.12
24125,-3.8978,1.5083,9.6343,1467,2852.12
24130,1.4186,3.3184,9.9252,1459,2852.12
24135,2.059,2.6432,11.0887,1455,2852.12
24140,-1.6221,-0.929,12.378,1452,2852.12
24145,-4.458,0.7506,10.3082,1459,2852.12
24150,0.7482,3.0191,9.6031,1471,2851.85
24155,2.4122,3.4093,10.7524,1455,2851.85
24160,-1.743,-0.1365,12.2811,1454,2851.85
24165,-4.4125,-0.0419,11.1175,1458,2851.85
24170,-0.3041,2.7473,9.2871,1483,2851.03
24175,2.156,3.887,10.4698,1455,2851.03
24180,-1.8771,0.656,12.0321,1459,2851.03
24185,-3.8343,-0.7326,11.6813,1455,2851.03
24190,-1.5778,2.4505,9.1243,1485,2851.85
24195,2.0782,3.8571,10.3896,1459,2851.85
24200,-0.9337,1.233,11.7124,1449,2851.85
24205,-2.8802,-1.3479,12.0979,1464,2851.85
24210,-2.964,1.9704,9.3051,1487,2851.44
24215,1.7549,3.4991,10.1969,1451,2851.44
24220,0.8871,1.9872,11.3557,1453,2851.44
24225,-2.1033,-1.4581,12.2691,1453,2851.44
24230,-4.0845,1.3503,9.7911,1467,2851.44
24235,1.2605,3.2118,9.9383,1469,2851.44
24240,2.0818,2.8802,10.999,1459,2851.44
24245,-1.6652,-0.8356,12.4379,1450,2851.44
24250,-4.5047,0.7219,10.5082,1455,2851.44
24255,0.5842,2.9485,9.5481,1477,2851.71
24260,2.46,3.4943,10.5931,1456,2851.71
24265,-1.7298,0.0563,12.2404,1450,2851.71
24270,-4.3455,-0.1293,11.2348,1460,2851.71
24275,-0.4142,2.7054,9.2536,1481,2851.85
24280,2.2565,3.8403,10.4327,1459,2851.85
24285,-1.8364,0.729,11.9842,1452,2851.85
24290,-3.6248,-0.9756,11.7926,1455,2851.85
24295,-1.8328,2.3224,9.0872,1483,2852.12
24300,1.9776,3.7876,10.325,1460,2852.12
24305,-0.6859,1.3934,11.7053,1457,2852.12
24310,-2.8515,-1.4186,12.1949,1459,2852.12
24315,-3.2178,1.9321,9.3685,1467,2851.98
24320,1.7358,3.5075,10.1849,1459,2851.98
24325,1.1492,2.1572,11.315,1461,2851.98
24330,-1.9716,-1.2534,12.2954,1449,2851.98
24335,-4.1731,1.2653,9.8725,1465,2851.98
24340,1.2163,3.1783,9.8497,1469,2852.52
24345,2.2901,2.8946,10.9164,1459,2852.52
24350,-1.5395,-0.6632,12.3182,1452,2852.52
24355,-4.5538,0.4609,10.5572,1455,2852.52
24360,0.4681,2.9018,9.4798,1469,2852.25
24365,2.3762,3.5745,10.6027,1463,2852.25
24370,-1.8567,0.1413,12.1973,1455,2852.25
24375,-4.276,-0.2897,11.3772,1455,2852.25
24380,-0.7003,2.6193,9.1818,1483,2852.25
24385,2.1488,3.9109,10.4435,1459,2852.25
24390,-1.6891,0.8859,11.9411,1459,2852.25
24395,-3.6428,-0.9876,11.8968,1455,2852.25
24400,-2.0339,2.2769,9.1806,1477,2852.25
24405,2.0411,3.8056,10.331,1463,2852.25
24410,-0.3831,1.4976,11.6035,1463,2852.25
24415,-2.6169,-1.4269,12.22,1452,2852.25
24420,-3.3818,1.7478,9.4032,1458,2852.25
24425,1.646,3.3986,10.167,1464,2852.12
24430,1.3779,2.2302,11.2527,1459,2852.12
24435,-1.8938,-1.3048,12.2918,1451,2852.12
24440,-4.2988,1.1181,10.0078,1455,2852.12
24445,1.0965,3.1244,9.833,1469,2851.71
24450,2.2984,3.0993,10.9164,1459,2851.71
24455,-1.7095,-0.5183,12.3613,1455,2851.71
24460,-4.5741,0.4585,10.7739,1453,2851.71
24465,0.3172,2.8766,9.3948,1467,2851.58
24470,2.4265,3.6739,10.568,1459,2851.58
24475,-1.8974,0.3268,12.1697,1451,2851.58
24480,-4.0809,-0.3843,11.4323,1453,2851.58
24485,-0.8224,2.6145,9.1291,1482,2851.71
24490,2.1656,3.8762,10.3932,1462,2851.71
24495,-1.6041,0.9697,11.886,1451,2851.71
24500,-3.3926,-1.1432,11.9542,1459,2851.71
24505,-2.2853,2.1871,9.0716,1479,2851.85
24510,1.8866,3.7158,10.2963,1461,2851.85
24515,-0.1149,1.6113,11.5724,1463,2851.85
24520,-2.5762,-1.4557,12.2727,1453,2851.85
24525,-3.6021,1.737,9.5253,1459,2851.85
24530,1.5419,3.4429,10.1299,1463,2851.98
24535,1.6376,2.4289,11.1965,1455,2851.98
24540,-1.8064,-1.1325,12.3457,1452,2851.98
24545,-4.3431,1.0487,10.1071,1453,2851.98
24550,1.0199,3.1017,9.7755,1465,2852.66
24555,2.4493,3.1424,10.835,1461,2852.66
24560,-1.579,-0.3998,12.3158,1454,2852.66
24565,-4.464,0.2155,10.8362,1455,2852.66
24570,0.0766,2.8311,9.3518,1462,2852.25
24575,2.2996,3.6955,10.5177,1459,2852.25
24580,-1.8292,0.3855,12.1697,1461,2852.25
24585,-4.1527,-0.5758,11.5029,1461,2852.25
24590,-1.142,2.5582,9.1758,1481,2851.98
24595,2.1093,3.8786,10.3932,1460,2851.98
24600,-1.4557,1.0654,11.8369,1453,2851.98
24605,-3.2573,-1.1564,11.9698,1465,2851.98
24610,-2.5223,2.1596,9.2033,1467,2851.85
24615,1.9178,3.7026,10.2364,1448,2851.85
24620,0.2358,1.6951,11.4742,1463,2851.85
24625,-2.375,-1.4712,12.2966,1455,2851.85
24630,-3.7912,1.5814,9.5852,1465,2851.85
24635,1.5287,3.3327,10.0018,1465,2852.25
24640,1.8507,2.4253,11.1558,1461,2852.25
24645,-1.7394,-1.0858,12.3325,1455,2852.25
24650,-4.4353,0.9062,10.1861,1453,2852.25
24655,0.8559,3.0813,9.6929,1469,2852.25
24660,2.3703,3.3148,10.7583,1459,2852.25
24665,-1.7502,-0.2286,12.3529,1451,2852.25
24670,-4.4891,0.1784,11.0349,1459,2852.25
24675,-0.0263,2.8826,9.3326,1467,2852.25
24680,2.3176,3.79,10.5237,1453,2852.25
24685,-1.9333,0.5339,12.044,1459,2852.25
24690,-3.8762,-0.6201,11.6322,1455,2852.25
24695,-1.3036,2.4636,9.0872,1484,2852.52
24700,2.1069,3.8295,10.392,1451,2852.52
24705,-1.2246,1.1612,11.8094,1453,2852.52
24710,-3.1915,-1.2953,12.0476,1465,2852.52
24715,-2.7306,2.0087,9.1937,1493,2853.07
24720,1.8184,3.62,10.3022,1451,2853.07
24725,0.4118,1.7957,11.4156,1461,2853.07
24730,-2.2553,-1.3779,12.2894,1447,2853.07
24735,-3.8714,1.5634,9.6857,1467,2853.07
24740,1.3743,3.3351,10.0149,1469,2853.34
24745,1.9764,2.6468,11.1043,1455,2853.34
24750,-1.7035,-0.9529,12.4008,1454,2853.34
24755,-4.4664,0.826,10.2436,1456,2853.34
24760,0.8308,3.0239,9.5996,1467,2853.61
24765,2.4995,3.3483,10.7607,1455,2853.61
24770,-1.664,-0.1652,12.3062,1451,2853.61
24775,-4.3718,-0.006,11.0744,1461,2853.61
24780,-0.1329,2.7282,9.3326,1483,2853.61
24785,2.2505,3.7924,10.4722,1453,2853.61
24790,-1.9549,0.5758,12.0847,1462,2853.61
24795,-3.8726,-0.7793,11.6777,1459,2853.61
24800,-1.5048,2.4457,9.0764,1485,2853.61
24805,2.0458,3.8714,10.4016,1459,2853.61
24810,-1.0295,1.239,11.795,1455,2853.61
24815,-3.1328,-1.2761,12.0404,1464,2853.61
24820,-2.8287,2.0123,9.2608,1484,2853.61
24825,1.8639,3.6069,10.1526,1459,2853.61
24830,0.7362,1.8866,11.4575,1463,2853.61
24835,-2.2302,-1.4664,12.2954,1453,2853.61
24840,-3.9325,1.4353,9.681,1465,2853.61
24845,1.4126,3.2238,9.9778,1467,2853.75
24850,2.0578,2.7485,11.0792,1451,2853.75
24855,-1.6688,-0.9601,12.4068,1453,2853.75
24860,-4.525,0.7482,10.3549,1459,2853.75
24865,0.7362,2.9688,9.5912,1469,2853.47
24870,2.4301,3.4596,10.7571,1458,2853.47
24875,-1.798,-0.0563,12.2619,1449,2853.47
24880,-4.4436,-0.0036,11.0947,1453,2853.47
24885,-0.2933,2.788,9.2656,1484,2853.34
24890,2.2625,3.8188,10.5285,1456,2853.34
24895,-1.889,0.6883,12.038,1452,2853.34
24900,-3.7757,-0.8392,11.6801,1453,2853.34
24905,-1.6149,2.3786,9.086,1479,2853.34
24910,2.0303,3.784,10.3729,1462,2853.34
24915,-0.9014,1.2797,11.655,1454,2853.34
24920,-3.0071,-1.3934,12.0979,1459,2853.34
24925,-3.0382,1.9393,9.3314,1468,2853.2
24930,1.749,3.5303,10.2113,1453,2853.2
24935,0.8116,1.9812,11.388,1461,2853.2
24940,-2.15,-1.3982,12.3385,1449,2853.2
24945,-4.1061,1.3635,9.7707,1463,2853.2
24950,1.3228,3.225,9.9623,1468,2853.2
24955,2.2134,2.8156,11.0217,1458,2853.2
24960,-1.5766,-0.7578,12.4319,1451,2853.2
24965,-4.5238,0.6584,10.4603,1455,2853.2
24970,0.6596,2.9688,9.5253,1477,2852.8
24975,2.4397,3.4943,10.5931,1459,2852.8
24980,-1.7753,0.018,12.2392,1448,2852.8
24985,-4.3048,-0.1903,11.2348,1455,2852.8
24990,-0.4537,2.7031,9.2033,1485,2853.07
24995,2.1344,3.7996,10.471,1455,2853.07
25000,-1.7933,0.7626,12.0273,1455,2853.07
25005,-3.7792,-0.911,11.7723,1454,2853.07
25010,-1.804,2.3715,9.1016,1466,2853.34
25015,1.9465,3.8499,10.3968,1463,2853.34
25020,-0.735,1.3719,11.6574,1461,2853.34
25025,-2.8599,-1.3623,12.1602,1451,2853.34
25030,-3.158,1.9082,9.3254,1459,2853.34
25035,1.7765,3.5769,10.1694,1467,2853.75
25040,1.1061,2.0746,11.3258,1460,2853.75
25045,-2.0315,-1.3264,12.3026,1449,2853.75
25050,-4.1659,1.2342,9.8438,1462,2853.75
25055,1.2893,3.1867,9.8641,1466,2854.29
25060,2.2374,2.8611,10.963,1455,2854.29
25065,-1.6197,-0.7697,12.3409,1452,2854.29
25070,-4.5885,0.5435,10.5764,1451,2854.29
25075,0.5255,2.9197,9.5158,1471,2854.7
25080,2.4337,3.6033,10.6997,1461,2854.7
25085,-1.8088,0.1341,12.1841,1465,2854.7
25090,-4.379,-0.1844,11.2527,1451,2854.7
25095,-0.5136,2.6552,9.2261,1481,2855.1
25100,2.2218,3.8714,10.4303,1460,2855.1
25105,-1.7633,0.8104,11.9638,1449,2855.1
25110,-3.644,-0.9553,11.8441,1455,2855.1
25115,-1.8615,2.3068,9.1087,1465,2854.97
25120,2.0399,3.7948,10.3154,1455,2854.97
25125,-0.5902,1.4018,11.637,1463,2854.97
25130,-2.8491,-1.4401,12.1434,1451,2854.97
25135,-3.2382,1.8447,9.3541,1453,2854.97
25140,1.6819,3.4572,10.2161,1465,2854.56
25145,1.1696,2.1512,11.3042,1459,2854.56
25150,-2.0494,-1.3779,12.3301,1451,2854.56
25155,-4.2138,1.2522,9.8725,1454,2854.56
25160,1.2031,3.1723,9.815,1465,2854.7
25165,2.3176,2.9532,10.92,1453,2854.7
25170,-1.6173,-0.6416,12.4307,1471,2854.7
25175,-4.5394,0.577,10.6147,1455,2854.7
25180,0.4872,2.9532,9.4798,1469,2854.56
25185,2.4469,3.5733,10.5967,1459,2854.56
25190,-1.7968,0.1532,12.232,1453,2854.56
25195,-4.2593,-0.31,11.2851,1452,2854.56
25200,-0.5866,2.6252,9.1638,1483,2854.42
25205,2.1823,3.8307,10.4567,1455,2854.42
25210,-1.7885,0.838,11.965,1453,2854.42
25215,-3.5578,-0.9936,11.8621,1459,2854.42
25220,-1.992,2.2936,9.0752,1465,2854.42
25225,1.9046,3.7601,10.3118,1451,2854.42
25230,-0.4274,1.4641,11.6035,1461,2854.42
25235,-2.7354,-1.4365,12.2116,1455,2854.42
25240,-3.3351,1.8112,9.402,1453,2854.42
25245,1.6975,3.4884,10.1287,1467,2854.42
25250,1.3874,2.1727,11.2719,1459,2854.42
25255,-1.9309,-1.2701,12.3493,1449,2854.42
25260,-4.2413,1.2043,9.9419,1451,2854.42
25265,1.1827,3.1819,9.8019,1465,2854.97
25270,2.3308,2.9748,10.9331,1461,2854.97
25275,-1.5969,-0.6381,12.3146,1455,2854.97
25280,-4.5406,0.4022,10.6326,1459,2854.97
25285,0.3639,2.9676,9.4655,1465,2854.97
25290,2.3655,3.6476,10.6698,1460,2854.97
25295,-1.7861,0.2095,12.1602,1459,2854.97
25300,-4.3598,-0.3065,11.3294,1455,2854.97
25305,-0.6596,2.6276,9.1638,1485,2855.24
25310,2.2625,3.9073,10.4663,1461,2855.24
25315,-1.7274,0.9098,11.9339,1451,2855.24
25320,-3.5877,-1.0068,11.9495,1455,2855.24
25325,-2.0315,2.211,9.0896,1483,2855.51
25330,2.0051,3.7816,10.2723,1453,2855.51
25335,-0.3771,1.4808,11.5915,1465,2855.51
25340,-2.7102,-1.4389,12.2727,1455,2855.51
25345,-3.401,1.798,9.3853,1463,2855.51
25350,1.64,3.4357,10.1179,1465,2854.97
25355,1.3491,2.2494,11.2815,1454,2854.97
25360,-1.9968,-1.3252,12.3684,1453,2854.97
25365,-4.3096,1.2007,9.9264,1455,2854.97
25370,1.1372,3.1436,9.8078,1464,2855.24
25375,2.3511,3.0861,10.8912,1464,2855.24
25380,-1.6544,-0.5638,12.4056,1453,2855.24
25385,-4.5262,0.4705,10.6973,1455,2855.24
25390,0.395,2.9245,9.4152,1459,2854.97
25395,2.4277,3.6404,10.5333,1463,2854.97
25400,-1.8423,0.237,12.1961,1461,2854.97
25405,-4.1911,-0.3723,11.3988,1459,2854.97
25410,-0.7338,2.6312,9.0956,1484,2854.97
25415,2.1344,3.8559,10.4076,1461,2854.97
25420,-1.6245,0.8787,11.9746,1454,2854.97
25425,-2.6624,-1.415,12.1697,1463,2854.97
25430,-2.1859,2.2494,9.1183,1479,2854.97
25435,1.6113,3.4417,10.0784,1455,2854.97
25440,-0.2382,1.5203,11.6346,1465,2854.97
25445,-1.8651,-1.2091,12.3158,1456,2854.97
25450,-4.3251,1.1372,10.0018,1459,2854.97
25455,1.1205,3.1723,9.8043,1461,2854.7
25460,2.4086,3.0682,10.8386,1459,2854.7
25465,-1.5933,-0.5375,12.3565,1457,2854.7
25470,-4.5741,0.3388,10.6769,1453,2854.7
25475,0.322,2.8503,9.408,1465,2855.24
25480,2.3523,3.6512,10.6566,1455,2855.24
25485,-1.9142,0.2765,12.159,1453,2855.24
25490,-4.2078,-0.3986,11.388,1455,2855.24
25495,-0.8942,2.5809,9.1231,1479,2855.1
25500,2.1189,3.9014,10.4172,1455,2855.1
25505,-1.5502,0.9457,11.9279,1461,2855.1
25510,-3.541,-1.1037,11.9519,1455,2855.1
25515,-2.2122,2.2242,9.1159,1482,2854.97
25520,2.0135,3.7577,10.2592,1459,2854.97
25525,-0.1748,1.5754,11.5772,1447,2854.97
25530,-2.5881,-1.4497,12.2823,1460,2854.97
25535,-3.48,1.7095,9.4104,1467,2854.29
25540,1.6388,3.4153,10.0628,1452,2854.29
25545,1.5155,2.2769,11.2288,1465,2854.29
25550,-1.828,-1.257,12.3481,1455,2854.29
25555,-4.3503,1.1037,10.0281,1464,2854.29
25560,1.1337,3.1352,9.7863,1459,2854.56
25565,2.3739,3.0765,10.9307,1453,2854.56
25570,-1.6328,-0.4968,12.396,1455,2854.56
25575,-4.543,0.3819,10.7464,1455,2854.56
25580,0.3029,2.9233,9.408,1465,2854.15
25585,2.3822,3.7242,10.5848,1461,2854.15
25590,-1.9201,0.3196,12.202,1454,2854.15
25595,-4.0773,-0.4633,11.4527,1455,2854.15
25600,-0.9337,2.5738,9.1219,1481,2854.02
25605,2.1691,3.8475,10.4591,1453,2854.02
25610,-1.5299,0.9625,11.8537,1461,2854.02
25615,-3.4189,-1.1145,11.9243,1455,2854.02
25620,-2.3116,2.156,9.0884,1483,2853.88
25625,1.913,3.6835,10.2903,1454,2853.88
25630,-0.085,1.6041,11.4934,1453,2853.88
25635,-2.5821,-1.488,12.2428,1465,2853.88
25640,-3.6129,1.6771,9.4679,1477,2853.34
25645,1.5897,3.3866,10.058,1449,2853.34
25650,1.634,2.4062,11.1845,1463,2853.34
25655,-1.8399,-1.1372,12.3924,1461,2853.34
25660,-4.373,1.063,10.1107,1464,2853.34
25665,1.0427,3.0957,9.73,1471,2854.15
25670,2.4337,3.1903,10.7715,1453,2854.15
25675,-1.646,-0.3962,12.3313,1453,2854.15
25680,-4.5011,0.2526,10.829,1452,2854.15
25685,0.152,2.8539,9.3625,1487,2853.75
25690,2.2996,3.6739,10.4878,1454,2853.75
25695,-1.9249,0.3807,12.1338,1451,2853.75
25700,-4.0845,-0.565,11.5077,1453,2853.75
25705,-1.0894,2.496,9.1315,1483,2853.61
25710,2.0351,3.8511,10.4339,1455,2853.61
25715,-1.4305,1.0319,11.8585,1455,2853.61
25720,-3.383,-1.2031,12.0309,1461,2853.61
25725,-2.4612,2.1715,9.1135,1485,2853.47
25730,1.9297,3.7026,10.2783,1455,2853.47
25735,0.1856,1.7083,11.5077,1452,2853.47
25740,-2.4696,-1.4664,12.2631,1460,2853.47
25745,-3.6883,1.6149,9.5409,1485,2853.2
25750,1.5467,3.3351,10.1323,1452,2853.2
25755,1.7657,2.4708,11.2647,1455,2853.2
25760,-1.7023,-1.1313,12.372,1451,2853.2
25765,-4.3742,0.9313,10.1107,1466,2853.2
25770,0.9218,3.0765,9.675,1464,2852.93
25775,2.4074,3.2693,10.7727,1452,2852.93
25780,-1.6544,-0.3208,12.2882,1452,2852.93
25785,-4.5119,0.1808,10.9223,1455,2852.93
25790,-0.012,2.8419,9.3948,1477,2852.66
25795,2.2841,3.7733,10.5393,1458,2852.66
25800,-1.8495,0.4932,12.1123,1467,2852.66
25805,-4.0618,-0.5854,11.5389,1461,2852.66
25810,-1.1971,2.4972,9.1291,1482,2852.25
25815,2.1404,3.8176,10.386,1459,2852.25
25820,-1.2737,1.1791,11.8537,1453,2852.25
25825,-3.1639,-1.2462,12.0201,1453,2852.25
25830,-2.6073,2.0267,9.1423,1483,2852.12
25835,1.8627,3.5937,10.222,1462,2852.12
25840,0.4154,1.7561,11.388,1453,2852.12
25845,-2.3152,-1.4784,12.2416,1463,2852.12
25850,-3.8666,1.5215,9.663,1469,2852.25
25855,1.4102,3.2777,10.0676,1453,2852.25
25860,1.9429,2.6109,11.1259,1465,2852.25
25865,-1.7107,-0.9649,12.3601,1451,2852.25
25870,-4.4604,0.8715,10.3513,1463,2852.25
25875,0.844,3.0382,9.6139,1465,2853.2
25880,2.466,3.3794,10.7332,1451,2853.2
25885,-1.7107,-0.152,12.3265,1449,2853.2
25890,-4.4017,0.0563,11.054,1455,2853.2
25895,-0.1808,2.7677,9.2955,1471,2853.2
25900,2.2206,3.8032,10.5548,1459,2853.2
25905,-1.8328,0.559,12.0392,1449,2853.2
25910,-3.9816,-0.7961,11.6646,1459,2853.2
25915,-1.4413,2.3954,9.0465,1486,2853.75
25920,2.1009,3.8487,10.404,1459,2853.75
25925,-1.2198,1.172,11.7855,1450,2853.75
25930,-3.0418,-1.3216,12.1554,1454,2853.75
25935,-2.8527,2.0243,9.1985,1464,2853.88
25940,1.8328,3.6691,10.222,1461,2853.88
25945,0.6093,1.8687,11.4515,1459,2853.88
25950,-2.1644,-1.4018,12.3218,1452,2853.88
25955,-3.9229,1.4461,9.6223,1455,2853.88
25960,1.3994,3.3112,9.9623,1467,2854.02
25965,2.1141,2.7126,11.0732,1459,2854.02
25970,-1.658,-0.9661,12.3541,1451,2854.02
25975,-4.5526,0.7314,10.2951,1467,2854.02
25980,0.7769,2.9844,9.6151,1465,2853.88
25985,2.3846,3.3974,10.7284,1455,2853.88
