timestamp_ms,ax,ay,az,acs_adc,rpm
12534,-0.6237,1.0163,11.9686,1484,2871.78
12539,-3.5973,-1.2175,12.0452,1483,2871.78
12544,-2.9868,2.2386,8.9914,1514,2871.23
12549,1.8639,3.7637,10.2639,1482,2871.23
12554,0.735,1.5981,11.6322,1485,2871.23
12559,-2.7126,-1.4581,12.4211,1480,2871.23
12564,-4.0965,1.7957,9.2596,1485,2871.23
12569,1.4724,3.5027,10.0066,1511,2871.09
12574,2.1452,2.2326,11.3545,1486,2871.09
12579,-1.8818,-1.3216,12.5791,1480,2871.09
12584,-4.8399,1.2091,9.7372,1491,2871.09
12589,0.8679,3.1975,9.6391,1513,2871.09
12594,2.8276,2.9485,11.0349,1485,2871.09
12599,-1.3384,-0.7099,12.5971,1471,2871.09
12604,-5.0805,0.583,10.4184,1483,2871.09
12609,0.1592,2.9975,9.3218,1523,2870.95
12614,2.8335,3.5626,10.7691,1484,2870.95
12619,-1.2103,0.0742,12.4211,1470,2870.95
12624,-4.7321,-0.1796,11.0875,1478,2870.95
12629,-0.8691,2.7402,9.0465,1547,2870.95
12634,2.4529,3.8415,10.5704,1481,2870.95
12639,-1.0594,0.7111,12.1278,1484,2870.95
12644,-4.1132,-0.9026,11.7124,1483,2870.95
12649,-2.1237,2.4265,8.8705,1544,2871.36
12654,2.0339,3.8104,10.3621,1485,2871.36
12659,-0.2083,1.2186,11.8585,1481,2871.36
12664,-3.3004,-1.4377,12.1889,1490,2871.36
12669,-3.4213,2.0506,9.0405,1533,2871.78
12674,1.6903,3.6571,10.2113,1477,2871.78
12679,1.2222,1.8411,11.5999,1487,2871.78
12684,-2.4169,-1.4964,12.4642,1483,2871.78
12689,-4.4005,1.6089,9.426,1495,2871.78
12694,1.3156,3.4429,9.9048,1499,2872.05
12699,2.5019,2.5546,11.2156,1481,2872.05
12704,-1.6077,-1.1265,12.5743,1484,2872.05
12709,-4.9213,1.0367,9.9982,1479,2872.05
12714,0.7015,3.1759,9.5553,1503,2872.33
12719,2.9173,3.1615,10.8804,1486,2872.33
12724,-1.2617,-0.3891,12.4463,1480,2872.33
12729,-4.8914,0.243,10.6686,1481,2872.33
12734,-0.2442,2.8814,9.1722,1518,2872.33
12739,2.6276,3.6536,10.6626,1491,2872.33
12744,-1.1815,0.3436,12.3242,1481,2872.33
12749,-4.5633,-0.5231,11.3677,1480,2872.33
12754,-1.3623,2.6755,8.9435,1544,2872.19
12759,2.2913,3.8906,10.4615,1491,2872.19
12764,-0.893,0.8966,12.0883,1483,2872.19
12769,-3.8235,-1.0774,11.9231,1481,2872.19
12774,-2.6228,2.3343,8.9627,1553,2872.05
12779,1.9692,3.7996,10.2232,1484,2872.05
12784,0.2957,1.421,11.7555,1484,2872.05
12789,-2.9281,-1.2282,-0.3089,1483,2872.05
12794,-3.7745,1.9285,9.1327,1512,2872.05
12799,1.6197,3.5925,10.0868,1485,2872.05
12804,1.7633,2.0315,11.4383,1490,2872.05
12809,-2.1141,-1.4353,12.5037,1471,2872.05
12814,-4.6687,1.3874,9.6055,1493,2872.05
12819,1.1013,3.3255,9.7528,1513,2872.19
12824,2.6875,2.7426,11.1294,1481,2872.19
12829,-1.4964,-0.9325,12.536,1483,2872.19
12834,-4.9955,0.7901,10.2268,1483,2872.19
12839,0.419,3.0945,9.4571,1519,2872.33
12844,2.9149,3.4129,10.8709,1485,2872.33
12849,-1.2534,-0.1125,12.4343,1479,2872.33
12854,-4.8554,0.073,10.9056,1484,2872.33
12859,-0.5698,2.8276,9.0752,1545,2872.6
12864,2.5893,3.7852,10.6362,1483,2872.6
12869,-1.1408,0.4788,12.1973,1486,2872.6
12874,-4.3778,-0.7111,11.4898,1483,2872.6
12879,-1.7514,2.5702,8.9028,1545,2872.6
12884,2.1668,3.8666,10.4303,1485,2872.6
12889,-0.5507,1.0582,11.9734,1483,2872.6
12894,-3.547,-1.2797,12.0464,1491,2872.6
12899,-3.0586,2.1799,8.9423,1548,2872.33
12904,1.7633,3.7362,10.2364,1477,2872.33
12909,0.7889,1.6448,11.661,1493,2872.33
12914,-2.6336,-1.4772,12.3972,1480,2872.33
12919,-4.124,1.7945,9.2979,1481,2872.33
12924,1.3862,3.5075,9.9898,1509,2872.46
12929,2.2063,2.2709,11.3928,1484,2872.46
12934,-1.8364,-1.2055,12.5767,1481,2872.46
12939,-4.8483,1.2198,9.8186,1484,2872.46
12944,0.8691,3.2226,9.6127,1514,2872.74
12949,2.8958,2.958,11.0552,1471,2872.74
12954,-1.3168,-0.5962,12.5253,1481,2872.74
12959,-4.9775,0.4956,10.4495,1483,2872.74
12964,0.0335,2.9616,9.2021,1515,2872.6
12969,2.7916,3.4836,10.7224,1483,2872.6
12974,-1.2163,0.0395,12.372,1477,2872.6
12979,-4.6974,-0.2813,11.1354,1485,2872.6
12984,-1.0271,2.7533,8.9603,1549,2872.6
12989,2.4002,3.8355,10.5261,1485,2872.6
12994,-1.0259,0.723,12.1661,1485,2872.6
12999,-4.13,-0.8511,11.7914,1482,2872.6
13004,-2.2218,2.4265,8.8753,1547,2872.46
13009,2.0698,3.8487,10.3813,1487,2872.46
13014,-0.176,1.2222,11.8764,1479,2872.46
13019,-3.201,-1.4054,12.208,1492,2872.46
13024,-3.4704,2.0446,9.0417,1549,2872.6
13029,1.6843,3.6871,10.1526,1481,2872.6
13034,1.3084,1.8603,11.6059,1487,2872.6
13039,-2.3595,-1.4724,12.4858,1485,2872.6
13044,-4.458,1.5993,9.4248,1495,2872.6
13049,1.2749,3.3974,9.8821,1511,2872.88
13054,2.4983,2.5175,11.2516,1481,2872.88
13059,-1.646,-1.1037,12.5743,1483,2872.88
13064,-4.9344,0.9924,10.0712,1481,2872.88
13069,0.6213,3.2082,9.5385,1511,2872.6
13074,2.8886,3.219,10.9391,1485,2872.6
13079,-1.2809,-0.3986,12.481,1479,2872.6
13084,-4.9129,0.3148,10.7081,1483,2872.6
13089,-0.2634,2.9461,9.1602,1501,2872.05
13094,2.6791,3.6368,10.6207,1483,2872.05
13099,-1.1708,0.3124,12.3541,1487,2872.05
13104,-4.5011,-0.4776,11.3473,1479,2872.05
13109,-1.3443,2.6169,8.9208,1542,2871.91
13114,2.2829,3.8439,10.4339,1487,2871.91
13119,-0.8308,0.8882,12.0249,1481,2871.91
13124,-3.802,-1.1001,11.9076,1481,2871.91
13129,-2.6959,2.32,8.8849,1549,2871.64
13134,1.8986,3.784,10.2891,1483,2871.64
13139,0.3615,1.4437,11.8286,1491,2871.64
13144,-2.9389,-1.4988,12.3242,1478,2871.64
13149,-3.8571,1.9022,9.1363,1483,2871.64
13154,1.6029,3.5877,10.0664,1516,2871.64
13159,1.8555,2.0662,11.4658,1485,2871.64
13164,-2.0231,-1.3467,12.5025,1480,2871.64
13169,-4.6555,1.4102,9.6355,1491,2871.64
13174,1.063,3.3543,9.7169,1517,2872.05
13179,2.7689,2.7521,11.1905,1483,2872.05
13184,-1.421,-0.8607,12.5324,1471,2872.05
13189,-5.0326,0.7195,10.2675,1478,2872.05
13194,0.3256,3.1256,9.3458,1519,2872.46
13199,2.4936,3.7924,10.5429,1484,2872.46
13204,-1.2725,-0.1257,12.4834,1477,2872.46
13209,-4.2198,-0.8021,11.6921,1492,2872.46
13214,-0.6764,2.7964,8.9854,1545,2872.6
13219,2.0937,3.8786,10.3669,1481,2872.6
13224,-1.1672,0.5435,12.2116,1485,2872.6
13229,-3.3854,-1.3348,12.141,1481,2872.6
13234,-3.2681,2.1069,8.9519,1546,2872.6
13239,1.7885,3.7864,10.24,1480,2872.6
13244,1.1001,1.7346,11.6717,1483,2872.6
13249,-2.4541,-1.4772,12.4451,1495,2872.6
13254,-4.2808,1.6532,9.3206,1543,2872.6
13259,1.3192,3.4596,9.8569,1482,2872.6
13264,2.4205,2.4086,11.3461,1491,2872.6
13269,-1.7741,-1.2186,12.5624,1478,2872.6
13274,-4.9404,1.1313,9.918,1483,2872.6
13279,0.7769,3.201,9.6127,1501,2872.6
13284,2.9006,3.055,11.0014,1483,2872.6
13289,-1.3276,-0.5435,12.5277,1481,2872.6
13294,-4.9368,0.4058,10.5884,1479,2872.6
13299,-0.1652,2.9772,9.268,1509,2872.6
13304,2.7473,3.6284,10.6937,1491,2872.6
13309,-1.239,0.1664,12.372,1481,2872.6
13314,-4.5837,-0.316,11.2659,1480,2872.6
13319,-1.1923,2.7318,8.9244,1518,2872.46
13324,2.3727,3.8583,10.4363,1486,2872.46
13329,-0.9266,0.7889,12.0823,1479,2872.46
13334,-3.9409,-1.0139,11.8118,1483,2872.46
13339,-2.4361,2.411,8.8921,1545,2872.6
13344,1.9704,3.802,10.3154,1485,2872.6
13349,0.1077,1.318,11.874,1481,2872.6
13354,-3.1268,-1.4473,12.2918,1478,2872.6
13359,-3.6356,2.0004,9.1016,1553,2873.01
13364,1.6221,3.5721,10.1406,1485,2873.01
13369,1.5826,1.9225,11.5712,1480,2873.01
13374,-2.2087,-1.421,12.5085,1487,2873.01
13379,-4.5849,1.5359,9.5624,1551,2873.15
13384,1.227,3.3327,9.827,1469,2873.15
13389,2.7114,2.6683,11.2504,1485,2873.15
13394,-1.5287,-0.9744,12.5684,1478,2873.15
13399,-4.9704,0.8859,10.1418,1495,2873.15
13404,0.4992,3.1508,9.4571,1513,2873.15
13409,2.9353,3.2896,10.8948,1481,2873.15
13414,-1.2617,-0.2705,12.4894,1483,2873.15
13419,-4.9297,0.1221,10.7847,1483,2873.15
13424,-0.4393,2.8659,9.0944,1515,2873.15
13429,2.6312,3.7062,10.6291,1485,2873.15
13434,-1.172,0.3807,12.3158,1479,2873.15
13439,-4.5119,-0.5662,11.4706,1487,2873.15
13444,-1.5455,2.5786,8.8969,1542,2873.56
13449,2.2721,3.8846,10.4256,1483,2873.56
13454,-0.747,0.9469,11.9746,1491,2873.56
13459,-3.6931,-1.1432,12.0321,1481,2873.56
13464,-2.8527,2.2757,8.9172,1541,2873.43
13469,1.8866,3.8283,10.2544,1491,2873.43
13474,0.6021,1.4844,11.7352,1480,2873.43
13479,-2.8264,-1.4772,12.4091,1482,2873.43
13484,-3.954,1.8316,9.153,1513,2873.15
13489,1.4796,3.535,10.0353,1485,2873.15
13494,2.0016,2.1093,11.4443,1492,2873.15
13499,-2.0123,-1.3958,12.5588,1480,2873.15
13504,-4.7345,1.2737,9.681,1484,2873.15
13509,1.0139,3.2358,9.6833,1511,2872.74
13514,2.8192,2.8838,11.1402,1487,2872.74
13519,-1.4904,-0.7817,12.5743,1480,2872.74
13524,-4.9752,0.6812,10.2939,1491,2872.74
13529,0.2263,3.0215,9.3242,1513,2873.29
13534,2.8551,3.4656,10.8062,1483,2873.29
13539,-1.2474,-0.0227,12.4786,1477,2873.29
13544,-4.774,-0.0263,11.0085,1483,2873.29
13549,-0.6835,2.8192,9.0285,1516,2873.15
13554,2.5702,3.7673,10.5524,1483,2873.15
13559,-1.1791,0.5734,12.1901,1477,2873.15
13564,-4.1779,-0.7829,11.5784,1490,2873.15
13569,-1.913,2.5271,8.8825,1545,2873.84
13574,2.1308,3.8918,10.3765,1481,2873.84
13579,-0.3974,1.0642,11.9483,1491,2873.84
13584,-3.4488,-1.3755,12.0644,1479,2873.84
13589,-3.2106,2.1308,8.9328,1543,2874.25
13594,1.7633,3.7122,10.222,1483,2874.25
13599,0.9984,1.6293,11.7316,1480,2874.25
13604,-2.6133,-1.4712,12.4259,1492,2874.25
13609,-4.276,1.7957,9.3434,1543,2874.66
13614,1.3671,3.5291,9.9467,1471,2874.66
13619,2.3703,2.3619,11.3689,1491,2874.66
13624,-1.8112,-1.1983,12.5672,1481,2874.66
13629,-4.8686,1.1779,9.8342,1483,2874.66
13634,0.8176,3.2549,9.5792,1501,2875.08
13639,2.9293,3.0047,11.0648,1485,2875.08
13644,-1.2761,-0.6225,12.5109,1482,2875.08
13649,-4.9799,0.4549,10.4734,1477,2875.08
13654,0.0419,2.9604,9.1985,1511,2874.66
13659,2.8695,3.5183,10.7332,1489,2874.66
13664,-1.3001,0.1389,12.3601,1483,2874.66
13669,-4.7022,-0.2717,11.1761,1485,2874.66
13674,-1.0762,2.7031,8.9986,1517,2874.53
13679,2.3894,3.8355,10.5608,1487,2874.53
13684,-1.0343,0.7171,12.2009,1479,2874.53
13689,-4.1312,-0.9038,11.746,1483,2874.53
13694,-2.2446,2.3978,8.8334,1547,2874.39
13699,2.1045,3.8918,10.3022,1491,2874.39
13704,-0.1532,1.2414,11.8908,1479,2874.39
13709,-3.2214,-1.3707,12.2176,1481,2874.39
13714,-3.4153,2.0794,9.0166,1515,2873.84
13719,1.7154,3.6715,10.1813,1489,2873.84
13724,1.3862,1.816,11.5652,1483,2873.84
13729,-2.3547,-1.5083,12.4666,1490,2873.84
13734,-4.4161,1.5347,9.3889,1547,2874.39
13739,1.2091,3.3243,9.8557,1479,2874.39
13744,2.5247,2.472,11.3006,1485,2874.39
13749,-1.725,-1.1468,12.6115,1481,2874.39
13754,-4.9835,1.0139,9.985,1497,2874.39
13759,0.68,3.1855,9.5122,1509,2873.98
13764,2.9317,3.2034,10.9523,1479,2873.98
13769,-1.3635,-0.3879,12.554,1483,2873.98
13774,-4.9368,0.31,10.6542,1484,2873.98
13779,-0.1903,2.9473,9.1806,1511,2873.98
13784,2.7054,3.6907,10.6949,1485,2873.98
13789,-1.2246,0.2873,12.3313,1481,2873.98
13794,-4.5993,-0.4489,11.2958,1481,2873.98
13799,-1.2881,2.6815,8.9112,1507,2874.39
13804,2.387,3.8379,10.4208,1485,2874.39
13809,-0.8643,0.8152,12.074,1490,2874.39
13814,-3.875,-1.1289,11.8513,1481,2874.39
13819,-2.5522,2.3236,8.9028,1541,2874.53
13824,1.9321,3.7757,10.3789,1491,2874.53
13829,0.267,1.3144,11.91,1481,2874.53
13834,-3.0418,-1.4641,12.2823,1483,2874.53
13839,-3.7936,1.992,9.074,1543,2875.08
13844,1.6041,3.6057,10.1023,1483,2875.08
13849,1.7346,1.9728,11.5556,1485,2875.08
13854,-2.1823,-1.3743,12.5336,1481,2875.08
13859,-4.6376,1.5419,9.5756,1483,2875.63
13864,1.1863,3.4345,9.76,1485,2875.63
13869,2.7737,2.6719,11.2061,1489,2875.63
13874,-1.5299,-0.9409,12.5348,1479,2875.63
13879,-4.9895,0.8404,10.0975,1495,2875.63
13884,0.4657,3.1161,9.4284,1511,2875.35
13889,2.9784,3.2645,10.8852,1481,2875.35
13894,-1.233,-0.2897,12.5229,1481,2875.35
13899,-4.968,0.1185,10.8218,1491,2875.35
13904,-0.4166,2.8467,9.1063,1519,2875.22
13909,2.63,3.717,10.6374,1487,2875.22
13914,-1.2546,0.3855,12.3421,1479,2875.22
13919,-4.4927,-0.5423,11.4479,1490,2875.22
13924,-1.5479,2.6528,8.8969,1519,2874.94
13929,2.2386,3.9073,10.4854,1479,2874.94
13934,-0.753,0.978,12.0931,1489,2874.94
13939,-3.6356,-1.0822,12.0237,1483,2874.94
13944,-2.8,2.2853,8.825,1544,2874.94
13949,1.9369,3.7876,10.2113,1489,2874.94
13954,0.5578,1.4473,11.7112,1483,2874.94
13959,-2.8431,-1.5431,12.3565,1491,2874.94
13964,-3.9492,1.8435,9.0896,1512,2874.25
13969,1.5311,3.5219,10.0305,1483,2874.25
13974,1.9956,2.071,11.4491,1491,2874.25
13979,-2.0626,-1.4234,12.5348,1485,2874.25
13984,-4.7094,1.3216,9.6642,1483,2874.25
13989,1.0163,3.2836,9.7288,1501,2874.8
13994,2.806,2.8706,11.1893,1486,2874.8
13999,-1.476,-0.7841,12.6258,1479,2874.8
14004,-5.0051,0.7697,10.3358,1489,2874.8
14009,0.3364,3.0933,9.3565,1514,2874.66
14014,2.9365,3.4249,10.8002,1481,2874.66
14019,-1.245,-0.0431,12.4834,1477,2874.66
14024,-4.7704,-0.0419,10.9702,1483,2874.66
14029,-0.6608,2.8347,8.9926,1515,2874.66
14034,2.5642,3.7421,10.5489,1485,2874.66
14039,-1.1265,0.5495,12.2799,1477,2874.66
14044,-4.2557,-0.7757,11.6562,1492,2874.66
14049,-1.8986,2.4828,8.8155,1561,2874.94
14054,2.1081,3.7912,10.3825,1485,2874.94
14059,-0.4166,1.0259,12.0249,1484,2874.94
14064,-3.6033,-1.306,12.0799,1483,2874.94
14069,-3.1496,2.211,8.9495,1532,2875.08
14074,1.8352,3.7409,10.2316,1483,2875.08
14079,0.8799,1.5838,11.7867,1485,2875.08
14084,-2.6707,-1.4724,12.4702,1495,2875.08
14089,-4.1934,1.8028,9.2608,1555,2874.8
14094,1.4569,3.5422,9.9623,1482,2874.8
14099,2.2805,2.2733,11.4503,1495,2874.8
14104,-1.8447,-1.239,12.5755,1482,2874.8
14109,-4.8507,1.2282,9.815,1490,2874.8
14114,0.929,3.2597,9.5984,1503,2874.53
14119,2.9712,2.9437,11.0588,1486,2874.53
14124,-1.3647,-0.7063,12.5372,1483,2874.53
14129,-5.0482,0.5327,10.4112,1479,2874.53
14134,0.0862,3.037,9.2596,1515,2874.53
14139,2.794,3.5063,10.817,1495,2874.53
14144,-1.2294,0.0359,12.4953,1483,2874.53
14149,-4.8782,-0.1532,11.0696,1480,2874.53
14154,-0.8954,2.8036,8.9639,1519,2873.98
14159,2.4768,3.869,10.5632,1487,2873.98
14164,-1.136,0.6776,12.2104,1483,2873.98
14169,-4.1515,-0.8296,11.728,1484,2873.98
14174,-2.1679,2.472,8.8394,1547,2873.98
14179,2.0949,3.8654,10.4232,1485,2873.98
14184,-0.1197,1.1803,11.9255,1484,2873.98
14189,-3.3543,-1.4174,12.1362,1485,2873.98
14194,-3.3507,2.0518,8.9687,1553,2873.98
14199,1.7358,3.6476,10.1885,1493,2873.98
14204,1.2546,1.7178,11.5712,1484,2873.98
14209,-2.4816,-1.5215,12.4846,1492,2873.98
14214,-4.4281,1.5945,9.408,1525,2874.11
14219,1.2701,3.3926,9.9096,1483,2874.11
14224,2.4732,2.4445,11.3042,1484,2874.11
14229,-1.7561,-1.136,12.5887,1479,2874.11
14234,-4.9979,1.1313,9.9563,1497,2874.11
14239,0.723,3.2489,9.5624,1515,2874.39
14244,2.9724,3.1556,11.0002,1482,2874.39
14249,-1.3276,-0.4334,12.6222,1483,2874.39
14254,-4.9273,0.395,10.6207,1481,2874.39
14259,-0.1401,2.9473,9.1351,1516,2874.53
14264,2.7845,3.5841,10.6674,1489,2874.53
14269,-1.154,0.255,12.372,1483,2874.53
14274,-4.6208,-0.3903,11.2324,1483,2874.53
14279,-1.2713,2.6671,8.8849,1533,2874.66
14284,2.3056,3.8247,10.5177,1483,2874.66
14289,-0.9086,0.7518,12.1937,1488,2874.66
14294,-3.9923,-1.0355,11.8357,1483,2874.66
14299,-2.5259,2.3762,8.8813,1545,2875.08
14304,1.986,3.8391,10.3274,1491,2875.08
14309,0.1796,1.2773,11.8884,1481,2875.08
14314,-3.1161,-1.4102,12.2559,1483,2875.08
14319,-3.6655,2.0698,9.074,1555,2875.08
14324,1.6568,3.6476,10.1215,1485,2875.08
14329,1.6951,1.9345,11.6095,1491,2875.08
14334,-2.1979,-1.4281,12.5109,1477,2875.08
14339,-4.5693,1.5012,9.4379,1487,2875.08
14344,1.2007,3.3639,9.833,1523,2874.94
14349,2.7234,2.5893,11.2336,1487,2874.94
14354,-1.5838,-1.057,12.5923,1479,2874.94
14359,-4.9883,0.8691,10.0916,1495,2874.94
14364,0.5291,3.0945,9.4691,1507,2875.22
14369,2.9185,3.213,10.9798,1483,2875.22
14374,-1.2701,-0.3651,12.4989,1482,2875.22
14379,-5.0015,0.2334,10.7643,1483,2875.22
14384,-0.3412,2.9113,9.1327,1525,2875.08
14389,2.6743,3.7134,10.6662,1481,2875.08
14394,-1.3048,0.3699,12.3601,1478,2875.08
14399,-4.4843,-0.4752,11.4407,1492,2875.08
14404,-1.4617,2.6983,8.9459,1548,2875.08
14409,2.3487,3.8595,10.4387,1483,2875.08
14414,-0.729,0.9122,12.0321,1483,2875.08
14419,-3.7673,-1.1384,11.9195,1481,2875.08
14424,-2.7378,2.2673,8.8573,1545,2875.22
14429,1.9249,3.7242,10.3334,1483,2875.22
14434,0.4824,1.4042,11.7579,1481,2875.22
14439,-2.9245,-1.5155,12.3146,1487,2875.22
14444,-3.8595,1.8687,9.0776,1545,2875.35
14449,1.5048,3.5398,10.0724,1481,2875.35
14454,1.8639,2.0435,11.5736,1491,2875.35
14459,-2.1859,-1.4138,12.5468,1478,2875.35
14464,-4.701,1.4569,9.6414,1482,2875.35
14469,1.1181,3.3435,9.7396,1515,2875.49
14474,2.8108,2.7892,11.1163,1487,2875.49
14479,-1.5095,-0.8344,12.5372,1477,2875.49
14484,-5.0039,0.8284,10.2101,1491,2875.49
14489,0.401,3.0897,9.3518,1518,2875.77
14494,2.9712,3.3722,10.8445,1485,2875.77
14499,-1.2115,-0.1604,12.5025,1477,2875.77
14504,-4.8554,0.0036,10.8565,1481,2875.77
14509,-0.5279,2.8299,9.0333,1526,2875.35
14514,2.5809,3.6966,10.6087,1485,2875.35
14519,-1.2498,0.4513,12.3313,1479,2875.35
14524,-4.3778,-0.735,11.4958,1491,2875.35
14529,-1.7526,2.5762,8.9076,1544,2875.35
14534,2.1572,3.8846,10.4435,1487,2875.35
14539,-0.5255,1.0211,12.1039,1487,2875.35
14544,-3.711,-1.2079,12.0404,1487,2875.35
14549,-2.9353,2.2541,8.8945,1549,2875.49
14554,1.9477,3.7804,10.2568,1483,2875.49
14559,0.7745,1.5167,11.728,1483,2875.49
14564,-2.7581,-1.4305,12.3493,1495,2875.49
14569,-4.0235,1.828,9.1866,1549,2875.22
14574,1.4916,3.5326,9.9719,1481,2875.22
14579,2.1679,2.15,11.4706,1493,2875.22
14584,-1.9489,-1.3623,12.5588,1485,2875.22
14589,-4.8255,1.2701,9.6618,1491,2875.22
14594,1.0211,3.2609,9.7097,1508,2875.9
14599,2.8994,2.8754,11.1642,1486,2875.9
14604,-1.5012,-0.8104,12.5875,1493,2875.9
14609,-5.035,0.6788,10.3453,1483,2875.9
14614,0.237,3.0562,9.3781,1517,2875.49
14619,2.8898,3.4788,10.8374,1493,2875.49
14624,-1.2749,-0.0168,12.4355,1483,2875.49
14629,-4.8183,-0.0299,11.0516,1481,2875.49
14634,-0.7518,2.806,9.0154,1524,2875.77
14639,2.5762,3.8152,10.4986,1491,2875.77
14644,-1.1205,0.577,12.2248,1483,2875.77
14649,-4.2509,-0.735,11.6286,1483,2875.77
14654,-1.919,2.5151,8.7939,1543,2876.18
14659,2.1476,3.8032,10.3908,1483,2876.18
14664,-0.3615,1.0379,11.965,1481,2876.18
14669,-3.4572,-1.3144,12.1039,1479,2876.18
14674,-3.1627,2.156,8.8933,1519,2876.46
14679,1.7298,3.6943,10.2436,1491,2876.46
14684,0.9469,1.6556,11.746,1485,2876.46
14689,-2.6552,-1.4916,12.4798,1490,2876.46
14694,-4.2461,1.7957,9.2452,1553,2876.46
14699,1.4078,3.4895,9.9838,1482,2876.46
14704,2.3331,2.3535,11.3725,1487,2876.46
14709,-1.8567,-1.2186,12.5468,1481,2876.46
14714,-4.8758,1.2115,9.7755,1499,2876.46
14719,0.8559,3.2693,9.6067,1511,2876.59
14724,2.9736,2.9556,11.066,1483,2876.59
14729,-1.3551,-0.6381,12.5241,1491,2876.59
14734,-5.041,0.5351,10.422,1484,2876.59
14739,0.0886,2.9868,9.1854,1517,2877.01
14744,2.8527,3.45,10.7344,1493,2877.01
14749,-1.2546,0.0,12.4379,1483,2877.01
14754,-4.7812,-0.2203,11.1378,1483,2877.01
14759,-0.9481,2.7438,8.9603,1519,2877.15
14764,2.4588,3.7984,10.5489,1487,2877.15
14769,-1.0798,0.6237,12.2236,1483,2877.15
14774,-4.221,-0.8847,11.7196,1481,2877.15
14779,-2.1404,2.5151,8.8741,1543,2877.28
14784,2.0997,3.8882,10.386,1487,2877.28
14789,-0.1784,1.1121,11.9447,1483,2877.28
14794,-3.4345,-1.3455,12.1398,1484,2877.28
14799,-3.304,2.1368,8.9555,1513,2877.42
14804,1.81,3.6583,10.2089,1491,2877.42
14809,1.2282,1.6652,11.6442,1487,2877.42
14814,-2.5283,-1.5646,12.4091,1491,2877.42
14819,-4.306,1.7035,9.2787,1549,2877.28
14824,1.3431,3.4285,9.8988,1479,2877.28
14829,2.4565,2.3607,11.4335,1484,2877.28
14834,-1.8495,-1.2653,12.6007,1479,2877.28
14839,-4.9392,1.1277,9.8869,1494,2877.28
14844,0.7973,3.207,9.5373,1511,2877.97
14849,2.9772,3.0694,11.0433,1481,2877.97
14854,-1.4377,-0.5938,12.6031,1485,2877.97
14859,-5.0266,0.5459,10.5237,1483,2877.97
14864,0.0395,2.9951,9.2464,1511,2878.11
14869,2.8599,3.5578,10.7248,1487,2878.11
14874,-1.2701,0.0826,12.4235,1480,2878.11
14879,-4.6711,-0.1939,11.1414,1483,2878.11
14884,-0.9912,2.7773,8.8633,1515,2878.39
14889,2.4349,3.8319,10.574,1485,2878.39
14894,-1.0139,0.644,12.1949,1488,2878.39
14899,-4.0893,-0.9062,11.7747,1480,2878.39
14904,-2.1847,2.4588,8.7664,1542,2878.11
14909,2.0231,3.8463,10.3813,1493,2878.11
14914,-0.0922,1.1396,11.9016,1481,2878.11
14919,-3.3698,-1.4269,12.1625,1479,2878.11
14924,-3.4405,2.1404,8.934,1545,2877.84
14929,1.6999,3.7038,10.2065,1485,2877.84
14934,1.3192,1.7693,11.6693,1485,2877.84
14939,-2.563,-1.4688,12.4606,1481,2877.84
14944,-4.3934,1.7382,9.3326,1513,2877.56
14949,1.3671,3.4812,9.906,1487,2877.56
14954,2.5426,2.4588,11.3198,1487,2877.56
14959,-1.7657,-1.1516,12.5839,1483,2877.56
14964,-4.8997,1.1863,9.9539,1495,2877.56
14969,0.7709,3.2214,9.5876,1514,2877.7
14974,3.0035,3.0754,10.9858,1480,2877.7
14979,-1.3671,-0.5471,12.5564,1482,2877.7
14984,-5.0182,0.3651,10.5536,1487,2877.7
14989,-0.0634,2.9521,9.1806,1520,2877.56
14994,2.8276,3.5458,10.6338,1487,2877.56
14999,-1.2929,0.1472,12.4295,1483,2877.56
15004,-4.7429,-0.3304,11.1977,1481,2877.56
15009,-1.0894,2.7066,8.9783,1523,2877.56
15014,2.4229,3.8702,10.5141,1483,2877.56
15019,-0.99,0.7254,12.1685,1487,2877.56
15024,-4.1096,-0.929,11.7807,1481,2877.56
15029,-2.2924,2.4588,8.8478,1533,2877.42
15034,2.0806,3.8379,10.3477,1491,2877.42
15039,-0.012,1.2019,11.9339,1483,2877.42
15044,-3.2274,-1.3767,12.2212,1481,2877.42
15049,-3.4345,2.0722,9.0154,1530,2876.73
15054,1.7142,3.65,10.1143,1483,2876.73
15059,1.4293,1.8016,11.5939,1491,2876.73
15064,-2.4217,-1.5275,12.4391,1481,2876.73
15069,-4.446,1.6101,9.4188,1485,2876.73
15074,1.2881,3.4189,9.9168,1514,2876.46
15079,2.5762,2.5007,11.3617,1489,2876.46
15084,-1.7645,-1.1169,12.5767,1477,2876.46
15089,-4.9524,1.0654,9.9587,1495,2876.46
15094,0.6644,3.1831,9.511,1515,2876.18
15099,2.9521,3.1556,10.981,1480,2876.18
15104,-1.3348,-0.4417,12.5097,1479,2876.18
15109,-4.9979,0.3843,10.647,1483,2876.18
15114,-0.0886,2.9784,9.1686,1525,2875.9
15119,2.7976,3.6404,10.6997,1485,2875.9
15124,-1.3108,0.1772,12.3661,1477,2875.9
15129,-4.5622,-0.395,11.2551,1491,2875.9
15134,-1.2354,2.6851,8.8502,1547,2875.63
15139,2.3056,3.8331,10.4926,1483,2875.63
15144,-0.8906,0.7602,12.1326,1489,2875.63
15149,-3.9732,-1.0918,11.8705,1482,2875.63
15154,-2.4792,2.3655,8.8083,1545,2875.9
15159,1.9154,3.784,10.4052,1485,2875.9
15164,0.1987,1.3192,11.813,1479,2875.9
15169,-3.1591,-1.4497,12.2559,1491,2875.9
15174,-3.6739,2.0782,9.086,1547,2875.9
15179,1.6795,3.6823,10.1778,1483,2875.9
15184,1.6927,1.9644,11.5951,1497,2875.9
15189,-2.2984,-1.409,12.5301,1483,2875.9
15194,-4.5885,1.5945,9.499,1482,2875.9
15199,1.2198,3.4237,9.8366,1510,2875.9
15204,2.7605,2.5929,11.1833,1483,2875.9
15209,-1.6257,-1.0295,12.5959,1481,2875.9
15214,-4.9919,0.9337,10.0545,1487,2875.9
15219,0.5267,3.1544,9.4355,1515,2876.18
15224,2.9796,3.2094,10.9331,1483,2876.18
15229,-1.33,-0.3412,12.5037,1479,2876.18
15234,-4.968,0.182,10.7224,1483,2876.18
15239,-0.3424,2.8958,9.0872,1527,2876.04
15244,2.6576,3.626,10.6542,1486,2876.04
15249,-1.2737,0.3112,12.3397,1479,2876.04
15254,-4.531,-0.4525,11.4215,1491,2876.04
15259,-1.4617,2.6935,8.9316,1547,2876.32
15264,2.2685,3.8702,10.5105,1483,2876.32
15269,-0.808,0.8811,12.0632,1485,2876.32
15274,-3.7637,-1.0499,11.8836,1483,2876.32
15279,-2.7102,2.2948,8.831,1546,2876.46
15284,1.9357,3.7745,10.307,1484,2876.46
15289,0.4633,1.3803,11.825,1483,2876.46
15294,-3.049,-1.5036,12.317,1495,2876.46
15299,-3.8427,1.9704,9.1016,1551,2876.46
15304,1.5682,3.565,10.1598,1480,2876.46
15316,1.8543,2.0243,11.5257,1480,2876.46
15320,-4.6902,1.4329,9.5684,1484,2876.46
15325,1.0894,3.3112,9.7564,1514,2876.46
15330,2.7725,2.7473,11.2336,1487,2876.46
15334,-1.6316,-0.9086,12.6246,1477,2876.46
15340,-5.0601,0.8571,10.2651,1489,2876.46
15344,0.4884,3.1939,9.3925,1515,2876.46
15349,2.9497,3.3734,10.8888,1485,2876.46
15354,-1.3156,-0.2251,12.5049,1481,2876.46
15360,-4.9428,0.1125,10.8242,1483,2876.46
15364,-0.4094,2.8491,9.0944,1524,2876.18
15370,2.6624,3.6775,10.6147,1487,2876.18
15374,-1.2522,0.4178,12.3026,1480,2876.18
15380,-4.4424,-0.6428,11.4646,1491,2876.18
15384,-1.6233,2.5845,8.8119,1547,2875.9
15390,2.1955,3.8164,10.416,1485,2875.9
15394,-0.5986,0.9409,12.0345,1483,2875.9
15400,-3.7613,-1.1947,11.995,1484,2875.9
15404,-2.8623,2.2889,8.8466,1544,2875.9
15410,1.8878,3.7721,10.2987,1483,2875.9
15414,0.6357,1.5048,11.7495,1485,2875.9
15419,-2.8802,-1.4473,12.3816,1493,2875.9
15425,-3.9456,1.9453,9.1949,1549,2876.04
15429,1.5886,3.6021,10.0245,1479,2876.04
15434,2.0913,2.1476,11.4814,1491,2876.04
15439,-2.0219,-1.3252,12.5935,1483,2876.04
15445,-4.7417,1.3838,9.6414,1491,2876.04
15449,0.996,3.2633,9.6546,1501,2875.77
15454,2.903,2.7976,11.1522,1484,2875.77
15459,-1.4653,-0.8009,12.5767,1483,2875.77
15465,-5.0829,0.7171,10.1993,1481,2875.77
15469,0.3328,3.0418,9.3709,1510,2875.9
15474,2.9018,3.3698,10.8374,1491,2875.9
15479,-1.3336,-0.1245,12.5277,1486,2875.9
15485,-4.8686,-0.006,10.9355,1481,2875.9
15489,-0.6393,2.7964,9.007,1519,2875.49
15495,2.5331,3.7517,10.5716,1487,2875.49
15499,-1.2677,0.5291,12.2571,1479,2875.49
15505,-4.3036,-0.6548,11.6274,1483,2875.49
15509,-1.8136,2.557,8.8538,1531,2875.49
15515,2.1967,3.8798,10.4435,1485,2875.49
15519,-0.4058,1.0367,11.965,1479,2875.49
15525,-3.5961,-1.2534,11.9938,1481,2875.49
15530,-3.0909,2.1847,8.8585,1518,2875.08
15535,1.8399,3.6739,10.2747,1491,2875.08
15539,0.9708,1.5622,11.7053,1483,2875.08
15544,-2.7438,-1.549,12.4139,1487,2875.08
15550,-4.1743,1.8004,9.3027,1527,2875.77
15554,1.4329,3.4632,10.0173,1481,2875.77
15559,2.2984,2.2553,11.4144,1491,2875.77
15564,-2.0159,-1.312,12.56,1482,2875.77
15570,-4.8878,1.2749,9.7911,1499,2875.77
15574,0.9385,3.2753,9.6606,1515,2875.77
15579,2.9473,2.964,11.0744,1481,2875.77
15584,-1.4808,-0.6428,12.5983,1481,2875.77
15590,-5.0147,0.6069,10.4926,1483,2875.77
15594,0.1927,3.0287,9.2129,1512,2875.9
15599,2.8695,3.5003,10.7727,1487,2875.9
15604,-1.2594,0.0551,12.4798,1481,2875.9
15610,-4.7453,-0.2215,11.084,1485,2875.9
15614,-0.8428,2.7234,8.9256,1517,2876.04
15620,2.4708,3.7541,10.5512,1485,2876.04
15624,-1.1229,0.6153,12.2188,1485,2876.04
15630,-4.2713,-0.9074,11.6909,1483,2876.04
15634,-2.0423,2.4588,8.7903,1543,2876.18
15640,2.0722,3.8367,10.3597,1491,2876.18
15644,-0.2777,1.1169,11.977,1483,2876.18
15650,-3.4572,-1.3396,12.1733,1483,2876.18
15654,-3.2872,2.1883,8.9052,1544,2876.32
15660,1.8136,3.7457,10.2053,1486,2876.32
15664,1.166,1.7095,11.6622,1483,2876.32
15669,-2.5283,-1.4904,12.4247,1483,2876.32
15675,-4.2713,1.7394,9.2668,1515,2876.46
15679,1.4054,3.4668,9.9431,1481,2876.46
15684,2.4696,2.3499,11.3365,1481,2876.46
15689,-1.8004,-1.227,12.6103,1479,2876.46
15695,-4.9177,1.1349,9.827,1496,2876.46
15699,0.8033,3.1711,9.5744,1513,2876.46
15704,2.9868,3.0263,11.0061,1483,2876.46
15709,-1.3815,-0.6285,12.5396,1483,2876.46
15715,-5.0985,0.4693,10.4327,1480,2876.46
15719,0.0215,2.9664,9.2548,1533,2876.73
15724,2.8096,3.5602,10.7428,1487,2876.73
15729,-1.33,0.1065,12.4343,1479,2876.73
15735,-4.7681,-0.2023,11.1402,1487,2876.73
15739,-0.9589,2.7689,8.9663,1541,2876.46
15745,2.4708,3.8762,10.5237,1482,2876.46
15749,-1.0546,0.7027,12.1865,1485,2876.46
15755,-4.0654,-0.8882,11.7555,1480,2876.46
15759,-2.1775,2.4421,8.8502,1523,2877.01
15765,2.0542,3.8283,10.3741,1485,2877.01
15769,0.0239,1.1779,11.9076,1480,2877.01
15774,-3.3315,-1.4389,12.1434,1483,2877.01
15780,-3.4153,2.1344,8.9866,1547,2876.59
15784,1.7585,3.5949,10.1538,1485,2876.59
15789,1.3874,1.8112,11.6681,1486,2876.59
15794,-2.5809,-1.5275,12.5229,1465,2876.59
15800,-4.4305,1.6484,9.3865,1485,2876.59
15804,1.3264,3.4381,9.9443,1507,2876.46
15809,2.5414,2.484,11.3246,1487,2876.46
15814,-1.8208,-1.1025,12.5743,1477,2876.46
15820,-4.9189,1.1193,9.9862,1491,2876.46
15824,0.7302,3.2274,9.5134,1508,2876.46
15829,2.9485,3.1627,11.0409,1481,2876.46
15834,-1.3898,-0.4776,12.5624,1479,2876.46
15840,-4.9356,0.3472,10.6159,1481,2876.46
15844,-0.1448,2.9305,9.1542,1518,2876.46
15850,2.7378,3.559,10.7057,1481,2876.46
15854,-1.2175,0.2011,12.3277,1471,2876.46
15860,-4.7034,-0.4082,11.2587,1486,2876.46
15864,-1.1492,2.6492,8.9352,1541,2876.59
15870,2.3679,3.8199,10.4962,1481,2876.59
15874,-0.9984,0.7566,12.1757,1483,2876.59
15880,-3.9995,-1.0343,11.8513,1481,2876.59
15884,-2.4481,2.4098,8.8777,1529,2876.32
15890,1.9764,3.8451,10.3837,1485,2876.32
15894,0.1221,1.2833,11.874,1479,2876.32
15899,-3.1603,-1.409,12.2823,1489,2876.32
15905,-3.5662,2.065,9.0429,1500,2876.18
15910,1.7825,3.6679,10.1754,1481,2876.18
15914,1.64,1.8854,11.5532,1490,2876.18
15919,-2.3391,-1.4557,12.4858,1483,2876.18
15925,-4.5083,1.5431,9.4679,1483,2876.18
15930,1.3288,3.3555,9.809,1515,2876.04
15934,2.7138,2.5163,11.2551,1485,2876.04
15939,-1.7095,-1.0953,12.6354,1481,2876.04
15945,-5.0027,0.9888,10.0904,1491,2876.04
15950,0.6165,3.1819,9.4858,1511,2876.46
15954,2.9413,3.2346,10.9367,1481,2876.46
15959,-1.4078,-0.3771,12.5743,1479,2876.46
15965,-5.035,0.2729,10.7129,1482,2876.46
15970,-0.1712,2.9616,9.1279,1519,2876.59
15975,2.7222,3.6919,10.6973,1483,2876.59
15980,-1.342,0.2945,12.384,1479,2876.59
15985,-4.5119,-0.425,11.3653,1492,2876.59
15990,-1.2989,2.6528,8.8801,1544,2876.46
15995,2.3451,3.8487,10.4782,1483,2876.46
16000,-0.753,0.7733,12.0931,1485,2876.46
16005,-3.9121,-1.1289,11.8764,1481,2876.46
16010,-2.5798,2.3212,8.831,1544,2876.59
16015,1.9465,3.7326,10.3358,1483,2876.59
16020,0.3304,1.3587,11.8429,1480,2876.59
16024,-3.1137,-1.4784,12.3014,1485,2876.59
16030,-3.7505,1.9956,9.092,1503,2876.46
16034,1.6077,3.5662,10.1167,1477,2876.46
16039,1.7585,2.0051,11.5401,1497,2876.46
16044,-2.2913,-1.3946,12.475,1480,2876.46
16050,-4.6292,1.5646,9.5624,1483,2876.46
16054,1.1983,3.3938,9.8067,1507,2876.73
16059,2.7402,2.7174,11.2683,1487,2876.73
16064,-1.5682,-0.8871,12.6055,1479,2876.73
16070,-4.9907,0.9242,10.1239,1481,2876.73
16074,0.5327,3.1268,9.4547,1508,2876.04
16079,2.9784,3.2765,10.8721,1493,2876.04
16084,-1.3012,-0.2454,12.4558,1479,2876.04
16090,-4.9368,0.1508,10.7931,1482,2876.04
16094,-0.3783,2.8527,9.0178,1516,2877.15
16100,2.6468,3.6452,10.6039,1491,2877.15
16104,-1.251,0.3915,12.3002,1481,2877.15
16110,-4.4879,-0.5543,11.4419,1484,2877.15
16114,-1.5395,2.6145,8.8801,1545,2876.59
16120,2.2781,3.8762,10.4914,1482,2876.59
16124,-0.7446,0.9337,12.0584,1479,2876.59
16130,-3.7709,-1.1013,11.9842,1479,2876.59
16134,-2.7318,2.3068,8.8753,1546,2876.59
16140,1.98,3.8068,10.2256,1485,2876.59
16144,0.5866,1.4198,11.7472,1481,2876.59
16149,-2.9161,-1.4533,12.3086,1493,2876.59
16155,-3.8798,1.8914,9.0884,1550,2876.87
16160,1.6173,3.5506,10.0485,1478,2876.87
16164,2.0375,2.0315,11.4778,1491,2876.87
16169,-2.132,-1.4449,12.5588,1482,2876.87
16175,-4.7118,1.3862,9.5529,1497,2876.87
16180,1.0953,3.286,9.7181,1499,2877.15
16184,2.7916,2.788,11.2276,1482,2877.15
16189,-1.5981,-0.8691,12.645,1483,2877.15
16195,-5.0254,0.8392,10.2376,1480,2877.15
16200,0.3962,3.1089,9.3697,1509,2877.15
16204,2.9353,3.4046,10.8984,1492,2877.15
16209,-1.4138,-0.1879,12.5157,1480,2877.15
16215,-4.8842,0.1317,10.8553,1483,2877.15
16220,-0.5028,2.8754,9.0106,1511,2877.42
16225,2.6612,3.7625,10.5919,1485,2877.42
16230,-1.1995,0.4525,12.3038,1477,2877.42
16235,-4.3706,-0.6728,11.4886,1481,2877.42
16240,-1.6257,2.5558,8.8322,1541,2877.28
16245,2.1979,3.8164,10.4591,1481,2877.28
16250,-0.589,0.9074,12.0608,1482,2877.28
16255,-3.7002,-1.2713,12.0476,1485,2877.28
16260,-2.9185,2.2913,8.91,1545,2877.15
16265,1.8112,3.7385,10.2951,1485,2877.15
16270,0.7159,1.506,11.8609,1479,2877.15
16274,-2.8766,-1.4521,12.3828,1485,2877.15
16280,-4.0462,1.919,9.1602,1549,2877.15
16284,1.5526,3.5506,10.0437,1483,2877.15
16289,2.0961,2.1871,11.4754,1483,2877.15
16294,-2.0698,-1.2953,12.536,1480,2877.15
16300,-4.7489,1.4018,9.6869,1493,2877.15
16304,1.0355,3.322,9.7193,1509,2877.15
16309,2.8982,2.8335,11.1498,1481,2877.15
16314,-1.5359,-0.7973,12.5504,1486,2877.15
16320,-5.0494,0.668,10.2771,1481,2877.15
16324,0.316,3.0538,9.2727,1511,2877.28
16329,2.9018,3.3519,10.8326,1491,2877.28
16334,-1.3503,-0.1317,12.5037,1481,2877.28
16340,-4.9105,-0.0826,10.9607,1483,2877.28
16344,-0.6668,2.8132,8.9854,1499,2877.42
16350,2.4995,3.7792,10.6506,1483,2877.42
16355,-1.2378,0.498,12.2918,1481,2877.42
16360,-4.3886,-0.6847,11.552,1479,2877.42
16364,-1.8148,2.5714,8.8023,1533,2877.56
16370,2.2266,3.9133,10.4196,1483,2877.56
16374,-0.4968,1.0367,12.0524,1477,2877.56
16380,-3.6188,-1.2103,12.0799,1480,2877.56
16384,-3.0191,2.1823,8.8957,1515,2877.15
16390,1.8902,3.7577,10.2556,1484,2877.15
16394,0.9098,1.5431,11.6825,1481,2877.15
16399,-2.7557,-1.5718,12.4295,1485,2877.15
16405,-4.0917,1.7478,9.1985,1545,2877.7
16410,1.4796,3.4991,10.0413,1481,2877.7
16414,2.2338,2.1835,11.4407,1479,2877.7
16419,-2.0494,-1.3515,12.5612,1478,2877.7
16425,-4.8818,1.2989,9.7241,1493,2877.7
16430,1.0127,3.2705,9.6642,1501,2877.56
16434,2.8671,2.9377,11.1737,1482,2877.56
16439,-1.5311,-0.723,12.5971,1482,2877.56
16445,-5.0709,0.6955,10.3765,1487,2877.56
16450,0.2993,3.0765,9.3051,1515,2877.42
16454,2.9401,3.5063,10.8098,1483,2877.42
16459,-1.3384,-0.0515,12.4463,1478,2877.42
16465,-4.8088,-0.0802,10.987,1479,2877.42
16470,-0.7578,2.7952,8.9711,1533,2877.7
16475,2.5558,3.7685,10.5572,1485,2877.7
16480,-1.1013,0.5351,12.2835,1483,2877.7
16485,-4.3215,-0.8308,11.6143,1481,2877.7
16490,-1.8507,2.5163,8.7652,1543,2877.42
16495,2.1057,3.8188,10.3896,1490,2877.42
16500,-0.3807,1.0199,12.0081,1479,2877.42
16505,-3.5698,-1.3192,12.1111,1483,2877.42
16510,-3.152,2.2039,8.9388,1511,2877.42
16515,1.8196,3.7326,10.2197,1484,2877.42
16520,0.9876,1.634,11.7232,1486,2877.42
16524,-2.7342,-1.4928,12.4295,1481,2877.42
16530,-4.1803,1.822,9.2596,1487,2876.87
16534,1.555,3.486,9.9455,1485,2876.87
16539,2.3679,2.2733,11.4539,1491,2876.87
16544,-1.9525,-1.2402,12.6043,1479,2876.87
16550,-4.8375,1.233,9.7492,1495,2876.87
16554,0.9254,3.2262,9.6271,1509,2877.28
16559,2.9269,2.9293,11.1055,1483,2877.28
16564,-1.4509,-0.6716,12.5432,1483,2877.28
16570,-5.0422,0.5231,10.3837,1472,2877.28
16574,0.1484,3.0035,9.2153,1516,2877.01
16579,2.8575,3.4919,10.8134,1484,2877.01
16584,-1.3803,0.0084,12.4917,1476,2877.01
16590,-4.8159,-0.1137,11.0768,1484,2877.01
16594,-0.8631,2.7988,9.0273,1531,2877.15
16600,2.5295,3.8966,10.5692,1481,2877.15
16604,-1.0858,0.571,12.2643,1485,2877.15
16610,-4.2509,-0.8009,11.6119,1485,2877.15
16614,-2.0411,2.46,8.8226,1541,2877.28
16620,2.1703,3.8894,10.4232,1490,2877.28
16624,-0.2586,1.0894,11.9495,1481,2877.28
16630,-3.371,-1.3288,12.1554,1484,2877.28
16634,-3.2322,2.0913,8.9399,1544,2877.42
16640,1.7633,3.6236,10.2065,1481,2877.42
16644,1.1983,1.6293,11.6526,1485,2877.42
16649,-2.6336,-1.6161,12.402,1479,2877.42
16655,-4.3144,1.743,9.3134,1483,2877.42
16660,1.4042,3.4249,10.0149,1511,2877.28
16664,2.3643,2.3415,11.4012,1486,2877.28
16669,-1.9573,-1.1744,12.5755,1479,2877.28
16675,-4.9069,1.2929,9.8665,1491,2877.28
16680,0.8284,3.2669,9.596,1512,2877.56
16684,2.9844,3.0634,11.0468,1481,2877.56
16689,-1.4174,-0.6021,12.5983,1477,2877.56
16695,-4.9728,0.5375,10.5058,1483,2877.56
16700,0.0539,2.9844,9.2225,1515,2877.28
16704,2.891,3.5279,10.7404,1481,2877.28
16709,-1.2055,0.0742,12.4187,1479,2877.28
16715,-4.7477,-0.2562,11.1235,1493,2877.28
16720,-0.9313,2.7521,8.916,1547,2876.87
16725,2.4888,3.7876,10.5357,1484,2876.87
16730,-1.0786,0.662,12.2727,1484,2876.87
16735,-4.1587,-0.9301,11.7412,1480,2876.87
16740,-2.1464,2.4876,8.8262,1531,2877.01
16745,2.0135,3.8307,10.3705,1483,2877.01
16750,-0.1185,1.2007,11.9698,1479,2877.01
16755,-3.4058,-1.3276,12.1985,1491,2877.01
16760,-3.3662,2.162,8.9639,1543,2876.87
16765,1.7897,3.7218,10.2017,1477,2876.87
16770,1.3204,1.7418,11.7519,1492,2876.87
16774,-2.4948,-1.4904,12.4379,1479,2876.87
16780,-4.3215,1.6269,9.3075,1481,2876.87
16784,1.3886,3.4105,9.8545,1507,2876.73
16789,2.5343,2.4349,11.3856,1485,2876.73
16794,-1.8052,-1.1899,12.5887,1479,2876.73
16800,-4.9632,1.0977,9.9144,1485,2876.73
16804,0.7781,3.1627,9.5193,1507,2877.01
16809,2.9341,3.1161,11.072,1481,2877.01
16814,-1.4353,-0.51,12.4989,1471,2877.01
16820,-5.0769,0.4298,10.4543,1481,2877.01
16824,-0.018,2.9652,9.1961,1517,2877.01
16830,2.8228,3.6117,10.7129,1493,2877.01
16834,-1.342,0.2286,12.4714,1480,2877.01
16840,-4.6962,-0.2514,11.303,1492,2877.01
16844,-1.0774,2.7581,8.8609,1545,2877.28
16850,2.478,3.8463,10.4663,1483,2877.28
16854,-0.9445,0.7769,12.1422,1485,2877.28
16860,-4.0785,-0.9385,11.7292,1485,2877.28
16864,-2.2924,2.3343,8.7448,1545,2877.56
16870,2.0877,3.7685,10.3992,1482,2877.56
16874,0.0371,1.2641,12.0309,1477,2877.56
16879,-3.3148,-1.4377,12.1733,1491,2877.56
16885,-3.4955,2.0399,8.8657,1516,2877.84
16890,1.7382,3.6152,10.1095,1479,2877.84
16894,1.391,1.8675,11.722,1492,2877.84
16899,-2.4361,-1.4928,12.4989,1481,2877.84
16905,-4.4353,1.6209,9.4116,1482,2877.84
16910,1.2139,3.3914,9.8462,1503,2877.84
16914,2.5726,2.5798,11.467,1485,2877.84
16919,-1.7717,-1.1013,12.5372,1479,2877.84
16925,-4.9285,1.0403,9.9288,1483,2877.84
16930,0.7554,3.213,9.432,1511,2878.11
16934,3.0203,3.1819,11.0217,1485,2878.11
16939,-1.3408,-0.4106,12.5588,1479,2878.11
16945,-4.974,0.3567,10.5908,1483,2878.11
16950,-0.0718,2.9006,9.0082,1517,2878.11
16955,2.7785,3.62,10.7643,1485,2878.11
16960,-1.2989,0.1987,12.3744,1479,2878.11
16965,-4.6316,-0.4429,11.1965,1485,2878.11
16970,-1.1779,2.6468,8.8502,1546,2878.11
16975,2.3547,3.8475,10.5584,1481,2878.11
16980,-0.929,0.7721,12.2308,1481,2878.11
16985,-4.0941,-1.057,11.8298,1483,2878.11
16990,-2.4193,2.4361,8.7388,1543,2877.97
16995,2.0758,3.8678,10.3645,1484,2877.97
17000,0.0886,1.2965,11.9818,1481,2877.97
17004,-3.2046,-1.4174,12.2571,1493,2877.97
17010,-3.5578,2.0087,8.9675,1524,2877.15
17014,1.7573,3.6488,10.1263,1479,2877.15
17019,1.5874,1.8591,11.643,1491,2877.15
17024,-2.3487,-1.5083,12.4798,1481,2877.15
17030,-4.5107,1.5239,9.3541,1485,2877.15
17034,1.2833,3.3686,9.815,1499,2878.53
17039,2.66,2.5474,11.3725,1483,2878.53
17044,-1.7394,-1.1205,12.5708,1477,2878.53
17050,-5.0482,0.9625,9.9335,1480,2878.53
17054,0.6859,3.1639,9.487,1508,2878.39
17059,2.9963,3.2022,11.0648,1491,2878.39
17064,-1.4377,-0.4178,12.5588,1481,2878.39
17070,-4.9931,0.3675,10.6195,1483,2878.39
17074,-0.1628,2.9401,9.0633,1513,2878.39
17080,2.7928,3.6859,10.7188,1485,2878.39
17084,-1.2414,0.3017,12.4618,1479,2878.39
17090,-4.6519,-0.316,11.2958,1485,2878.39
17094,-1.1983,2.6169,8.7759,1543,2878.66
17100,2.4301,3.8511,10.4698,1482,2878.66
17104,-0.923,0.808,-0.3089,1481,2878.66
17110,-4.0007,-1.0511,11.7974,1477,2878.66
17114,-2.4373,2.3523,8.7305,1547,2878.66
17120,2.0099,3.8056,10.2735,1485,2878.66
17124,0.1844,1.3228,11.9902,1480,2878.66
17129,-3.2358,-1.4964,12.22,1494,2878.66
17135,-3.6212,2.0183,8.9531,1547,2878.53
17140,1.7142,3.5949,10.1275,1477,2878.53
17144,1.6245,1.919,11.7184,1487,2878.53
17149,-2.4026,-1.4509,12.4355,1483,2878.53
17155,-4.531,1.5993,9.4367,1507,2878.53
17160,1.2737,3.3818,9.8043,1497,2878.39
17164,2.6504,2.6228,11.412,1484,2878.39
17169,-1.7214,-1.0678,12.4894,1481,2878.39
17175,-4.9979,0.9637,10.0126,1481,2878.39
17180,0.7159,3.1244,9.4379,1508,2878.94
17184,3.0095,3.2705,11.0373,1491,2878.94
17189,-1.421,-0.3974,12.5229,1479,2878.94
17195,-4.9835,0.2298,10.6027,1481,2878.94
17200,-0.2179,2.9066,9.0549,1514,2878.8
17205,2.6815,3.65,10.7727,1485,2878.8
17210,-1.3443,0.3029,12.3984,1477,2878.8
17215,-4.6017,-0.4609,11.3174,1483,2878.8
17220,-1.3384,2.6492,8.7771,1544,2879.08
17225,2.3439,3.8535,10.4818,1482,2879.08
17230,-0.8475,0.8523,12.2128,1479,2879.08
17235,-4.0175,-1.0463,11.8681,1481,2879.08
17240,-2.4325,2.3499,8.7939,1516,2878.66
17245,2.0674,3.8607,10.3681,1485,2878.66
17250,0.2358,1.3348,11.8716,1482,2878.66
17254,-3.2178,-1.4473,12.238,1491,2878.66
17260,-3.717,1.9908,8.9555,1529,2879.35
17264,1.7657,3.6081,10.1035,1479,2879.35
17269,1.67,1.9297,11.6681,1487,2879.35
17274,-2.4205,-1.4748,12.5205,1479,2879.35
17280,-4.5633,1.5574,9.3757,1496,2879.35
17284,1.2869,3.3555,9.7803,1503,2878.94
17289,2.6635,2.6097,11.3234,1481,2878.94
17294,-1.8016,-1.0666,12.639,1482,2878.94
17300,-5.0182,0.9948,10.0473,1483,2878.94
17304,0.6596,3.146,9.4571,1508,2878.8
17309,2.958,3.2585,11.0864,1491,2878.8
17314,-1.421,-0.3819,12.5839,1481,2878.8
17320,-4.9716,0.3244,10.6829,1483,2878.8
17324,-0.182,2.9305,9.0489,1513,2878.8
17330,2.7485,3.6943,10.6973,1483,2878.8
17334,-1.2845,0.2717,12.4786,1481,2878.8
17340,-4.634,-0.4477,11.3377,1481,2878.8
17344,-1.2222,2.6564,8.7592,1531,2878.66
17350,2.3978,3.8642,10.5273,1483,2878.66
17354,-0.9122,0.814,12.2188,1478,2878.66
17360,-3.9528,-1.0738,11.8333,1471,2878.66
17364,-2.478,2.3403,8.7843,1547,2878.39
17370,1.9884,3.8008,10.3573,1491,2878.39
17374,0.2131,1.324,11.9758,1481,2878.39
17379,-3.14,-1.4772,12.2176,1487,2878.39
17385,-3.6907,1.9968,8.9926,1545,2878.25
17390,1.6305,3.6176,10.0987,1477,2878.25
17394,1.7286,1.9692,11.7424,1484,2878.25
17399,-2.3367,-1.4222,12.4534,1480,2878.25
17405,-4.5705,1.5562,9.3937,1499,2878.25
17410,1.245,3.3686,9.7971,1511,2878.11
17414,2.6827,2.654,11.333,1481,2878.11
17419,-1.658,-1.0092,12.5217,1489,2878.11
17425,-5.0338,0.9337,10.0126,1481,2878.11
17430,0.6345,3.1568,9.4068,1510,2877.97
17434,2.964,3.2465,11.0241,1491,2877.97
17439,-1.4078,-0.3555,12.5229,1478,2877.97
17445,-4.974,0.2203,10.7236,1481,2877.97
17450,-0.2741,2.885,9.0297,1513,2878.11
17455,2.6695,3.6595,10.7176,1486,2878.11
17460,-1.2462,0.2945,12.3828,1481,2878.11
17465,-4.6687,-0.492,11.3198,1479,2878.11
17470,-1.3467,2.6264,8.7987,1543,2878.11
17475,2.3631,3.8487,10.5165,1483,2878.11
17480,-0.8464,0.8595,12.202,1481,2878.11
17485,-3.9636,-1.063,11.9112,1483,2878.11
17490,-2.5582,2.3391,8.7939,1513,2878.25
17495,2.0363,3.7936,10.2975,1482,2878.25
17500,0.2897,1.3408,11.8609,1483,2878.25
17504,-3.0909,-1.4545,12.2212,1487,2878.25
17510,-3.7673,1.9201,9.0058,1545,2878.39
17514,1.6855,3.5841,10.0509,1479,2878.39
17519,1.7933,1.9537,11.6418,1480,2878.39
17524,-2.3032,-1.4808,12.4965,1479,2878.39
17530,-4.6364,1.5024,9.4631,1496,2878.39
17534,1.2546,3.2836,9.7779,1507,2878.11
17539,2.715,2.6683,11.3449,1481,2878.11
17544,-1.749,-1.0104,12.6019,1483,2878.11
17550,-5.0087,0.9242,10.1095,1481,2878.11
17554,0.5495,3.1232,9.4152,1511,2877.97
17559,2.9437,3.3052,10.981,1484,2877.97
17564,-1.4018,-0.2861,12.5767,1479,2877.97
17570,-4.962,0.2622,10.6853,1480,2877.97
17574,-0.2729,2.8994,9.0154,1496,2877.84
17580,2.7509,3.7002,10.7153,1483,2877.84
17584,-1.2175,0.3472,12.372,1485,2877.84
17590,-4.5849,-0.5567,11.3557,1481,2877.84
17594,-1.3994,2.6659,8.7927,1533,2877.97
17600,2.296,3.8762,10.5596,1490,2877.97
17604,-0.7518,0.8847,12.1242,1481,2877.97
17610,-3.875,-1.16,11.8573,1479,2877.97
17614,-2.6516,2.3248,8.8298,1543,2877.97
17620,1.9884,3.7409,10.2987,1485,2877.97
17624,0.4262,1.3551,11.9614,1481,2877.97
17629,-3.1029,-1.4497,12.293,1481,2877.97
17635,-3.8211,2.0123,9.0764,1515,2877.42
17640,1.6831,3.5961,10.1083,1483,2877.42
17644,1.8387,2.0375,11.6418,1485,2877.42
17649,-2.2589,-1.4186,12.5073,1479,2877.42
17655,-4.6424,1.4916,9.517,1493,2877.42
17660,1.1947,3.3662,9.7169,1512,2876.32
17664,2.7689,2.6995,11.2839,1481,2876.32
17669,-1.6245,-0.9517,12.5803,1481,2876.32
17675,-4.9548,0.8643,10.1311,1479,2876.32
17680,0.4369,3.0622,9.3625,1517,2875.9
17684,2.9137,3.3004,10.9068,1483,2875.9
17689,-1.3252,-0.2574,12.5181,1472,2875.9
17695,-4.9524,0.1209,10.8266,1484,2875.9
17700,-0.4154,2.8108,9.0644,1543,2875.35
17705,2.6444,3.7505,10.7452,1480,2875.35
17710,-1.3431,0.4633,12.3481,1486,2875.35
17715,-4.4592,-0.5674,11.4467,1481,2875.35
17720,-1.5706,2.569,8.7807,1542,2875.22
17725,2.2889,3.8942,10.4627,1486,2875.22
17730,-0.7123,0.9565,12.0752,1481,2875.22
17735,-3.6559,-1.1456,11.971,1485,2875.22
17740,-2.8599,2.2541,8.8406,1547,2874.94
17745,1.8998,3.7649,10.2855,1482,2874.94
17750,0.6859,1.5036,11.7974,1489,2874.94
17754,-2.8886,-1.5634,12.2679,1477,2874.94
17760,-3.9253,1.8543,9.0932,1483,2874.94
17764,1.6029,3.4907,10.0928,1511,2874.8
17769,2.0399,2.156,11.5389,1486,2874.8
17774,-2.2039,-1.3599,12.5636,1479,2874.8
17780,-4.78,1.3599,9.6678,1493,2874.8
17784,1.081,3.2573,9.7121,1514,2875.22
17789,2.7485,2.8635,11.2216,1479,2875.22
17794,-1.6101,-0.7494,12.5061,1469,2875.22
17800,-4.9285,0.7446,10.3609,1483,2875.22
17804,0.3089,3.0694,9.3553,1516,2875.22
17809,2.8335,3.4536,10.8804,1483,2875.22
17814,-1.391,-0.0575,12.469,1471,2875.22
17820,-4.8052,-0.0479,10.9235,1492,2875.22
17824,-0.6285,2.8108,8.9328,1544,2875.08
17830,2.5498,3.7445,10.5752,1481,2875.08
17834,-1.1959,0.5411,12.22,1483,2875.08
17840,-4.3359,-0.7793,11.5867,1481,2875.08
17844,-1.8627,2.5079,8.8478,1544,2875.22
17850,2.1428,3.8199,10.4483,1481,2875.22
17854,-0.4513,1.0199,12.074,1479,2875.22
17860,-3.5255,-1.2594,12.0871,1491,2875.22
17864,-3.1065,2.2015,8.8406,1510,2874.66
17870,1.8124,3.7314,10.1945,1480,2874.66
17874,1.0163,1.646,11.8274,1494,2874.66
17879,-2.7557,-1.5131,12.457,1481,2874.66
17885,-4.1958,1.8088,9.2177,1481,2874.66
17890,1.5311,3.5111,9.9407,1504,2875.49
17894,2.9413,3.0203,11.0911,1481,2875.49
17899,-1.4688,-0.559,12.5145,1477,2875.49
17905,-5.0111,0.419,10.4543,1479,2875.49
17910,0.006,2.9485,9.1411,1508,2875.22
17914,2.7809,3.5674,10.8134,1485,2875.22
17919,-1.3635,0.1401,12.4558,1481,2875.22
17925,-4.6819,-0.2801,11.1869,1481,2875.22
17930,-1.0666,2.7258,8.8885,1516,2875.9
17935,2.4205,3.8523,10.5608,1487,2875.9
17940,-0.9912,0.7638,12.1853,1469,2875.9
17945,-4.0977,-0.9146,11.7495,1485,2875.9
17950,-2.2541,2.4157,8.8514,1543,2876.04
17955,2.1261,3.8642,10.422,1483,2876.04
17960,-0.0048,1.2294,11.9076,1481,2876.04
17965,-3.231,-1.4234,12.1889,1483,2876.04
17970,-3.4213,2.0135,8.9471,1546,2876.32
17975,1.7514,3.614,10.1778,1487,2876.32
17980,1.4688,1.8172,11.6083,1481,2876.32
17984,-2.496,-1.5419,12.4295,1493,2876.32
17990,-4.4712,1.6077,9.4044,1550,2876.46
17994,1.3108,3.3878,9.8749,1483,2876.46
17999,2.5391,2.5618,11.3749,1492,2876.46
18004,-1.8411,-1.1169,12.5851,1479,2876.46
18010,-4.9464,1.0846,10.0042,1493,2876.46
18014,0.729,3.1855,9.4786,1499,2876.46
18019,2.9185,3.1819,10.987,1481,2876.46
18024,-1.4509,-0.3867,12.56,1489,2876.46
18030,-4.9907,0.3831,10.6722,1480,2876.46
18034,-0.1077,2.9724,9.1123,1508,2876.59
18040,2.7725,3.6691,10.6769,1491,2876.59
18044,-1.2582,0.2526,12.3888,1482,2876.59
18050,-4.6184,-0.4393,11.1881,1483,2876.59
18054,-1.2306,2.6336,8.8418,1511,2876.73
18060,2.3786,3.7553,10.5058,1489,2876.73
18064,-0.899,0.7661,12.2439,1485,2876.73
18070,-3.9552,-1.0762,11.8501,1481,2876.73
18074,-2.4217,2.3667,8.8298,1543,2876.73
18080,2.0063,3.8068,10.2568,1480,2876.73
18084,0.231,1.336,11.959,1471,2876.73
18089,-3.1232,-1.4497,12.2032,1480,2876.73
18095,-3.6727,2.0303,9.0309,1533,2876.04
18100,1.6664,3.6464,10.1035,1483,2876.04
18104,1.7011,1.9369,11.7543,1481,2876.04
18109,-2.3499,-1.4377,12.5037,1485,2876.04
18115,-4.5705,1.5431,9.3805,1510,2877.28
18120,1.3659,3.3662,9.7743,1481,2877.28
18124,2.715,2.624,11.3521,1483,2877.28
18129,-1.6795,-1.0104,12.572,1480,2877.28
18135,-4.9261,0.9218,10.1047,1497,2877.28
18140,0.5471,3.0754,9.3817,1503,2877.01
18144,2.9006,3.2166,10.9918,1483,2877.01
18149,-1.3659,-0.3639,12.469,1485,2877.01
18155,-5.053,0.2562,10.7081,1483,2877.01
18160,-0.2394,2.9233,9.0453,1511,2877.15
18165,2.7234,3.7481,10.7164,1483,2877.15
18170,-1.3276,0.3472,12.3948,1480,2877.15
18175,-4.6017,-0.4681,11.3784,1483,2877.15
18180,-1.2929,2.6671,8.849,1500,2877.01
18185,2.3798,3.9085,10.4363,1495,2877.01
18190,-0.7685,0.8571,12.0716,1482,2877.01
18195,-3.8714,-1.1133,11.8561,1471,2877.01
18200,-2.5821,2.2913,8.8011,1516,2876.87
18205,2.0279,3.7362,10.343,1485,2876.87
18210,0.4417,1.3563,11.8609,1471,2876.87
18214,-3.0323,-1.506,12.2068,1480,2876.87
18220,-3.7481,1.9321,9.0321,1541,2876.87
18224,1.6293,3.486,10.0748,1482,2876.87
18229,1.8016,1.992,11.5951,1483,2876.87
18234,-2.229,-1.4617,12.5193,1480,2876.87
18240,-4.6052,1.5095,9.5469,1499,2877.01
18244,1.1277,3.3698,9.7396,1481,2877.01
18249,2.7162,2.7665,11.3365,1481,2877.01
18254,-1.6759,-0.8715,12.6007,1467,2877.01
18260,-5.0099,0.9266,10.1203,1493,2877.01
18264,0.5626,3.0861,9.3565,1507,2877.28
18269,2.9748,3.2884,10.9283,1483,2877.28
18274,-1.3827,-0.2119,12.5277,1477,2877.28
18280,-4.9356,0.0994,10.8194,1481,2877.28
18284,-0.3531,2.8742,8.9807,1513,2877.42
18290,2.6659,3.7206,10.6841,1481,2877.42
18294,-1.2067,0.4106,12.3577,1479,2877.42
18300,-4.4975,-0.6596,11.3581,1481,2877.42
18304,-1.5275,2.5498,8.7975,1498,2877.15
18310,2.296,3.8642,10.4531,1477,2877.15
18314,-0.7278,0.9026,12.1937,1485,2877.15
18320,-3.808,-1.1684,11.9255,1479,2877.15
18324,-2.7198,2.3355,8.8382,1533,2877.84
18330,1.9549,3.814,10.258,1483,2877.84
18334,0.5399,1.4844,11.9171,1478,2877.84
18339,-3.0011,-1.5083,12.3026,1483,2877.84
18345,-3.9265,1.9273,9.0836,1547,2877.28
18350,1.6759,3.5853,10.0509,1481,2877.28
18354,1.9692,2.053,11.5724,1491,2877.28
18359,-2.2015,-1.4269,12.4822,1478,2877.28
18365,-4.6962,1.4018,9.5876,1483,2877.28
18370,1.1684,3.2848,9.7121,1509,2877.01
18374,2.8264,2.7521,11.2707,1485,2877.01
18379,-1.6412,-0.9026,12.566,1471,2877.01
18385,-5.041,0.8045,10.2292,1491,2877.01
18390,0.4441,3.0466,9.3518,1511,2876.87
18394,2.8838,3.389,10.963,1480,2876.87
18399,-1.4437,-0.2107,12.4678,1479,2876.87
18405,-4.9165,0.1053,10.8697,1481,2876.87
18410,-0.5004,2.8575,8.9854,1516,2877.01
18415,2.6312,3.7924,10.6255,1483,2877.01
18420,-1.2175,0.486,12.3313,1481,2877.01
18425,-4.4784,-0.6237,11.4778,1483,2877.01
18430,-1.6029,2.5438,8.7508,1531,2877.28
18435,2.3308,3.893,10.4339,1483,2877.28
18440,-0.6213,0.9697,12.0991,1485,2877.28
18445,-3.6823,-1.2294,11.892,1481,2877.28
18450,-2.8431,2.2446,8.8274,1534,2877.7
18455,1.8986,3.7445,10.2915,1487,2877.7
18460,0.6704,1.4916,11.8333,1480,2877.7
18464,-2.9365,-1.5443,12.3134,1485,2877.7
18470,-4.0139,1.8316,9.1135,1543,2877.7
18474,1.5646,3.486,10.0425,1480,2877.7
18479,2.0423,2.1691,11.6023,1487,2877.7
18484,-2.1644,-1.3515,12.5277,1477,2877.7
18490,-4.6974,1.415,9.6534,1481,2877.7
18494,1.0582,3.3387,9.6474,1503,2877.84
18499,2.8287,2.8623,11.2611,1484,2877.84
18504,-1.5299,-0.7697,12.6007,1477,2877.84
18510,-4.9967,0.7506,10.173,1487,2877.84
18514,0.4106,3.0574,9.2847,1511,2877.7
18519,2.9664,3.395,10.8948,1483,2877.7
18524,-1.3372,-0.1341,12.4906,1469,2877.7
18530,-4.9057,-0.0299,10.884,1472,2877.7
18534,-0.5483,2.8012,8.9699,1515,2877.7
18540,2.5857,3.7218,10.635,1481,2877.7
18544,-1.1851,0.4848,12.2535,1469,2877.7
18550,-4.4077,-0.7278,11.485,1485,2877.7
18554,-1.7406,2.5654,8.7568,1517,2878.11
18560,2.1979,3.8834,10.4818,1481,2878.11
18564,-0.492,1.0343,12.1326,1484,2878.11
18570,-3.6883,-1.233,12.0859,1479,2878.11
18574,-2.9568,2.2769,8.8633,1543,2878.39
18580,1.9764,3.7529,10.2424,1481,2878.39
18584,0.844,1.5335,11.8082,1481,2878.39
18589,-2.8228,-1.5203,12.3481,1495,2878.39
18595,-4.045,1.8352,9.1255,1543,2877.97
18600,1.5742,3.4716,9.9719,1481,2877.97
18604,2.1632,2.1608,11.5281,1492,2877.97
18609,-2.0889,-1.3467,12.4977,1478,2877.97
18615,-4.78,1.2929,9.6606,1481,2877.97
18620,1.0678,3.2741,9.6307,1501,2877.28
18624,2.8491,2.8718,11.2204,1483,2877.28
18629,-1.6065,-0.8164,12.5851,1479,2877.28
18635,-5.0338,0.729,10.3346,1479,2877.28
18640,0.3208,3.055,9.2404,1507,2877.15
18644,2.8814,3.5338,10.8661,1480,2877.15
18649,-1.4018,-0.0658,12.4929,1477,2877.15
18655,-4.8076,0.0072,10.975,1480,2877.15
18660,-0.6309,2.8228,8.9232,1515,2876.87
18665,2.6109,3.7816,10.6398,1485,2876.87
18670,-1.2079,0.5351,12.2954,1477,2876.87
18675,-4.2748,-0.7219,11.5891,1485,2876.87
18680,-1.8076,2.5151,8.7712,1543,2877.01
18685,2.1787,3.8164,10.3968,1477,2877.01
18690,-0.4214,1.0307,12.0021,1481,2877.01
18695,-3.5793,-1.3144,12.0225,1479,2877.01
18700,-3.0706,2.1739,8.8669,1533,2877.28
18705,1.8555,3.6823,10.234,1480,2877.28
18710,0.8811,1.585,11.8465,1481,2877.28
18714,-2.7713,-1.5131,12.3696,1490,2877.28
18720,-4.148,1.8208,9.1913,1533,2877.42
18724,1.4736,3.5207,9.9539,1479,2877.42
18729,2.2482,2.3176,11.5365,1491,2877.42
18734,-2.0123,-1.2366,12.5528,1481,2877.42
18740,-4.8279,1.2905,9.7456,1483,2877.42
18744,0.9972,3.304,9.645,1501,2877.42
18749,2.9389,2.9449,11.1666,1479,2877.42
18754,-1.4724,-0.7039,12.5205,1483,2877.42
18760,-4.9943,0.5626,10.3322,1481,2877.42
18764,0.2538,3.0263,9.1877,1508,2877.7
18769,2.885,3.4764,10.7943,1481,2877.7
18774,-1.421,-0.0084,12.4774,1480,2877.7
18780,-4.7872,-0.1796,11.0864,1477,2877.7
18784,-0.7925,2.7725,8.9423,1515,2877.84
18790,2.4648,3.7972,10.5333,1485,2877.84
18794,-1.1803,0.5866,12.2811,1479,2877.84
18800,-4.288,-0.7937,11.625,1482,2877.84
18804,-1.9417,2.5031,8.7879,1545,2877.56
18810,2.1895,3.8666,10.4423,1481,2877.56
18814,-0.3484,1.0965,12.0345,1478,2877.56
18820,-3.4357,-1.2845,12.1578,1471,2877.56
18824,-3.1735,2.1799,8.8969,1530,2877.7
18830,1.8411,3.7074,10.1418,1482,2877.7
18834,1.0942,1.6245,11.7567,1481,2877.7
18839,-2.709,-1.5897,12.3936,1489,2877.7
18845,-4.2377,1.7478,9.2117,1547,2877.56
18850,1.4892,3.4716,9.9276,1480,2877.56
18854,2.2889,2.3343,11.5293,1486,2877.56
18859,-1.9704,-1.2462,12.5803,1479,2877.56
18865,-4.8459,1.2438,9.7648,1491,2877.56
18870,0.8715,3.1819,9.6031,1497,2877.42
18874,2.8503,2.9808,11.2061,1483,2877.42
18879,-1.5335,-0.6249,12.5348,1483,2877.42
18885,-4.9967,0.6021,10.422,1477,2877.42
18890,0.158,3.0466,9.2129,1507,2877.28
18894,2.8766,3.5506,10.805,1492,2877.28
18899,-1.3551,0.0754,12.4199,1482,2877.28
18905,-4.6651,-0.164,11.0983,1482,2877.28
18910,-0.8763,2.721,8.849,1512,2876.87
18915,2.5079,3.784,10.5189,1483,2876.87
18920,-1.0977,0.6237,12.2559,1479,2876.87
18925,-4.1563,-0.8966,11.6681,1479,2876.87
18930,-2.0638,2.4433,8.7496,1533,2876.87
18935,2.0698,3.8116,10.3872,1481,2876.87
18940,-0.1508,1.1241,11.9961,1481,2876.87
18945,-3.462,-1.415,12.1374,1480,2876.87
18950,-3.2896,2.1596,8.934,1545,2876.73
18955,1.7897,3.6919,10.1993,1490,2876.73
18960,1.257,1.7286,11.7723,1480,2876.73
18964,-2.6205,-1.4892,12.4199,1485,2876.73
18970,-4.3036,1.7454,9.3254,1529,2877.15
18974,1.4485,3.4536,9.839,1479,2877.15
18979,2.484,2.3882,11.412,1485,2877.15
18984,-1.816,-1.1899,12.5696,1485,2877.15
18990,-4.865,1.1073,9.8737,1495,2877.15
18994,0.8236,3.1795,9.481,1507,2877.01
18999,2.9437,3.0394,11.1294,1481,2877.01
19004,-1.4485,-0.6033,12.5313,1485,2877.01
19010,-4.9883,0.4322,10.5082,1479,2877.01
19014,-0.0084,3.0035,9.1267,1510,2877.01
19020,2.8072,3.5913,10.7847,1491,2877.01
19024,-1.3515,0.1652,12.4008,1480,2877.01
19030,-4.7692,-0.2442,11.1642,1482,2877.01
19035,-0.9972,2.7569,8.8466,1515,2877.28
19040,2.4612,3.8211,10.5608,1483,2877.28
19044,-1.0882,0.7386,12.226,1481,2877.28
19050,-4.0893,-0.9146,11.7795,1477,2877.28
19055,-2.1955,2.3978,8.7783,1533,2877.28
19060,2.1045,3.8595,10.3753,1484,2877.28
19064,-0.0479,1.2629,11.9961,1480,2877.28
19070,-3.3016,-1.4186,12.1865,1479,2877.28
19075,-3.3842,2.0602,8.9028,1509,2877.15
19080,1.7621,3.6188,10.1861,1485,2877.15
19085,1.3539,1.7609,11.728,1483,2877.15
19089,-2.5055,-1.5263,12.4295,1483,2877.15
19095,-4.391,1.6113,9.2715,1545,2877.56
19100,1.33,3.4141,9.8521,1481,2877.56
19104,2.5271,2.5055,11.4802,1477,2877.56
19109,-1.8459,-1.1552,12.5432,1479,2877.56
19115,-4.9692,1.0834,9.9347,1495,2877.56
19120,0.7937,3.1711,9.5098,1504,2877.56
19124,2.9963,3.1256,11.0576,1479,2877.56
19129,-1.4641,-0.4609,12.5336,1483,2877.56
19135,-4.9835,0.3998,10.5979,1481,2877.56
19140,-0.0036,2.9736,9.1578,1510,2877.42
19145,2.7845,3.6093,10.7308,1484,2877.42
19150,-1.3479,0.1975,12.4259,1479,2877.42
19155,-4.6017,-0.3855,11.2132,1482,2877.42
19160,-1.1516,2.6971,8.8083,1531,2877.56
19165,2.4445,3.7936,10.5034,1482,2877.56
19170,-0.9828,0.729,12.232,1483,2877.56
19175,-4.0294,-1.0499,11.8321,1478,2877.56
19180,-2.3535,2.4205,8.8107,1533,2877.42
19185,2.0087,3.7625,10.3561,1499,2877.42
19190,0.0826,1.2773,11.9878,1480,2877.42
19194,-3.237,-1.4425,12.2009,1481,2877.42
19200,-3.5841,2.053,8.9543,1515,2877.84
19205,1.7047,3.6547,10.1119,1481,2877.84
19209,1.5395,1.8699,11.716,1489,2877.84
19214,-2.3798,-1.4641,12.4894,1478,2877.84
19220,-4.4424,1.6173,9.3386,1515,2877.97
19224,1.3036,3.3926,9.7612,1485,2877.97
19230,2.6037,2.5798,11.4096,1487,2877.97
19234,-1.7334,-1.1145,12.5564,1479,2877.97
19240,-4.9704,1.0116,9.9431,1495,2877.97
19245,0.6656,3.146,9.4344,1509,2878.25
19249,2.9413,3.1735,11.0899,1480,2878.25
19254,-1.4712,-0.4465,12.5313,1480,2878.25
19260,-4.9847,0.3029,10.5872,1481,2878.25
19265,-0.1963,2.9054,9.1159,1513,2877.97
19270,2.739,3.6093,10.7356,1485,2877.97
19275,-1.3599,0.2203,12.4115,1472,2877.97
19280,-4.61,-0.3771,11.3294,1484,2877.97
19285,-1.2426,2.6947,8.8526,1543,2877.97
19290,2.3715,3.8547,10.5441,1479,2877.97
19295,-0.9337,0.7793,12.1613,1486,2877.97
19300,-3.972,-1.0056,11.7795,1482,2877.97
19305,-2.4313,2.3487,8.7795,1533,2878.11
19310,2.0949,3.802,10.3166,1487,2878.11
19315,0.182,1.2785,11.9387,1481,2878.11
19319,-3.1771,-1.4832,12.2691,1483,2878.11
19325,-3.5841,1.9704,9.0034,1532,2877.97
19330,1.6891,3.5817,10.1251,1479,2877.97
19334,1.5981,1.9178,11.7064,1487,2877.97
19339,-2.411,-1.4497,12.4798,1479,2877.97
19345,-4.5167,1.5742,9.4631,1483,2877.97
19350,1.2809,3.3459,9.8485,1507,2878.94
19354,2.6516,2.5786,11.3713,1481,2878.94
19359,-1.7837,-1.0738,12.6366,1477,2878.94
19365,-4.9775,0.9828,10.0425,1493,2878.94
19370,0.6812,3.1759,9.3829,1513,2879.08
19374,2.9485,3.2394,11.0014,1479,2879.08
19380,-1.4569,-0.3723,12.5971,1476,2879.08
19385,-4.9033,0.2885,10.72,1482,2879.08
19390,-0.1867,2.9544,9.0214,1517,2878.8
19395,2.7485,3.6392,10.726,1481,2878.8
19400,-1.3264,0.2358,12.378,1471,2878.8
19405,-4.6029,-0.5447,11.2719,1484,2878.8
19410,-1.245,2.6492,8.7843,1508,2878.11
19415,2.3236,3.8427,10.5309,1481,2878.11
19420,-0.8583,0.808,12.214,1483,2878.11
19425,-4.051,-1.1169,11.8286,1481,2878.11
19430,-2.4505,2.4002,8.7724,1533,2878.8
19435,2.0339,3.8343,10.3382,1487,2878.8
19440,0.1784,1.3048,11.9818,1481,2878.8
19444,-3.1173,-1.482,12.1985,1483,2878.8
19450,-3.6057,2.0339,8.995,1533,2878.25
19455,1.7142,3.6536,10.1227,1477,2878.25
19460,1.6089,1.9704,11.7124,1485,2878.25
19464,-2.3367,-1.4533,12.5061,1472,2878.25
19470,-4.5286,1.5969,9.3841,1479,2878.25
19475,1.3312,3.3531,9.8078,1509,2878.25
19479,2.6671,2.5714,11.309,1484,2878.25
19484,-1.7274,-1.0558,12.5456,1471,2878.25
19490,-4.9967,0.9278,9.991,1484,2878.25
19495,0.6141,3.1184,9.4727,1508,2878.53
19499,2.9149,3.2346,11.0349,1482,2878.53
19504,-1.3886,-0.3831,12.5516,1471,2878.53
19510,-4.9488,0.334,10.6889,1483,2878.53
19515,-0.1903,2.9018,9.1123,1514,2878.11
19520,2.733,3.6799,10.6913,1483,2878.11
19525,-1.3599,0.2789,12.4271,1471,2878.11
19530,-4.5274,-0.4046,11.333,1493,2878.11
19534,-1.3467,2.7126,8.8454,1533,2878.25
19540,2.3547,3.8607,10.5285,1481,2878.25
19544,-0.8116,0.8404,12.1673,1483,2878.25
19550,-3.9672,-1.0846,11.8609,1480,2878.25
19555,-2.5247,2.32,8.74,1545,2878.25
19560,2.0494,3.7577,10.3394,1484,2878.25
19564,0.3112,1.3108,11.9483,1479,2878.25
19570,-3.1149,-1.5012,12.2356,1490,2878.25
19575,-3.6607,1.998,9.0609,1513,2878.53
19580,1.5957,3.5698,10.1047,1481,2878.53
19584,1.6783,1.9477,11.6334,1493,2878.53
19589,-2.3619,-1.4533,12.5336,1477,2878.53
19595,-4.6088,1.5395,9.4739,1481,2878.53
19600,1.2019,3.3555,9.7731,1517,2878.53
19604,2.7114,2.6779,11.382,1485,2878.53
19609,-1.7693,-0.9673,12.5815,1478,2878.53
19615,-4.9799,0.9457,9.9946,1487,2878.53
19620,0.68,3.1687,9.3446,1511,2878.8
19624,2.9688,3.2645,10.9846,1481,2878.8
19629,-1.3551,-0.3112,12.4666,1471,2878.8
19635,-4.9835,0.1676,10.7129,1480,2878.8
19640,-0.2526,2.8683,9.019,1511,2878.8
19645,2.6815,3.6715,10.6829,1479,2878.8
19650,-1.3443,0.3472,12.3744,1477,2878.8
19655,-4.5586,-0.5734,11.3318,1491,2878.8
19660,-1.3898,2.6264,8.8035,1515,2878.8
19665,2.3188,3.8511,10.5213,1481,2878.8
19670,-0.7901,0.8679,12.2009,1483,2878.8
19675,-3.9851,-1.0953,11.8693,1479,2878.8
19680,-2.5893,2.3643,8.8406,1542,2878.53
19685,2.0423,3.8199,10.331,1480,2878.53
19690,0.2741,1.3683,11.9411,1479,2878.53
19694,-3.0754,-1.4736,12.2535,1487,2878.53
19700,-3.7098,1.9609,8.9687,1543,2878.39
19705,1.6712,3.6176,10.0844,1477,2878.39
19709,1.7837,1.9752,11.631,1493,2878.39
19714,-2.3092,-1.4832,12.5324,1485,2878.39
19720,-4.6017,1.4892,9.4332,1483,2878.39
19725,1.2474,3.3148,9.7145,1509,2878.53
19729,2.7126,2.6013,11.2635,1485,2878.53
19734,-1.6939,-1.0762,12.5229,1479,2878.53
19740,-4.9835,0.9038,10.094,1490,2878.53
19745,0.5231,3.1304,9.4475,1510,2878.11
19750,2.9736,3.2872,11.0361,1481,2878.11
19754,-1.4557,-0.3328,12.6198,1479,2878.11
19760,-4.9763,0.2143,10.7715,1480,2878.11
19765,-0.2203,2.9185,9.0178,1517,2877.7
19770,2.7174,3.7122,10.6853,1483,2877.7
19774,-1.3001,0.322,12.3912,1479,2877.7
19780,-4.5406,-0.4836,11.3964,1491,2877.7
19785,-1.3348,2.6635,8.8214,1543,2877.56
19790,2.3212,3.863,10.4639,1485,2877.56
19794,-0.814,0.8475,12.1506,1483,2877.56
19800,-3.8104,-1.1612,11.8597,1483,2877.56
19805,-2.6133,2.2829,8.74,1545,2877.56
19810,1.9285,3.7062,10.3346,1481,2877.56
19814,0.3962,1.3611,11.8764,1481,2877.56
19819,-3.049,-1.4641,12.2535,1494,2877.56
19825,-3.7852,1.9644,9.0956,1517,2877.56
19830,1.5897,3.5973,10.1023,1479,2877.56
19834,1.81,2.047,11.6693,1491,2877.56
19839,-2.2877,-1.4437,12.5121,1483,2877.56
19845,-4.6436,1.5323,9.505,1485,2877.56
19850,1.2294,3.3591,9.7827,1501,2877.28
19854,2.7593,2.7126,11.3665,1481,2877.28
19860,-1.6364,-0.8966,12.5528,1479,2877.28
19865,-4.938,0.8727,10.1323,1481,2877.28
19870,0.4836,3.1208,9.3111,1511,2877.56
19874,2.964,3.2992,10.9379,1477,2877.56
19879,-1.3144,-0.2586,12.5313,1483,2877.56
19885,-4.9835,0.1113,10.7835,1481,2877.56
19890,-0.3962,2.8347,9.0154,1516,2877.7
19895,2.6516,3.644,10.6542,1483,2877.7
19900,-1.2941,0.3771,12.3385,1477,2877.7
19905,-4.5334,-0.5794,11.4287,1485,2877.7
19910,-1.5634,2.6001,8.825,1545,2877.7
19915,2.2362,3.863,10.4543,1483,2877.7
19920,-0.6764,0.9409,12.1578,1482,2877.7
19925,-3.8654,-1.148,11.9758,1481,2877.7
19930,-2.7713,2.3008,8.8478,1541,2877.42
19935,2.0482,3.808,10.3011,1483,2877.42
19940,0.5279,1.4521,11.8836,1483,2877.42
19944,-2.9784,-1.4928,12.3337,1493,2877.42
19950,-3.8834,1.9465,9.0704,1519,2877.28
19955,1.6496,3.4967,9.9886,1471,2877.28
19959,1.9369,2.0913,11.6227,1491,2877.28
19964,-2.1656,-1.4437,12.5193,1480,2877.28
19970,-4.6723,1.3515,9.5756,1491,2877.28
19975,1.0989,3.2729,9.7588,1501,2877.42
19979,2.7773,2.7904,11.3054,1480,2877.42
19984,-1.6879,-0.8739,12.5564,1477,2877.42
19990,-5.0589,0.8583,10.2376,1479,2877.42
19995,0.4824,3.1208,9.3697,1511,2877.56
19999,2.9185,3.4165,10.9463,1491,2877.56
20004,-1.4988,-0.1317,12.5241,1482,2877.56
20010,-4.8411,0.1293,10.8697,1480,2877.56
20015,-0.4824,2.8335,8.9519,1514,2877.84
20020,2.6456,3.7709,10.6566,1485,2877.84
20025,-1.1887,0.504,12.3469,1480,2877.84
20030,-4.4101,-0.6464,11.4563,1481,2877.84
20035,-1.5945,2.5367,8.7939,1543,2878.11
20040,2.2853,3.8116,10.4519,1481,2878.11
20045,-0.6381,0.9589,12.0572,1479,2878.11
20050,-3.784,-1.2378,11.9866,1479,2878.11
20055,-2.8826,2.2625,8.7867,1527,2877.97
20060,1.8771,3.7134,10.3058,1489,2877.97
20064,0.6632,1.4832,11.9159,1481,2877.97
20069,-2.9497,-1.4964,12.3277,1485,2877.97
20075,-3.9816,1.9381,9.1219,1517,2878.66
20080,1.6053,3.5793,10.0497,1493,2878.66
20084,2.0506,2.1715,11.5903,1487,2878.66
20089,-2.1572,-1.3216,12.5169,1479,2878.66
20095,-4.7537,1.4234,9.572,1493,2878.66
20100,1.1301,3.371,9.6941,1503,2878.53
20104,2.8407,2.8252,11.2492,1479,2878.53
20109,-1.5957,-0.7949,12.5528,1485,2878.53
20115,-5.0422,0.7482,10.1861,1480,2878.53
20120,0.3891,3.055,9.232,1508,2878.39
20124,2.9485,3.3315,10.8948,1493,2878.39
20129,-1.3767,-0.1927,12.5372,1481,2878.39
20135,-4.9081,0.012,10.8721,1481,2878.39
20140,-0.5327,2.8455,9.0022,1515,2878.25
20145,2.5678,3.7517,10.6362,1485,2878.25
20150,-1.324,0.504,12.3792,1471,2878.25
20155,-4.4161,-0.6632,11.552,1479,2878.25
20160,-1.6987,2.5714,8.7939,1533,2878.11
20165,2.2458,3.863,10.4507,1483,2878.11
20170,-0.6213,1.0068,12.1434,1481,2878.11
20175,-3.6679,-1.1696,12.0261,1485,2878.11
20180,-2.873,2.2853,8.7963,1529,2878.11
20185,1.9261,3.7385,10.2508,1485,2878.11
20190,0.7889,1.5179,11.8405,1481,2878.11
20194,-2.8886,-1.5395,12.3218,1486,2878.11
20200,-4.0294,1.81,9.0872,1549,2878.11
20205,1.579,3.4273,10.0245,1479,2878.11
20209,2.0937,2.1476,11.564,1485,2878.11
20214,-2.1787,-1.3611,12.536,1481,2878.11
20220,-4.7776,1.3635,9.7025,1496,2878.11
20225,1.0487,3.2741,9.6857,1511,2878.25
20229,2.7892,2.8754,11.2504,1481,2878.25
20234,-1.6568,-0.7649,12.5612,1485,2878.25
20240,-4.9644,0.7709,10.3214,1479,2878.25
20245,0.3855,3.0754,9.3278,1507,2878.53
20249,2.9173,3.4369,10.8948,1485,2878.53
20254,-1.4114,-0.0982,12.5073,1479,2878.53
20260,-4.7848,0.0156,10.9463,1483,2878.53
20265,-0.5638,2.8204,8.9232,1513,2878.66
20270,2.642,3.7134,10.6039,1477,2878.66
20275,-1.148,0.4525,12.2631,1479,2878.66
20280,-4.385,-0.7949,11.5412,1478,2878.66
20285,-1.7645,2.5151,8.7819,1533,2878.53
20290,2.2242,3.7397,10.4794,1487,2878.53
20295,-0.5614,0.9828,12.0919,1481,2878.53
20300,-3.717,-1.3156,12.0644,1478,2878.53
20305,-2.9796,2.2865,8.8921,1508,2878.39
20310,1.8711,3.7206,10.2041,1485,2878.39
20315,0.7709,1.5826,11.8788,1480,2878.39
20320,-2.8587,-1.4832,12.3972,1485,2878.39
20325,-4.045,1.8675,9.1889,1546,2878.53
20330,1.6041,3.5434,10.0114,1479,2878.53
20334,2.1703,2.1703,11.5664,1480,2878.53
20340,-2.083,-1.3539,12.5624,1480,2878.53
20345,-4.7728,1.312,9.596,1495,2878.53
20350,1.1384,3.2813,9.5864,1508,2878.39
20354,2.9329,2.8671,11.1737,1481,2878.39
20360,-1.5514,-0.7937,12.5947,1485,2878.39
20365,-4.9859,0.595,10.2987,1479,2878.39
20370,0.2693,3.0131,9.244,1507,2878.66
20374,2.8299,3.4081,10.8864,1485,2878.66
20380,-1.4521,-0.0958,12.5013,1480,2878.66
20385,-4.8255,-0.0096,10.92,1481,2878.66
20390,-0.6369,2.8347,9.0154,1504,2878.66
20395,2.6025,3.8666,10.6578,1483,2878.66
20400,-1.2869,0.5614,12.3565,1482,2878.66
20405,-4.3287,-0.6404,11.5987,1481,2878.66
20410,-1.7753,2.5762,8.8047,1524,2879.22
20415,2.229,3.8607,10.4531,1487,2879.22
20420,-0.5052,1.0319,12.0596,1479,2879.22
20425,-3.6117,-1.2905,12.0273,1479,2879.22
20430,-2.9892,2.1895,8.8155,1542,2879.49
20435,1.8854,3.6631,10.2472,1483,2879.49
20440,0.8356,1.5562,11.801,1479,2879.49
20444,-2.8431,-1.5574,12.3361,1479,2879.49
20450,-4.0749,1.7825,9.1901,1533,2879.35
20455,1.488,3.4692,9.9766,1481,2879.35
20460,2.1129,2.2075,11.6095,1481,2879.35
20464,-2.1428,-1.336,12.5672,1477,2879.35
20470,-4.792,1.3827,9.6953,1495,2879.35
20475,1.069,3.3148,9.6127,1503,2881.01
20480,2.9257,2.8814,11.2324,1481,2881.01
20484,-1.6233,-0.7458,12.5959,1485,2881.01
20490,-5.023,0.759,10.3022,1479,2881.01
20495,0.3615,3.0706,9.2129,1509,2880.88
20500,2.9724,3.4093,10.9116,1483,2880.88
20505,-1.3874,-0.1101,12.4917,1479,2880.88
20510,-4.8542,-0.0084,10.9271,1485,2880.88
20515,-0.5674,2.794,8.9352,1503,2881.43
20520,2.6492,3.6835,10.6291,1485,2881.43
20525,-1.1971,0.5016,12.2906,1483,2881.43
20530,-4.4149,-0.7362,11.5389,1479,2881.43
20535,-1.7502,2.5199,8.6886,1533,2881.57
20540,2.1895,3.869,10.4591,1485,2881.57
20545,-0.5734,1.008,12.0991,1481,2881.57
20550,-3.802,-1.2067,12.0428,1478,2881.57
20555,-2.9042,2.3116,8.8095,1507,2881.71
20560,1.9644,3.7984,10.2795,1485,2881.71
20565,0.7075,1.549,11.8776,1485,2881.71
20570,-2.9999,-1.4916,12.378,1485,2881.71
20575,-3.9564,1.9058,9.0621,1545,2882.4
20580,1.6604,3.5362,10.0102,1479,2882.4
20584,2.1021,2.1033,11.6167,1481,2882.4
20590,-2.1919,-1.4281,12.5133,1484,2882.4
20595,-4.6627,1.3264,9.5397,1493,2882.4
20600,1.1049,3.2741,9.6067,1503,2882.12
20605,2.8228,2.7497,11.2252,1480,2882.12
20610,-1.634,-0.8906,12.6294,1485,2882.12
20615,-5.0949,0.7494,10.1897,1477,2882.12
20620,0.4693,3.0849,9.3194,1508,2882.12
20625,2.9892,3.389,10.9834,1485,2882.12
20630,-1.5359,-0.1592,12.5408,1484,2882.12
20635,-4.8937,0.1329,10.8421,1481,2882.12
20640,-0.4322,2.8551,9.001,1515,2882.4
20645,2.6983,3.7972,10.6985,1483,2882.4
20650,-1.3096,0.4322,12.4044,1481,2882.4
20655,-4.4448,-0.5794,11.4132,1479,2882.4
20660,-1.549,2.6013,8.7783,1543,2882.81
20665,2.3487,3.8367,10.4291,1484,2882.81
20670,-0.571,0.8823,12.1278,1480,2882.81
20675,-3.8463,-1.1995,11.9459,1477,2882.81
20680,-2.6911,2.2901,8.7915,1549,2883.09
20685,1.98,3.7421,10.3034,1491,2883.09
20690,0.4848,1.3946,11.9926,1479,2883.09
20694,-3.0957,-1.5263,12.3074,1491,2883.09
20700,-3.8511,1.9824,9.0142,1517,2883.51
20705,1.6113,3.5997,10.0461,1478,2883.51
20710,1.8759,2.0662,11.7627,1485,2883.51
20715,-2.375,-1.4054,12.5492,1481,2883.51
20720,-4.6687,1.549,9.5373,1496,2883.51
20725,1.2354,3.377,9.6774,1499,2883.37
20730,2.8216,2.6971,11.3701,1479,2883.37
20734,-1.8016,-0.9409,12.6007,1485,2883.37
20740,-5.0494,0.9313,10.0652,1479,2883.37
20745,0.65,3.1244,9.3482,1510,2883.51
20750,3.0538,3.2465,11.0385,1490,2883.51
20755,-1.4712,-0.3484,12.4582,1481,2883.51
20760,-4.9716,0.1856,10.7188,1483,2883.51
20765,-0.2741,2.8814,9.0154,1515,2882.81
20770,2.7258,3.6595,10.7248,1485,2882.81
20775,-1.2749,0.2514,12.3984,1477,2882.81
20780,-4.7238,-0.516,11.303,1485,2882.81
20785,-1.2594,2.6815,8.7736,1545,2882.95
20790,2.405,3.9373,10.501,1483,2882.95
20795,-0.9361,0.82,12.1817,1481,2882.95
20800,-4.0402,-1.0451,11.8776,1483,2882.95
20805,-2.4169,2.3643,8.7867,1531,2882.81
20810,2.1081,3.8379,10.3453,1483,2882.81
20815,0.164,1.2833,11.892,1480,2882.81
20820,-3.1831,-1.4293,12.2392,1491,2882.81
20825,-3.5578,2.0039,9.0058,1549,2882.95
20830,1.7286,3.6296,10.1646,1480,2882.95
20834,1.6664,1.889,11.6921,1483,2882.95
20840,-2.4181,-1.5012,12.4894,1485,2882.95
20845,-4.4927,1.561,9.3314,1483,2882.95
20850,1.3084,3.3327,9.8043,1502,2883.09
20854,2.6217,2.5031,11.4048,1483,2883.09
20860,-1.9166,-1.1552,12.6546,1481,2883.09
20865,-5.0386,1.0906,9.991,1482,2883.09
20870,0.7937,3.1795,9.4391,1509,2883.37
20875,3.0131,3.201,11.0337,1483,2883.37
20880,-1.5718,-0.4429,12.6043,1481,2883.37
20885,-5.0242,0.4669,10.6494,1482,2883.37
20890,-0.0239,2.9987,9.098,1513,2883.51
20895,2.9054,3.6033,10.7691,1485,2883.51
20900,-1.3683,0.1951,12.4235,1477,2883.51
20905,-4.6591,-0.3136,11.2216,1491,2883.51
20910,-1.0211,2.727,8.734,1547,2883.51
20915,2.4936,3.8068,10.5417,1481,2883.51
20920,-0.9361,0.6381,12.3074,1487,2883.51
20925,-4.1575,-1.0942,11.7843,1483,2883.51
20930,-2.217,2.4086,8.734,1531,2883.51
20935,2.1272,3.79,10.3705,1481,2883.51
20940,-0.0862,1.1588,12.0704,1483,2883.51
20945,-3.4441,-1.4018,12.1985,1491,2883.51
20950,-3.4034,2.1332,8.9088,1514,2883.51
20955,1.7837,3.6751,10.1969,1478,2883.51
20960,1.3001,1.7609,11.8621,1495,2883.51
20965,-2.7054,-1.4808,12.4654,1481,2883.51
20970,-4.3395,1.7597,9.2644,1481,2883.51
20975,1.4676,3.4991,9.9036,1511,2883.51
20980,2.5163,2.4289,11.4982,1485,2883.51
20985,-1.913,-1.1851,12.5145,1481,2883.51
20990,-4.8566,1.1444,9.7755,1491,2883.51
20995,0.8655,3.2202,9.499,1513,2883.37
21000,2.9832,2.9975,11.2061,1485,2883.37
21005,-1.4832,-0.6404,12.5887,1477,2883.37
21010,-5.1152,0.5243,10.3872,1483,2883.37
21015,0.182,2.9616,9.159,1517,2882.81
21020,2.8539,3.5279,10.8828,1483,2882.81
21025,-1.4784,0.0455,12.4415,1477,2882.81
21030,-4.8111,-0.1724,11.0923,1491,2882.81
21035,-0.8296,2.7533,8.8957,1541,2883.23
21040,2.5355,3.8714,10.6279,1480,2883.23
21045,-1.0906,0.6357,12.3313,1483,2883.23
21050,-4.3323,-0.7889,11.6897,1479,2883.23
21055,-1.8962,2.5187,8.6886,1531,2883.51
21060,2.2721,3.8487,10.3729,1485,2883.51
21065,-0.3268,1.0989,12.0728,1482,2883.51
21070,-3.6224,-1.3024,12.0656,1491,2883.51
21075,-3.1137,2.2027,8.8262,1523,2883.23
21080,1.8747,3.7038,10.2208,1481,2883.23
21085,0.9924,1.5993,11.8645,1487,2883.23
21090,-2.8539,-1.5945,12.3565,1480,2883.23
21095,-4.1515,1.7945,9.1351,1478,2883.23
21100,1.5167,3.4548,9.9132,1514,2883.09
21105,2.2422,2.2589,11.5281,1491,2883.09
21110,-2.1763,-1.3479,12.5815,1480,2883.09
21115,-4.8566,1.3408,9.7468,1495,2883.09
21120,1.081,3.286,9.5912,1509,2882.81
21125,2.9269,2.9437,11.2372,1483,2882.81
21130,-1.6676,-0.7183,12.6605,1481,2882.81
21135,-5.0326,0.7326,10.2915,1485,2882.81
21140,0.425,3.0574,9.2249,1508,2882.68
21145,2.9724,3.4836,10.8924,1485,2882.68
21150,-1.4186,-0.0982,12.5301,1477,2882.68
21155,-4.8686,-0.0814,10.9403,1483,2882.68
21160,-0.5423,2.8252,8.8945,1541,2882.54
21165,2.6336,3.7924,10.5872,1481,2882.54
21170,-1.2067,0.4764,12.3289,1489,2882.54
21175,-4.3958,-0.7769,11.4802,1480,2882.54
21180,-1.7119,2.5426,8.7951,1533,2882.54
21185,2.247,3.8642,10.4615,1491,2882.54
21190,-0.577,0.9864,12.1721,1483,2882.54
21195,-3.717,-1.2785,12.0129,1482,2882.54
21200,-2.8706,2.2386,8.8765,1547,2882.81
21205,1.9393,3.7924,10.2556,1483,2882.81
21210,0.7063,1.5251,11.8214,1487,2882.81
21215,-2.9975,-1.5215,12.3445,1479,2882.81
21220,-3.9636,1.9201,9.1063,1515,2882.81
21225,1.6747,3.5578,10.0329,1484,2882.81
21230,2.0794,2.0913,11.6191,1489,2882.81
21235,-2.2374,-1.4114,12.5217,1479,2882.81
21240,-4.6938,1.421,9.5577,1491,2882.81
21245,1.1696,3.3016,9.6738,1512,2883.51
21250,2.8826,2.7581,11.3222,1484,2883.51
21255,-1.6927,-0.8882,12.5911,1484,2883.51
21260,-5.0769,0.8056,10.1873,1471,2883.51
21265,0.4597,3.0622,9.2692,1513,2883.65
21270,3.0023,3.3567,10.963,1489,2883.65
21275,-1.4605,-0.2346,12.5576,1480,2883.65
21280,-5.0003,0.2155,10.8218,1481,2883.65
21285,-0.334,2.897,8.9771,1501,2884.06
21290,2.721,3.7505,10.6638,1483,2884.06
21295,-1.3443,0.3687,12.4068,1481,2884.06
21300,-4.5681,-0.5076,11.4168,1483,2884.06
21305,-1.4138,2.6432,8.7317,1541,2884.62
21310,2.4002,3.8607,10.4986,1493,2884.62
21315,-0.7278,0.8906,12.1877,1481,2884.62
21320,-3.9624,-1.1815,11.9626,1483,2884.62
21325,-2.6133,2.2972,8.7089,1511,2885.17
21330,2.0758,3.7457,10.2999,1487,2885.17
21335,0.3687,1.3372,11.9614,1484,2885.17
21340,-3.2453,-1.5467,12.2918,1491,2885.17
21345,-3.7505,1.968,8.9938,1553,2885.03
21350,1.6688,3.5781,10.0628,1481,2885.03
21355,1.7286,1.9513,11.8022,1487,2885.03
21360,-2.4672,-1.4688,12.5193,1485,2885.03
21365,-4.5669,1.573,9.481,1497,2885.03
21370,1.3012,3.4153,9.8174,1509,2886.0
21375,2.6815,2.6205,11.4347,1479,2886.0
21380,-1.8352,-1.0606,12.6354,1490,2886.0
21385,-5.0015,1.0259,9.9671,1481,2886.0
21390,0.7901,3.1915,9.3793,1511,2885.59
21395,3.0765,3.2274,11.0241,1493,2885.59
21400,-1.5395,-0.3926,12.5612,1483,2885.59
21405,-4.9668,0.3448,10.6147,1477,2885.59
21410,-0.0922,2.9353,9.0249,1518,2885.59
21415,2.8144,3.6105,10.7105,1491,2885.59
21420,-1.3695,0.1664,12.4666,1479,2885.59
21425,-4.7022,-0.4274,11.2635,1481,2885.59
21430,-1.1217,2.6707,8.8394,1527,2885.17
21435,2.46,3.8523,10.5704,1481,2885.17
21440,-0.9948,0.729,12.3637,1482,2885.17
21445,-4.1827,-0.9744,11.8154,1481,2885.17
21450,-2.229,2.4265,8.7173,1545,2884.75
21455,2.1416,3.875,10.3334,1483,2884.75
21460,-0.0563,1.1803,12.0261,1479,2884.75
21465,-3.4369,-1.4018,12.1613,1493,2884.75
21470,-3.3627,2.1201,8.8933,1547,2884.06
21475,1.8531,3.7254,10.1466,1478,2884.06
21480,1.3587,1.7454,11.8286,1493,2884.06
21485,-2.6851,-1.5071,12.4678,1483,2884.06
21490,-4.3335,1.6999,9.2308,1483,2884.06
21495,1.506,3.389,9.8737,1503,2883.65
21500,2.4684,2.3786,11.497,1485,2883.65
21505,-1.986,-1.2438,12.536,1480,2883.65
21510,-4.8602,1.1624,9.7755,1485,2883.65
21515,0.8703,3.1783,9.5002,1513,2883.23
21520,2.9688,3.0251,11.2061,1483,2883.23
21525,-1.5502,-0.6333,12.5923,1483,2883.23
21530,-5.0242,0.5722,10.3717,1483,2883.23
21535,0.2095,3.0358,9.1411,1515,2883.09
21540,2.9341,3.5314,10.8661,1486,2883.09
21545,-1.4138,0.0658,12.5013,1479,2883.09
21550,-4.7728,-0.1401,11.0648,1493,2883.09
21555,-0.7937,2.8204,8.8334,1545,2883.37
21560,2.5522,3.8211,10.5836,1481,2883.37
21565,-1.0798,0.6213,12.2858,1487,2883.37
21570,-4.2581,-0.8631,11.6131,1481,2883.37
21575,-1.8962,2.4816,8.6993,1544,2883.23
21580,2.2134,3.8223,10.4291,1485,2883.23
21585,-0.3292,1.0546,12.1159,1479,2883.23
21590,-3.5578,-1.336,12.0979,1492,2883.23
21595,-3.1556,2.1715,8.7903,1530,2883.37
21600,1.8304,3.7505,10.2316,1480,2883.37
21605,1.0367,1.6029,11.8309,1497,2883.37
21610,-2.8718,-1.549,12.3672,1481,2883.37
21615,-4.1934,1.8124,9.1877,1481,2883.37
21620,1.579,3.5159,9.9719,1511,2883.37
21625,2.296,2.2745,11.5556,1489,2883.37
21630,-2.1524,-1.233,12.5732,1481,2883.37
21635,-4.8375,1.3443,9.6546,1493,2883.37
21640,1.069,3.3016,9.6211,1513,2883.78
21645,2.9916,2.8874,11.2037,1483,2883.78
21650,-1.6161,-0.7721,12.6234,1477,2883.78
21655,-5.023,0.6548,10.2699,1483,2883.78
21660,0.3484,3.0287,9.2692,1519,2884.2
21665,2.9724,3.4058,10.8697,1483,2884.2
21670,-1.385,-0.0958,12.542,1479,2884.2
21675,-4.9368,0.012,10.908,1491,2884.2
21680,-0.5435,2.8096,8.8981,1546,2884.34
21685,2.6719,3.814,10.6386,1483,2884.34
21690,-1.3001,0.4896,12.4427,1485,2884.34
21695,-4.5059,-0.6812,11.5293,1485,2884.34
21700,-1.6783,2.5438,8.7352,1527,2884.06
21705,2.2709,3.8642,10.4136,1489,2884.06
21710,-0.5626,0.9984,12.1685,1485,2884.06
21715,-3.8092,-1.2103,11.965,1485,2884.06
21720,-2.818,2.3188,8.7795,1532,2884.2
21725,2.0016,3.7924,10.2795,1485,2884.2
21730,0.6333,1.4916,11.9207,1483,2884.2
21735,-3.0394,-1.5263,12.3325,1479,2884.2
21740,-3.8906,1.9213,9.0477,1489,2884.2
21745,1.6352,3.48,9.9802,1509,2883.92
21750,2.0375,2.0734,11.6717,1489,2883.92
21755,-2.3415,-1.4892,12.5672,1479,2883.92
21760,-4.7022,1.4293,9.5541,1493,2883.92
21765,1.2605,3.3411,9.7001,1511,2884.34
21770,2.8611,2.7533,11.3593,1485,2884.34
21775,-1.8004,-0.9481,12.6462,1483,2884.34
21780,-5.0805,0.8487,10.1275,1481,2884.34
21785,0.5758,3.1364,9.3122,1516,2884.2
21790,3.0263,3.3339,10.9571,1484,2884.2
21795,-1.4617,-0.2274,12.5444,1479,2884.2
21800,-4.974,0.1927,10.8218,1480,2884.2
21805,-0.2215,2.9257,8.9842,1531,2884.06
21810,2.7713,3.7302,10.7009,1489,2884.06
21815,-1.2785,0.3879,12.3708,1487,2884.06
21820,-4.5909,-0.5459,11.303,1481,2884.06
21825,-1.3192,2.6121,8.7388,1541,2884.2
21830,2.4289,3.8367,10.5285,1493,2884.2
21835,-0.7997,0.7973,12.1649,1483,2884.2
21840,-3.9863,-1.1899,11.8956,1483,2884.2
21845,-2.4948,2.3607,8.7616,1551,2884.2
21850,2.0363,3.8307,10.3118,1485,2884.2
21855,1.9237,2.1057,11.6143,1485,2884.2
21860,-2.3104,-1.3886,12.5456,1487,2884.2
21865,-3.6368,2.0339,9.0297,1548,2883.92
21870,1.2186,3.3806,9.7252,1481,2883.92
21875,2.8323,2.727,11.303,1481,2883.92
21880,-1.7214,-0.9014,12.5911,1483,2883.92
21885,-4.9524,0.9062,10.0904,1497,2883.92
21890,0.5842,3.0885,9.3134,1508,2883.78
21895,3.0466,3.2848,10.9702,1484,2883.78
21900,-1.4365,-0.2981,12.5384,1484,2883.78
21905,-4.9548,0.1748,10.6997,1481,2883.78
21910,-0.2897,2.824,8.9615,1510,2883.78
21915,2.7689,3.6775,10.7081,1491,2883.78
21920,-1.306,0.3448,12.4115,1481,2883.78
21925,-4.6926,-0.5459,11.3114,1480,2883.78
21930,-1.3228,2.6528,8.7915,1515,2883.51
21935,2.3882,3.8846,10.4878,1487,2883.51
21940,-0.8763,0.8356,12.2368,1481,2883.51
21945,-3.972,-1.0965,11.8333,1479,2883.51
21950,-2.5343,2.3547,8.7915,1535,2882.95
21955,2.0231,3.8092,10.3214,1483,2882.95
21960,0.3065,1.3743,11.9531,1479,2882.95
21965,-3.2298,-1.4928,12.2236,1481,2882.95
21970,-3.6559,2.0004,8.9807,1549,2882.81
21975,1.7334,3.559,10.0724,1484,2882.81
21980,1.7131,1.9142,11.7304,1481,2882.81
21985,-2.4983,-1.5467,12.4989,1489,2882.81
21990,-4.5514,1.5323,9.4188,1543,2882.68
21995,1.2941,3.3423,9.7671,1480,2882.68
22000,2.6707,2.6169,11.4239,1486,2882.68
22005,-1.8471,-1.0439,12.5779,1479,2882.68
22010,-5.0434,1.0499,10.0137,1497,2882.68
22015,0.7374,3.1879,9.4763,1510,2882.54
22020,3.0083,3.2825,11.1271,1483,2882.54
22025,-1.5143,-0.3831,12.5971,1485,2882.54
22030,-4.9967,0.3436,10.6255,1480,2882.54
22035,-0.0563,2.9317,8.9938,1513,2882.54
22040,2.7988,3.6703,10.7236,1491,2882.54
22045,-1.3838,0.2251,12.3661,1481,2882.54
22050,-4.6052,-0.3903,11.2468,1485,2882.54
22055,-1.1169,2.6743,8.7376,1512,2882.26
22060,2.3894,3.8176,10.4806,1487,2882.26
22065,-0.9122,0.7266,12.1769,1477,2882.26
22070,-4.1192,-1.0618,11.7902,1485,2882.26
22075,-2.2877,2.3822,8.7173,1529,2882.54
22080,2.0746,3.8235,10.3896,1481,2882.54
22085,0.0311,1.2019,12.0404,1481,2882.54
22090,-3.4117,-1.4281,12.2475,1481,2882.54
22095,-3.4345,2.1129,8.9232,1544,2882.68
22100,1.7681,3.711,10.1047,1487,2882.68
22105,1.4473,1.804,11.734,1483,2882.68
22110,-2.5833,-1.4796,12.4403,1493,2882.68
22115,-4.3718,1.6735,9.2859,1543,2882.54
22120,1.4114,3.4417,9.8318,1479,2882.54
22125,2.5941,2.5043,11.5245,1495,2882.54
22130,-1.8543,-1.2019,12.5696,1482,2882.54
22135,-4.9428,1.1181,9.8102,1489,2882.54
22140,0.8499,3.1699,9.481,1509,2882.12
22145,2.9939,3.0694,11.1282,1483,2882.12
22150,-1.5311,-0.595,12.5516,1483,2882.12
22155,-5.0637,0.4453,10.5369,1481,2882.12
22160,0.097,2.9796,9.1518,1511,2882.26
22165,2.8156,3.6069,10.7955,1485,2882.26
22170,-1.4413,0.1353,12.4941,1483,2882.26
22175,-4.7633,-0.2538,11.1175,1481,2882.26
22180,-0.929,2.7653,8.831,1517,2882.12
22185,2.5091,3.875,10.6279,1485,2882.12
22190,-1.1037,0.6871,12.2823,1469,2882.12
22195,-4.2114,-0.8835,11.7053,1487,2882.12
22200,-2.162,2.49,8.7352,1547,2882.26
22205,2.1536,3.8391,10.3813,1483,2882.26
22210,-0.1137,1.1277,12.068,1481,2882.26
22215,-3.4297,-1.409,12.135,1483,2882.26
22220,-3.2896,2.1129,8.8442,1531,2882.26
22225,1.828,3.6188,10.1418,1483,2882.26
22230,1.2282,1.6688,11.7735,1481,2882.26
22235,-2.7366,-1.5299,12.3984,1491,2882.26
22240,-4.2904,1.6951,9.2787,1547,2882.12
22245,1.4257,3.4524,9.8845,1479,2882.12
22250,2.3954,2.3631,11.5245,1495,2882.12
22255,-2.0375,-1.1911,12.5971,1483,2882.12
22260,-4.8662,1.2175,9.7983,1483,2882.12
22265,0.9218,3.2465,9.5553,1507,2881.84
22270,2.982,3.055,11.1929,1487,2881.84
22275,-1.549,-0.571,12.5923,1481,2881.84
22280,-4.9991,0.5626,10.3825,1486,2881.84
22285,0.182,3.0107,9.1195,1515,2882.26
22290,2.9676,3.5338,10.8757,1483,2882.26
22295,-1.3515,-0.0215,12.4965,1481,2882.26
22300,-4.7561,-0.2011,11.0504,1483,2882.26
22305,-0.7661,2.7485,8.8801,1519,2881.84
22310,2.5175,3.7828,10.6051,1485,2881.84
22315,-1.1911,0.5662,12.2667,1479,2881.84
22320,-4.2808,-0.8152,11.5903,1491,2881.84
22325,-1.9094,2.5319,8.7508,1547,2881.71
22330,2.1727,3.8846,10.4507,1483,2881.71
22335,-0.3663,1.1049,12.1063,1485,2881.71
22340,-3.6164,-1.3168,12.0955,1485,2881.71
22345,-3.1196,2.2051,8.8741,1545,2881.43
22350,1.9178,3.7194,10.2077,1481,2881.43
22355,1.0654,1.652,11.8046,1481,2881.43
22360,-2.7653,-1.4892,12.3553,1491,2881.43
22365,-4.1527,1.8004,9.1925,1511,2881.43
22370,1.5191,3.4764,9.9551,1471,2881.43
22375,2.308,2.3104,11.5592,1497,2881.43
22380,-2.0734,-1.3671,12.56,1483,2881.43
22385,-4.8399,1.2773,9.7049,1481,2881.43
22390,1.0451,3.2094,9.6319,1507,2881.29
22395,2.9365,2.9197,11.1941,1485,2881.29
22400,-1.6281,-0.759,12.5672,1481,2881.29
22405,-5.0649,0.662,10.3561,1487,2881.29
22410,0.3244,3.073,9.2261,1511,2881.71
22415,2.9018,3.5135,10.9259,1483,2881.71
22420,-1.4856,0.0,12.5432,1469,2881.71
22425,-4.8614,-0.0407,11.0002,1483,2881.71
22430,-0.6464,2.8036,8.934,1524,2881.43
22435,2.6576,3.7936,10.5764,1479,2881.43
22440,-1.2055,0.5327,12.2811,1479,2881.43
22445,-4.3215,-0.7697,11.5712,1491,2881.43
22450,-1.7466,2.5738,8.7185,1545,2881.43
22455,2.2218,3.8451,10.392,1483,2881.43
22460,-0.4729,0.972,12.1147,1483,2881.43
22465,-3.5769,-1.3324,12.0333,1479,2881.43
22470,-2.9592,2.1979,8.7831,1543,2881.43
22475,1.8651,3.6919,10.2328,1484,2881.43
22480,0.7997,1.5203,11.9076,1483,2881.43
22485,-2.9137,-1.4928,12.4307,1491,2881.43
22490,-4.0306,1.8806,9.153,1545,2881.29
22495,1.5371,3.5267,10.0102,1478,2881.29
22500,2.1775,2.2529,11.6167,1495,2881.29
22505,-2.2098,-1.2629,12.5265,1485,2881.29
22510,-4.7525,1.3886,9.596,1485,2881.29
22515,1.0882,3.3028,9.651,1515,2881.29
22520,2.9149,2.8467,11.2611,1487,2881.29
22525,-1.6005,-0.7338,12.5767,1479,2881.29
22530,-5.0051,0.7027,10.2244,1493,2881.29
22535,0.4166,2.9939,9.2285,1514,2881.57
22540,2.9772,3.4117,10.8661,1497,2881.57
22545,-1.397,-0.158,12.5001,1471,2881.57
22550,-4.8578,-0.0587,10.8793,1479,2881.57
22555,-0.5842,2.818,8.9483,1515,2881.57
22560,2.5714,3.7769,10.647,1487,2881.57
22565,-1.2426,0.4669,12.3373,1477,2881.57
22570,-4.4329,-0.6812,11.4766,1493,2881.57
22575,-1.6975,2.5774,8.7927,1549,2881.84
22580,2.2697,3.881,10.4627,1483,2881.84
22585,-0.5758,0.9804,12.1673,1485,2881.84
22590,-3.7505,-1.1887,12.0213,1482,2881.84
22595,-2.824,2.2685,8.8071,1545,2881.84
22600,1.9968,3.7673,10.3286,1487,2881.84
22605,0.7446,1.4892,11.8465,1480,2881.84
22610,-2.9078,-1.5119,12.3385,1491,2881.84
22615,-3.9468,1.8998,9.0824,1545,2881.98
22620,1.6053,3.5051,9.9431,1479,2881.98
22625,2.0865,2.0973,11.6418,1491,2881.98
22630,-2.2482,-1.4162,12.5085,1480,2881.98
22635,-4.7477,1.3946,9.572,1485,2881.98
22640,1.1612,3.2836,9.6582,1512,2881.98
22645,2.8419,2.7366,11.2755,1491,2881.98
22650,-1.7298,-0.8954,12.5875,1478,2881.98
22655,-5.0099,0.8691,10.2101,1493,2881.98
22660,0.5004,3.122,9.268,1517,2882.95
22665,2.9916,3.395,10.987,1485,2882.95
22670,-1.4617,-0.17,12.6043,1481,2882.95
22675,-4.9309,0.1401,10.799,1485,2882.95
22680,-0.3855,2.8623,8.9627,1517,2883.51
22685,2.7713,3.6775,10.6039,1483,2883.51
22690,-1.2354,0.413,12.3924,1479,2883.51
22695,-4.5167,-0.571,11.3749,1485,2883.51
22700,-1.4174,2.6205,8.758,1543,2883.78
22705,2.3451,3.8211,10.4998,1481,2883.78
22710,-0.7578,0.8882,12.1901,1489,2883.78
22715,-3.8894,-1.1432,11.9339,1485,2883.78
22720,-2.6252,2.2805,8.7736,1543,2884.2
22725,1.9836,3.7397,10.2999,1487,2884.2
22730,0.407,1.3791,11.9938,1483,2884.2
22735,-3.1879,-1.4389,12.3313,1481,2884.2
22740,-3.7685,2.0327,8.989,1549,2884.34
22745,1.6867,3.6368,10.155,1484,2884.34
22750,1.7837,2.0135,11.6466,1485,2884.34
22755,-2.3966,-1.4425,12.5253,1479,2884.34
22760,-4.604,1.5778,9.4643,1515,2884.06
22765,1.2845,3.3483,9.7779,1490,2884.06
22770,2.7725,2.6276,11.3772,1491,2884.06
22775,-1.81,-1.0104,12.5073,1479,2884.06
22780,-4.9859,0.9864,9.924,1493,2884.06
22785,0.6919,3.1125,9.3841,1508,2884.48
22790,3.0059,3.1987,10.993,1481,2884.48
22795,-1.4676,-0.4058,12.5779,1485,2884.48
22800,-5.0458,0.2849,10.653,1481,2884.48
22805,-0.0814,2.9329,9.0704,1511,2884.2
22810,2.7964,3.6703,10.7392,1490,2884.2
22815,-1.4533,0.2346,12.4391,1481,2884.2
22820,-4.6651,-0.3986,11.3114,1483,2884.2
22825,-1.1636,2.6588,8.8286,1509,2884.2
22830,2.4792,3.8822,10.55,1487,2884.2
22835,-0.9589,0.7709,12.3337,1483,2884.2
22840,-4.13,-1.0104,11.7711,1479,2884.2
22845,-2.2913,2.4193,8.7472,1544,2884.48
22850,2.1368,3.8307,10.3154,1487,2884.48
22855,0.073,1.2282,12.0153,1483,2884.48
22860,-3.3447,-1.5155,12.1829,1479,2884.48
22865,-3.456,2.0842,8.9052,1511,2883.65
22870,1.8028,3.5985,10.1706,1483,2883.65
22875,1.4174,1.7741,11.813,1484,2883.65
22880,-2.5941,-1.5311,12.4367,1491,2883.65
22885,-4.4065,1.6592,9.3218,1549,2884.06
22890,1.3743,3.4405,9.8521,1479,2884.06
22895,2.4852,2.4397,11.5233,1484,2884.06
22900,-2.0195,-1.1815,12.5839,1484,2884.06
22905,-4.9668,1.1408,9.8617,1495,2884.06
22910,0.9313,3.1939,9.5337,1511,2884.62
22915,3.0179,3.0742,11.1618,1484,2884.62
22920,-1.5359,-0.5758,12.621,1485,2884.62
22925,-5.0135,0.4441,10.4495,1481,2884.62
22930,0.1197,3.0095,9.074,1503,2884.34
22935,2.9269,3.5793,10.7715,1493,2884.34
22940,-1.3276,0.0694,12.5085,1483,2884.34
22945,-4.8207,-0.2634,11.0899,1481,2884.34
22950,-0.8344,2.7342,8.8873,1517,2884.62
22955,2.5391,3.7972,10.58,1484,2884.62
22960,-1.0738,0.6129,12.2451,1481,2884.62
22965,-4.3203,-0.917,11.6394,1484,2884.62
22970,-1.9644,2.4876,8.6933,1545,2884.89
22975,2.1847,3.8331,10.3968,1482,2884.89
22980,-0.2909,1.1253,12.1218,1483,2884.89
22985,-3.6236,-1.3204,12.1458,1483,2884.89
22990,-3.1412,2.2625,8.9244,1547,2885.03
22995,1.8459,3.729,10.1215,1485,2885.03
23000,1.0666,1.6077,11.8537,1483,2885.03
23005,-2.8096,-1.5107,12.4271,1495,2885.03
23010,-4.1671,1.7873,9.1997,1549,2885.31
23015,1.5658,3.5183,9.93,1480,2885.31
23020,2.3104,2.2972,11.5377,1493,2885.31
23025,-2.0806,-1.3755,12.554,1479,2885.31
23030,-4.7956,1.3096,9.6426,1486,2885.31
23035,1.0666,3.2118,9.5541,1507,2885.73
23040,2.9437,2.8659,11.2468,1485,2885.73
23045,-1.6053,-0.8212,12.6258,1481,2885.73
23050,-5.0841,0.7123,10.2639,1487,2885.73
23055,0.4489,3.0897,9.238,1513,2885.73
23060,2.9616,3.4237,10.9666,1483,2885.73
23065,-1.4509,-0.1149,12.572,1479,2885.73
23070,-4.8686,0.0491,10.9128,1481,2885.73
23075,-0.4669,2.8359,8.9292,1523,2885.17
23080,2.7126,3.7709,10.6326,1483,2885.17
23085,-1.2486,0.4645,12.3661,1479,2885.17
23090,-4.4532,-0.6548,11.5029,1491,2885.17
23095,-1.5682,2.545,8.685,1547,2884.89
23100,2.326,3.8978,10.4986,1484,2884.89
23105,-0.6656,0.9553,12.159,1485,2884.89
23110,-3.8439,-1.2677,11.9399,1483,2884.89
23115,-2.7797,2.2529,8.7783,1543,2884.89
23120,1.9477,3.7338,10.2448,1491,2884.89
23125,0.583,1.4257,11.9159,1485,2884.89
23130,-3.0801,-1.5036,12.3756,1491,2884.89
23135,-3.8702,1.9573,9.0549,1515,2884.62
23140,1.6245,3.5913,10.0904,1479,2884.62
23145,1.9142,2.0614,11.6693,1491,2884.62
23150,-2.3272,-1.4365,12.5492,1480,2884.62
23155,-4.6507,1.4736,9.5038,1482,2884.62
23160,1.2462,3.2872,9.6893,1515,2884.75
23165,2.8599,2.6923,11.3318,1491,2884.75
23170,-1.7861,-0.9613,12.5911,1479,2884.75
23175,-5.0314,0.929,10.0628,1493,2884.75
23180,0.6452,3.14,9.3541,1514,2885.17
23185,3.0682,3.2884,10.9834,1482,2885.17
23190,-1.4437,-0.31,12.5121,1479,2885.17
23195,-4.9704,0.1903,10.7248,1481,2885.17
23200,-0.2382,2.8718,8.9842,1523,2884.75
23205,2.7473,3.6727,10.7236,1483,2884.75
23210,-1.2917,0.2837,12.4223,1483,2884.75
23215,-4.7022,-0.4908,11.3365,1487,2884.75
23220,-1.2043,2.6408,8.758,1545,2884.48
23225,2.3954,3.7996,10.5309,1483,2884.48
23230,-0.9936,0.8487,12.2523,1490,2884.48
23235,-4.0642,-1.069,11.9076,1483,2884.48
23240,-2.4193,2.3906,8.7855,1532,2884.06
23245,2.0638,3.8307,10.3477,1487,2884.06
23250,0.158,1.3491,12.0321,1481,2884.06
23255,-3.2801,-1.4784,12.2428,1491,2884.06
23260,-3.5602,2.065,8.9435,1543,2883.78
23265,1.8184,3.6284,10.0928,1481,2883.78
23270,1.6089,1.8495,11.7208,1483,2883.78
23275,-2.49,-1.5119,12.5253,1481,2883.78
23280,-4.4855,1.6101,9.2943,1515,2883.09
23285,1.3779,3.3842,9.7887,1483,2883.09
23290,2.5977,2.4924,11.4838,1490,2883.09
23295,-1.8735,-1.1636,12.572,1482,2883.09
23300,-4.9692,1.0534,9.8485,1495,2883.09
23305,0.7506,3.1639,9.4978,1511,2883.37
23310,2.9832,3.152,11.1151,1486,2883.37
23315,-1.5095,-0.4717,12.6282,1480,2883.37
23320,-5.0542,0.4465,10.5656,1483,2883.37
23325,-0.0048,3.0035,9.1075,1510,2883.09
23330,2.8671,3.6272,10.7548,1487,2883.09
23335,-1.3886,0.1856,12.4666,1480,2883.09
23340,-4.6998,-0.2825,11.163,1484,2883.09
23345,-1.0068,2.7473,8.8873,1509,2883.09
23350,2.4696,3.8379,10.5512,1485,2883.09
23355,-1.0606,0.6644,12.2236,1479,2883.09
23360,-4.1264,-0.9577,11.746,1483,2883.09
23365,-2.1907,2.4349,8.7233,1525,2883.09
23370,2.047,3.7733,10.3406,1493,2883.09
23375,-0.0455,1.1684,12.0201,1481,2883.09
23380,-3.5374,-1.4305,12.1805,1481,2883.09
23385,-3.3243,2.1536,8.8992,1512,2882.95
23390,1.8304,3.638,10.1933,1495,2882.95
23395,1.251,1.7549,11.8333,1481,2882.95
23400,-2.7497,-1.5383,12.4391,1487,2882.95
23405,-4.3155,1.7119,9.2835,1550,2883.65
23410,1.4712,3.3794,9.8378,1483,2883.65
23415,2.4732,2.3858,11.5221,1487,2883.65
23420,-2.0027,-1.2007,12.5444,1480,2883.65
23425,-4.9165,1.2198,9.7851,1495,2883.65
23430,0.9553,3.2417,9.4906,1511,2883.65
23435,3.0011,3.0083,11.1821,1483,2883.65
23440,-1.5395,-0.6416,12.5672,1487,2883.65
23445,-5.0877,0.5267,10.3825,1480,2883.65
23450,0.2083,3.0227,9.1842,1509,2883.65
23455,2.9485,3.4955,10.8613,1491,2883.65
23460,-1.4353,0.018,12.4642,1481,2883.65
23465,-4.8483,-0.1736,11.0421,1483,2883.65
23470,-0.7386,2.7497,8.9148,1517,2884.06
23475,2.569,3.7924,10.6099,1487,2884.06
23480,-1.2857,0.5854,12.3265,1481,2884.06
23485,-4.2928,-0.7817,11.6011,1481,2884.06
23490,-1.9333,2.4983,8.7233,1545,2884.06
23495,2.217,3.8379,10.4507,1483,2884.06
23500,-0.3711,1.1049,12.1171,1483,2884.06
23505,-3.5961,-1.3252,12.0991,1483,2884.06
23510,-3.0777,2.2278,8.7688,1543,2883.92
23515,1.9321,3.7517,10.2364,1485,2883.92
23520,0.9697,1.6125,11.8214,1482,2883.92
23525,-2.8395,-1.5514,12.396,1491,2883.92
23530,-4.1156,1.8124,9.1626,1553,2884.2
23535,1.5443,3.5051,9.997,1480,2884.2
23540,2.1871,2.2015,11.6071,1490,2884.2
23545,-2.1991,-1.3563,12.5564,1484,2884.2
23550,-4.8147,1.3408,9.6079,1492,2884.2
23555,1.1061,3.2645,9.6379,1503,2884.2
23560,2.9293,2.8874,11.2336,1483,2884.2
23565,-1.6448,-0.7997,12.6162,1481,2884.2
23570,-5.0111,0.7709,10.2783,1481,2884.2
23575,0.4477,3.061,9.2703,1511,2884.34
23580,3.0035,3.4177,10.8397,1485,2884.34
23585,-1.4066,-0.1245,12.5253,1483,2884.34
23590,-4.9117,0.0527,10.8338,1481,2884.34
23595,-0.4238,2.8192,8.9423,1520,2884.62
23600,2.6923,3.7182,10.6398,1485,2884.62
23605,-1.251,0.4405,12.3577,1479,2884.62
23610,-4.5059,-0.6644,11.479,1491,2884.62
23615,-1.5275,2.5486,8.6874,1550,2884.89
23620,2.308,3.8211,10.4435,1485,2884.89
23625,-0.6536,0.9158,12.208,1483,2884.89
23630,-3.8607,-1.233,11.9997,1484,2884.89
23635,-2.7509,2.326,8.8262,1543,2884.89
23640,1.9405,3.7517,10.2903,1483,2884.89
23645,0.5243,1.4222,11.9902,1483,2884.89
23650,-3.1915,-1.5634,12.3218,1495,2884.89
23655,-3.8259,2.0207,9.0321,1511,2885.17
23660,1.7047,3.5733,10.0808,1479,2885.17
23665,1.901,2.0075,11.6969,1491,2885.17
23670,-2.3631,-1.4054,12.4882,1481,2885.17
23675,-4.6412,1.5383,9.5146,1481,2885.17
23680,1.2821,3.3327,9.6822,1511,2885.31
23685,2.8096,2.6468,11.4311,1485,2885.31
23690,-1.725,-1.0271,12.5851,1478,2885.31
23695,-5.0218,0.911,10.0413,1493,2885.31
23700,0.6524,3.1232,9.3482,1515,2885.03
23705,3.0155,3.225,11.0696,1483,2885.03
23710,-1.4664,-0.3244,12.5528,1471,2885.03
23715,-4.9919,0.2646,10.647,1484,2885.03
23720,-0.1377,2.9018,8.9388,1525,2885.03
23725,2.7617,3.6859,10.6829,1485,2885.03
23730,-1.2809,0.2885,12.4199,1469,2885.03
23735,-4.7046,-0.3508,11.2539,1487,2885.03
23740,-1.1516,2.7402,8.8214,1546,2884.75
23745,2.4864,3.9085,10.5979,1483,2884.75
23750,-0.9864,0.8475,12.2559,1489,2884.75
23755,-4.0091,-0.9852,11.8405,1483,2884.75
23760,-2.3619,2.4002,8.7017,1543,2884.89
23765,2.071,3.7888,10.3585,1487,2884.89
23770,0.1903,1.2546,12.0141,1482,2884.89
23775,-3.377,-1.482,12.2918,1481,2884.89
23780,-3.4907,2.0566,8.9328,1523,2884.48
23785,1.7945,3.6152,10.1215,1485,2884.48
23790,1.5311,1.8375,11.7579,1487,2884.48
23795,-2.63,-1.5251,12.4762,1477,2884.48
23800,-4.3993,1.6676,9.3111,1491,2884.48
23805,1.4042,3.3483,9.8749,1511,2884.48
23810,2.5618,2.46,11.4503,1487,2884.48
23815,-2.0111,-1.1277,12.572,1477,2884.48
23820,-4.9464,1.1744,9.912,1495,2884.48
23825,0.8559,3.2561,9.4547,1512,2884.2
23830,2.982,3.1496,11.0804,1485,2884.2
23835,-1.5299,-0.5112,12.6282,1482,2884.2
23840,-4.9859,0.4621,10.4651,1482,2884.2
23845,0.1018,2.9832,9.0609,1513,2884.2
23850,2.9125,3.553,10.811,1485,2884.2
23855,-1.3408,0.0994,12.4702,1481,2884.2
23860,-4.8339,-0.2777,11.0732,1483,2884.2
23865,-0.8607,2.7665,8.8083,1541,2884.34
23870,2.5187,3.7876,10.556,1485,2884.34
23875,-1.148,0.6668,12.3289,1485,2884.34
23880,-4.2796,-0.9409,11.6801,1481,2884.34
23885,-2.0602,2.4457,8.7783,1543,2884.2
23890,2.15,3.8451,10.3872,1486,2884.2
23895,-0.2227,1.1444,12.1266,1481,2884.2
23900,-3.6308,-1.3731,12.0871,1481,2884.2
23905,-3.2094,2.1835,8.8669,1554,2884.06
23910,1.962,3.7757,10.1861,1493,2884.06
23915,1.1085,1.6688,11.8381,1483,2884.06
23920,-2.8084,-1.494,12.4187,1487,2884.06
23925,-4.2198,1.8148,9.1614,1545,2883.78
23930,1.5826,3.4656,9.9647,1483,2883.78
23935,2.3367,2.2805,11.552,1481,2883.78
23940,-1.9992,-1.2881,12.5732,1480,2883.78
23945,-4.8339,1.2546,9.6929,1497,2883.78
23950,0.9493,3.2178,9.5002,1518,2883.51
23955,2.9808,2.982,11.2204,1485,2883.51
23960,-1.6735,-0.7554,12.6222,1487,2883.51
23965,-5.0566,0.6321,10.3453,1481,2883.51
23970,0.2765,3.0227,9.165,1510,2883.09
23975,2.9137,3.4512,10.8876,1487,2883.09
23980,-1.4042,-0.0263,12.5205,1479,2883.09
23985,-4.8985,-0.0467,11.0157,1483,2883.09
23990,-0.6261,2.8216,8.9435,1515,2883.09
23995,2.6324,3.8259,10.6446,1485,2883.09
24000,-1.2318,0.5076,12.287,1482,2883.09
24005,-4.367,-0.735,11.5185,1481,2883.09
24010,-1.7214,2.5163,8.673,1543,2883.37
24015,2.2589,3.8331,10.4339,1483,2883.37
24020,-0.3879,1.0092,12.0847,1477,2883.37
24025,-3.7146,-1.33,11.9961,1479,2883.37
24030,-2.9425,2.2146,8.7736,1543,2883.37
24035,1.8914,3.6978,10.2292,1481,2883.37
24040,0.7853,1.5419,11.9255,1480,2883.37
24045,-2.9556,-1.5945,12.384,1485,2883.37
24050,-4.0259,1.8699,9.0716,1523,2883.37
24055,1.5706,3.4728,9.991,1477,2883.37
24060,2.0913,2.1835,11.6646,1483,2883.37
24065,-2.2924,-1.3539,12.5516,1478,2883.37
24070,-4.7513,1.4688,9.5768,1493,2883.37
24075,1.2198,3.3291,9.7097,1499,2883.51
24080,2.9305,2.8443,11.3078,1477,2883.51
24085,-1.6592,-0.8212,12.5827,1479,2883.51
24090,-5.0314,0.7721,10.1574,1481,2883.51
24095,0.4633,3.037,9.2668,1507,2883.37
24100,2.9808,3.3136,10.9583,1491,2883.37
24105,-1.3898,-0.2047,12.4774,1479,2883.37
24110,-4.9153,0.0407,10.8242,1481,2883.37
24115,-0.4932,2.8084,8.9328,1513,2883.37
24120,2.66,3.6811,10.6805,1485,2883.37
24125,-1.2306,0.401,12.3996,1479,2883.37
24130,-4.628,-0.6237,11.4144,1485,2883.37
24135,-1.5359,2.6013,8.8131,1541,2883.37
24140,2.3308,3.8642,10.4806,1481,2883.37
24145,-0.7195,0.9649,12.1841,1480,2883.37
24150,-3.9193,-1.1432,11.9207,1480,2883.37
24155,-2.6624,2.3284,8.8346,1543,2883.09
24160,2.0387,3.8176,10.2173,1481,2883.09
24165,0.486,1.4269,11.88,1477,2883.09
24170,-3.0897,-1.506,12.2858,1487,2883.09
24175,-3.7781,1.9297,9.086,1529,2882.12
24180,1.6616,3.5303,10.0545,1472,2882.12
24185,1.8986,2.0183,11.6562,1485,2882.12
24190,-2.3786,-1.4724,12.4594,1471,2882.12
24195,-4.6448,1.4796,9.4463,1479,2882.12
24200,1.2737,3.3243,9.7384,1491,2881.98
24205,2.7653,2.7581,11.3928,1471,2881.98
24210,-1.8292,-1.0439,12.6378,1449,2881.98
24215,-5.0003,0.9182,10.0987,1469,2881.98
24220,0.6404,3.0945,9.3494,1496,2881.57
24225,2.9748,3.3124,11.0205,1479,2881.57
24230,-1.4712,-0.2274,12.5564,1477,2881.57
24235,-5.0338,0.31,10.7296,1477,2881.57
24240,-0.1676,2.9497,9.0537,1511,2881.15
24245,2.7821,3.7481,10.7188,1480,2881.15
24250,-1.3779,0.3424,12.3768,1469,2881.15
24255,-4.5418,-0.4812,11.3018,1481,2881.15
24260,-1.3216,2.6037,8.7628,1530,2881.15
24265,2.3475,3.814,10.5417,1477,2881.15
24270,-0.7841,0.8045,12.1865,1479,2881.15
24275,-3.9409,-1.1193,11.8513,1481,2881.15
24280,-2.5474,2.375,8.7676,1528,2881.43
24285,1.9656,3.7888,10.3848,1477,2881.43
24290,0.3304,1.3946,11.9519,1472,2881.43
24295,-3.3148,-1.482,12.2739,1487,2881.43
24300,-3.7194,2.0698,9.0249,1543,2881.43
24305,1.7681,3.6069,10.1167,1471,2881.43
24310,1.7466,1.9597,11.661,1491,2881.43
24315,-2.4553,-1.3862,12.4762,1477,2881.43
24320,-4.5226,1.6065,9.487,1481,2881.43
24325,1.3563,3.3986,9.8174,1497,2881.29
24330,2.7438,2.6073,11.3342,1481,2881.29
24335,-1.7358,-1.0558,12.5791,1477,2881.29
24340,-4.944,0.9816,9.9802,1483,2881.29
24345,0.674,3.1196,9.396,1501,2881.71
24350,2.9736,3.1843,11.0911,1479,2881.71
24355,-1.4557,-0.3879,12.5971,1471,2881.71
24360,-4.9859,0.261,10.6722,1479,2881.71
24365,-0.1772,2.9125,9.0621,1512,2881.29
24370,2.7258,3.6464,10.7308,1482,2881.29
24375,-1.4521,0.2729,12.4702,1469,2881.29
24380,-4.6184,-0.3747,11.3306,1487,2881.29
24385,-1.2246,2.6863,8.8119,1553,2881.43
24390,2.3966,3.8846,10.5141,1479,2881.43
24395,-0.9074,0.8332,12.2619,1480,2881.43
24400,-4.0642,-1.0068,11.7843,1477,2881.43
24405,-2.3308,2.4038,8.7628,1531,2881.43
24410,2.0913,3.8056,10.3011,1471,2881.43
24415,0.1496,1.2893,11.9315,1477,2881.43
24420,-3.1843,-1.4485,12.1901,1483,2881.43
24425,-3.5075,2.0039,8.9842,1499,2881.15
24430,1.7059,3.5733,10.1011,1465,2881.15
24435,1.5814,1.8579,11.7208,1487,2881.15
24440,-2.5139,-1.5335,12.463,1476,2881.15
24445,-4.4951,1.5886,9.3984,1483,2881.15
24450,1.342,3.3016,9.8234,1493,2881.15
24455,2.6217,2.5642,11.4275,1479,2881.15
24460,-1.9345,-1.0654,12.5576,1467,2881.15
24465,-4.9201,1.0798,9.9754,1481,2881.15
24470,0.7458,3.2226,9.4427,1495,2881.57
24475,2.9784,3.2082,11.1031,1468,2881.57
24480,-1.5263,-0.4393,12.4894,1464,2881.57
24485,-4.9907,0.3962,10.562,1469,2881.57
24490,-0.0287,2.9353,9.0872,1501,2881.57
24495,2.824,3.5877,10.7631,1469,2881.57
24500,-1.2737,0.2035,12.4666,1466,2881.57
24505,-4.7238,-0.3711,11.2049,1484,2881.57
24510,-1.0104,2.7246,8.837,1519,2881.71
24515,2.4026,3.7649,10.5656,1469,2881.71
24520,-1.0319,0.6632,12.2535,1478,2881.71
24525,-4.0606,-1.0199,11.7424,1471,2881.71
24530,-2.2709,2.4732,8.7927,1526,2881.71
24535,2.0375,3.8211,10.3777,1468,2881.71
24540,0.0395,1.2486,12.0572,1477,2881.71
24545,-3.456,-1.4473,12.2092,1483,2881.71
24550,-3.4429,2.1644,8.9172,1520,2881.98
24555,1.8783,3.6607,10.1538,1469,2881.98
24560,1.4126,1.8124,11.7424,1486,2881.98
24565,-2.5522,-1.4629,12.4834,1469,2881.98
24570,-4.3167,1.6795,9.3661,1471,2881.98
24575,1.3886,3.3842,9.8294,1497,2882.12
24580,2.5977,2.4157,11.4515,1481,2882.12
24585,-1.8399,-1.2246,12.5684,1469,2882.12
24590,-4.8854,1.0858,9.8055,1483,2882.12
24595,0.808,3.1627,9.5014,1493,2882.12
24600,3.0023,3.0742,11.1414,1478,2882.12
24605,-1.5862,-0.6273,12.6378,1465,2882.12
24610,-5.0721,0.4573,10.4926,1477,2882.12
24615,0.0778,3.0071,9.1171,1507,2882.12
24620,2.7916,3.5925,10.7943,1479,2882.12
24625,-1.4162,0.1832,12.4726,1463,2882.12
24630,-4.804,-0.2227,11.1582,1483,2882.12
24635,-0.8356,2.7761,8.8538,1527,2882.26
24640,2.5654,3.869,10.5967,1477,2882.26
24645,-1.1672,0.662,12.2918,1479,2882.26
24650,-4.1456,-0.8571,11.6466,1472,2882.26
24655,-2.0446,2.4349,8.7472,1519,2882.26
24660,2.156,3.7996,10.3346,1479,2882.26
24665,-0.0994,1.154,12.0512,1471,2882.26
24670,-3.5338,-1.4449,12.0919,1478,2882.26
24675,-3.2322,2.156,8.8741,1525,2882.4
24680,1.8112,3.5913,10.1658,1478,2882.4
24685,1.1959,1.6927,11.8537,1479,2882.4
24690,-2.8252,-1.5766,12.4319,1467,2882.4
24695,-4.3215,1.7226,9.2392,1471,2882.4
24700,1.494,3.4213,9.9707,1499,2882.54
24705,2.3786,2.3691,11.5221,1480,2882.54
24710,-2.1201,-1.2055,12.5336,1471,2882.54
24715,-4.8985,1.3072,9.7959,1483,2882.54
24720,0.9828,3.2693,9.578,1497,2882.68
24725,2.9808,3.0107,11.1869,1471,2882.68
24730,-1.5646,-0.6428,12.5552,1467,2882.68
24735,-4.9704,0.565,10.3645,1478,2882.68
24740,0.2095,2.976,9.1087,1506,2882.68
24745,2.9497,3.4417,10.8386,1471,2882.68
24750,-1.3551,-0.0048,12.4858,1468,2882.68
24755,-4.8076,-0.1688,11.0421,1477,2882.68
24760,-0.6979,2.739,8.8992,1520,2882.68
24765,2.5199,3.7984,10.5668,1471,2882.68
24770,-1.2019,0.5543,12.2894,1479,2882.68
24775,-4.3287,-0.8236,11.5808,1471,2882.68
24780,-1.8854,2.5319,8.7724,1520,2882.81
24785,2.1715,3.8954,10.4627,1480,2882.81
24790,-0.4262,1.0582,12.1949,1467,2882.81
24795,-3.632,-1.2785,12.1242,1471,2882.81
24800,-3.0502,2.2769,8.7987,1527,2882.81
24805,1.9297,3.7852,10.2113,1470,2882.81
24810,0.9876,1.5981,11.8262,1477,2882.81
24815,-2.8898,-1.5287,12.3637,1469,2882.81
24820,-4.0773,1.816,9.1351,1480,2882.68
24825,1.6209,3.4572,10.0185,1471,2882.68
24830,2.235,2.1727,11.5113,1483,2882.68
24835,-2.1907,-1.421,12.5444,1468,2882.68
24840,-4.8207,1.2953,9.5792,1487,2882.68
24845,1.1217,3.2645,9.6331,1497,2883.09
24850,2.8958,2.8982,11.2025,1471,2883.09
24855,-1.6652,-0.808,12.645,1471,2883.09
24860,-5.108,0.7254,10.2508,1479,2883.09
24865,0.4298,3.0718,9.2727,1500,2882.68
24870,2.9712,3.4381,10.884,1478,2882.68
24875,-1.5155,-0.067,12.4941,1468,2882.68
24880,-4.8842,0.1233,10.9427,1469,2882.68
24885,-0.492,2.8838,8.9304,1516,2882.81
24890,2.6612,3.7661,10.6171,1478,2882.81
24895,-1.2115,0.5112,12.3768,1479,2882.81
24900,-4.3922,-0.6931,11.491,1469,2882.81
24905,-1.6352,2.5678,8.7364,1524,2882.54
24910,2.2625,3.8056,10.4327,1469,2882.54
24915,-0.5674,0.9517,12.1374,1469,2882.54
24920,-3.7864,-1.2653,11.9686,1471,2882.54
24925,-2.8718,2.2853,8.7819,1529,2882.54
24930,1.895,3.699,10.2592,1480,2882.54
24935,0.7075,1.4617,11.9878,1471,2882.54
24940,-3.0598,-1.5191,12.3553,1471,2882.54
24945,-3.9588,1.9704,9.1387,1531,2882.26
24950,1.6041,3.5446,10.0149,1471,2882.26
24955,2.0183,2.1033,11.661,1469,2882.26
24960,-2.2709,-1.3156,12.536,1468,2882.26
24965,-4.6795,1.4617,9.5924,1485,2882.26
24970,1.172,3.3495,9.6271,1496,2881.98
24975,2.8671,2.7653,11.3126,1469,2881.98
24980,-1.6867,-0.8906,12.5827,1479,2881.98
24985,-5.0266,0.7973,10.1347,1476,2881.98
24990,0.5303,3.0275,9.2871,1495,2881.29
24995,2.958,3.3279,10.993,1480,2881.29
25000,-1.4976,-0.2634,12.5887,1470,2881.29
25005,-4.8746,0.0599,10.835,1471,2881.29
25010,-0.3867,2.8455,8.9232,1495,2880.88
25015,2.5845,3.7206,10.6877,1479,2880.88
25020,-1.3348,0.4166,12.3888,1477,2880.88
25025,-4.5179,-0.5854,11.4227,1467,2880.88
25030,-1.5479,2.6264,8.7855,1542,2880.88
25035,2.2901,3.9097,10.5644,1480,2880.88
25040,-0.6716,0.929,12.1697,1468,2880.88
25045,-3.8966,-1.1516,11.8884,1471,2880.88
25050,-2.6755,2.3284,8.7915,1499,2880.74
25055,2.0279,3.8092,10.2975,1479,2880.74
25060,0.504,1.3886,11.8693,1479,2880.74
25065,-3.0155,-1.5215,12.2811,1481,2880.74
25070,-3.8128,1.9357,9.0166,1513,2880.74
25075,1.6568,3.5171,10.0485,1468,2880.74
25080,1.9345,2.0255,11.6777,1469,2880.74
25085,-2.3619,-1.5131,12.5205,1469,2880.74
25090,-4.6424,1.4461,9.4128,1487,2880.74
25095,1.2486,3.286,9.7193,1495,2880.74
25100,2.794,2.7318,11.3342,1465,2880.74
25105,-1.8124,-0.9529,12.621,1480,2880.74
25110,-5.0326,0.9385,10.1179,1477,2880.74
25115,0.6009,3.1711,9.3541,1498,2880.88
25120,3.0155,3.3291,10.9523,1483,2880.88
25125,-1.5107,-0.2837,12.5839,1471,2880.88
25130,-4.9344,0.2263,10.75,1471,2880.88
25135,-0.249,2.9054,8.9639,1499,2881.15
25140,2.7617,3.7038,10.6829,1479,2881.15
25145,-1.2234,0.3771,12.402,1465,2881.15
25150,-4.6005,-0.565,11.3952,1469,2881.15
25155,-1.3204,2.6504,8.7472,1524,2881.29
25160,2.3487,3.8211,10.4567,1479,2881.29
25165,-0.8715,0.8416,12.147,1469,2881.29
25170,-3.9085,-1.1875,11.8609,1471,2881.29
25175,-2.6025,2.3164,8.7245,1503,2881.15
25180,1.998,3.7709,10.2915,1479,2881.15
25185,0.4058,1.3515,12.0213,1470,2881.15
25190,-3.1699,-1.4784,12.2823,1481,2881.15
25195,-3.7182,2.0039,9.0046,1525,2880.46
25200,1.6616,3.6356,10.0497,1472,2880.46
25205,1.816,1.998,11.6813,1481,2880.46
25210,-2.3643,-1.3671,12.457,1477,2880.46
25215,-4.5909,1.5179,9.4212,1486,2880.46
25220,1.233,3.3363,9.7552,1495,2882.12
25225,2.7797,2.5989,11.3377,1477,2882.12
25230,-1.6915,-1.0343,12.6007,1481,2882.12
25235,-4.9919,0.8978,10.0353,1470,2882.12
25240,0.5974,3.0993,9.4176,1497,2881.57
25245,2.964,3.2226,10.9978,1485,2881.57
25250,-1.4545,-0.3759,12.5863,1477,2881.57
25255,-5.0554,0.2741,10.6877,1478,2881.57
25260,-0.2107,2.8599,9.0609,1501,2881.71
25265,2.7366,3.6787,10.6925,1479,2881.71
25270,-1.3563,0.322,12.4151,1469,2881.71
25275,-4.7154,-0.3962,11.3174,1470,2881.71
25280,-1.2127,2.7019,8.7963,1527,2881.84
25285,2.4337,3.8858,10.5285,1479,2881.84
25290,-0.9026,0.8356,12.2272,1471,2881.84
25295,-3.9863,-1.0523,11.8345,1469,2881.84
25300,-2.4026,2.3643,8.7412,1517,2881.84
25305,2.0818,3.7733,10.3406,1481,2881.84
25310,0.2622,1.2809,11.9195,1470,2881.84
25315,-3.3519,-1.5167,12.2176,1483,2881.84
25320,-3.6021,2.0159,8.9388,1510,2881.57
25325,1.7645,3.5554,10.1478,1470,2881.57
25330,1.5897,1.8842,11.7555,1481,2881.57
25335,-2.4732,-1.47,12.5025,1477,2881.57
25340,-4.4939,1.5598,9.4236,1485,2881.57
25345,1.2641,3.3184,9.7899,1497,2881.43
25350,2.6719,2.5486,11.4179,1477,2881.43
25355,-1.883,-1.0403,12.6306,1471,2881.43
25360,-5.0661,1.0558,9.979,1479,2881.43
25365,0.808,3.1927,9.426,1499,2881.43
25370,3.0514,3.2154,11.0456,1485,2881.43
25375,-1.5263,-0.4369,12.572,1472,2881.43
25380,-5.0099,0.3472,10.6099,1471,2881.43
25385,0.0168,2.9269,9.0345,1523,2881.43
25390,2.7773,3.626,10.7176,1481,2881.43
25395,-1.4042,0.2251,12.451,1467,2881.43
25400,-4.616,-0.4465,11.1977,1479,2881.43
25405,-1.0834,2.7078,8.7771,1529,2881.29
25410,2.3703,3.8068,10.5117,1471,2881.29
25415,-0.8894,0.741,12.2607,1466,2881.29
25420,-4.1599,-1.0858,11.74,1471,2881.29
25425,-2.2805,2.4445,8.7185,1529,2881.43
25430,2.0853,3.8415,10.3453,1481,2881.43
25435,-0.0048,1.2151,12.0057,1476,2881.43
25440,-3.3339,-1.4054,12.1817,1486,2881.43
25445,-3.4536,2.1332,8.8885,1529,2881.29
25450,1.719,3.6919,10.1394,1469,2881.29
25455,1.4617,1.8196,11.7579,1483,2881.29
25460,-2.563,-1.5036,12.4894,1471,2881.29
25465,-4.4245,1.6723,9.2835,1481,2881.29
25470,1.4712,3.4034,9.8234,1491,2881.43
25475,2.6205,2.4828,11.4455,1477,2881.43
25480,-1.8495,-1.154,12.5839,1471,2881.43
25485,-4.8949,1.0894,9.8988,1471,2881.43
25490,0.7649,3.146,9.4679,1499,2881.71
25495,2.9173,3.1089,11.0864,1483,2881.71
25500,-1.4772,-0.5219,12.615,1477,2881.71
25505,-5.1308,0.4525,10.5261,1471,2881.71
25510,0.0658,2.9868,9.1674,1507,2881.84
25515,2.8647,3.6164,10.7931,1479,2881.84
25520,-1.3934,0.1472,12.5205,1465,2881.84
25525,-4.7896,-0.2227,11.145,1479,2881.84
25530,-0.8859,2.7378,8.8023,1527,2881.84
25535,2.4948,3.8295,10.5333,1471,2881.84
25540,-1.1133,0.7087,12.2966,1469,2881.84
25545,-4.051,-0.9134,11.6921,1471,2881.84
25550,-2.1081,2.4445,8.7592,1525,2881.57
25555,2.0997,3.7757,10.3741,1480,2881.57
25560,-0.0419,1.1815,12.05,1470,2881.57
25565,-3.456,-1.4174,12.1135,1485,2881.57
25570,-3.3471,2.1081,8.8334,1523,2881.15
25575,1.7645,3.6117,10.1778,1467,2881.15
25580,1.2965,1.7298,11.8022,1484,2881.15
25585,-2.6659,-1.5407,12.4319,1477,2881.15
25590,-4.3323,1.7154,9.2668,1477,2881.15
25595,1.4377,3.4034,9.906,1493,2881.98
25600,2.4481,2.4265,11.5053,1480,2881.98
25605,-2.0051,-1.172,12.6222,1470,2881.98
25610,-4.8961,1.1875,9.839,1470,2881.98
25615,0.8607,3.2669,9.5517,1497,2881.71
25620,2.9293,3.0837,11.1342,1479,2881.71
25625,-1.4988,-0.589,12.5875,1469,2881.71
25630,-5.0853,0.5171,10.3418,1471,2881.71
25635,0.2047,2.9616,9.1075,1513,2881.43
25640,2.8659,3.5111,10.7943,1477,2881.43
25645,-1.4174,0.0359,12.4546,1469,2881.43
25650,-4.8171,-0.2394,11.0732,1483,2881.43
25655,-0.8978,2.7521,8.9316,1527,2881.43
25660,2.4636,3.7876,10.5429,1467,2881.43
25665,-1.0511,0.6129,12.2655,1479,2881.43
25670,-4.3467,-0.9397,11.6119,1469,2881.43
25675,-1.9992,2.4876,8.8011,1529,2881.57
25680,2.1823,3.9073,10.4232,1477,2881.57
25685,-0.2514,1.1504,12.0392,1478,2881.57
25690,-3.5075,-1.2833,12.1853,1483,2881.57
25695,-3.1771,2.1799,8.8669,1525,2881.57
25700,1.8675,3.7505,10.1682,1471,2881.57
25705,1.1492,1.6556,11.7843,1491,2881.57
25710,-2.6671,-1.5167,12.4546,1477,2881.57
25715,-4.2066,1.7549,9.2213,1480,2881.57
25720,1.4664,3.4441,9.8845,1500,2881.57
25725,2.387,2.2649,11.5592,1480,2881.57
25730,-2.0602,-1.3204,12.542,1477,2881.57
25735,-4.9045,1.2605,9.6714,1479,2881.57
25740,0.9852,3.2058,9.5397,1503,2881.57
25745,2.9209,2.9796,11.1977,1479,2881.57
25750,-1.64,-0.6967,12.6091,1466,2881.57
25755,-4.9835,0.6309,10.3848,1477,2881.57
25760,0.2885,3.0502,9.2021,1512,2881.57
25765,2.8551,3.5674,10.9152,1483,2881.57
25770,-1.3743,0.0335,12.5696,1471,2881.57
25775,-4.8363,-0.0108,10.9595,1485,2881.57
25780,-0.6045,2.7952,8.8442,1531,2881.57
25785,2.642,3.8128,10.586,1477,2881.57
25790,-1.1732,0.5602,12.2978,1479,2881.57
25795,-4.2653,-0.7853,11.5604,1477,2881.57
25800,-1.822,2.5307,8.7305,1527,2881.57
25805,2.1488,3.8008,10.392,1477,2881.57
25810,1.2833,1.6688,11.7819,1479,2881.57
25815,-2.7366,-1.5562,12.408,1485,2881.57
25820,-4.3539,1.7514,9.2943,1503,2881.29
25825,1.488,3.4201,9.9431,1471,2881.29
25830,2.4445,2.4157,11.5197,1491,2881.29
25835,-2.0662,-1.1648,12.6294,1494,2881.29
25840,-4.9189,1.2091,9.809,1477,2881.29
25845,0.9565,3.2298,9.5457,1498,2882.12
25850,2.9485,3.0634,11.0947,1481,2882.12
25855,-1.5646,-0.5686,12.5755,1469,2882.12
25860,-4.9572,0.5195,10.4184,1485,2882.12
25865,0.1173,2.9568,9.183,1507,2881.98
25870,2.8371,3.486,10.8469,1477,2881.98
25875,-1.2917,0.0144,12.4917,1466,2881.98
25880,-4.8854,-0.2562,11.0445,1477,2881.98
25885,-0.7745,2.7414,8.8573,1511,2882.12
25890,2.5319,3.796,10.5836,1482,2882.12
25895,-1.2043,0.6117,12.3242,1467,2882.12
25900,-4.2904,-0.8152,11.7064,1484,2882.12
25905,-1.9944,2.5211,8.7831,1509,2882.12
25910,2.1512,3.9169,10.392,1479,2882.12
25915,-0.2717,1.1492,12.0835,1481,2882.12
25920,-3.6332,-1.3587,12.0847,1477,2882.12
25925,-3.14,2.1955,8.8298,1531,2882.4
25930,1.8998,3.7577,10.2627,1479,2882.4
25935,1.087,1.6472,11.8597,1477,2882.4
25940,-2.7342,-1.4808,12.4331,1481,2882.4
25945,-4.1731,1.7657,9.1291,1508,2882.54
25950,1.4928,3.4213,9.894,1471,2882.54
25955,2.3631,2.2398,11.5412,1483,2882.54
25960,-2.0806,-1.3431,12.572,1471,2882.54
25965,-4.8423,1.2905,9.7169,1479,2882.54
25970,0.9864,3.2214,9.6031,1499,2882.26
25975,2.9113,2.9377,11.2647,1483,2882.26
25980,-1.6209,-0.7422,12.6139,1469,2882.26
25985,-5.1344,0.6835,10.3238,1485,2882.26
25990,0.3807,3.0682,9.1985,1499,2882.12
25995,2.9353,3.5267,10.8565,1479,2882.12
26000,-1.5299,-0.0192,12.5612,1468,2882.12
26005,-4.7848,0.0096,10.9822,1481,2882.12
26010,-0.6548,2.8371,8.8705,1512,2881.98
26015,2.6037,3.8008,10.6338,1477,2881.98
26020,-1.0523,0.5219,12.3708,1465,2881.98
26025,-4.3886,-0.7973,11.5233,1485,2881.98
26030,-1.7394,2.5498,8.6981,1527,2882.12
26035,2.2422,3.802,10.4675,1477,2882.12
26040,-0.3472,0.9661,12.0488,1483,2882.12
26045,-3.7218,-1.3408,12.0273,1478,2882.12
26050,-2.9592,2.2338,8.8621,1517,2882.26
26055,1.8806,3.7002,10.2568,1455,2882.26
26060,0.8068,1.5239,11.898,1478,2882.26
26065,-2.8982,-1.5048,12.378,1479,2882.26
26070,-4.0606,1.889,9.1255,1530,2882.26
26075,1.5634,3.5123,9.9599,1471,2882.26
26080,2.1787,2.1751,11.625,1479,2882.26
26085,-2.1907,-1.3324,12.6366,1471,2882.26
26090,-4.7692,1.4018,9.6367,1481,2882.26
26095,1.166,3.2848,9.596,1503,2882.26
26100,2.9209,2.8012,11.2312,1483,2882.26
26105,-1.5886,-0.8248,12.5432,1477,2882.26
26110,-4.9704,0.735,10.1742,1490,2882.26
26115,0.3412,2.9975,9.1806,1503,2881.98
26120,2.9257,3.3507,10.8816,1480,2881.98
26125,-1.3551,-0.1975,12.5145,1478,2881.98
26130,-4.9261,0.0204,10.8733,1481,2881.98
26135,-0.4776,2.8012,8.9687,1500,2881.84
26140,2.6276,3.7505,10.6578,1481,2881.84
26145,-1.2522,0.4393,12.3876,1477,2881.84
26150,-4.4927,-0.5866,11.491,1478,2881.84
26155,-1.5933,2.6276,8.8107,1531,2882.12
26160,2.2541,3.8906,10.4064,1476,2882.12
26165,-0.5782,1.0271,12.1985,1482,2882.12
26170,-3.881,-1.1863,11.9279,1481,2882.12
26175,-2.7414,2.3008,8.7879,1529,2882.26
26180,1.9776,3.7338,10.2568,1485,2882.26
26185,0.6488,1.4281,11.9435,1480,2882.26
26190,-3.061,-1.5886,12.3301,1481,2882.26
26195,-3.8487,1.8771,9.0249,1545,2882.26
26200,1.6712,3.4632,10.0078,1480,2882.26
26205,1.968,2.0506,11.6179,1481,2882.26
26210,-2.3188,-1.4353,12.5372,1481,2882.26
26215,-4.6855,1.4593,9.4966,1491,2882.26
26220,1.2294,3.2872,9.7408,1479,2882.26
26225,2.7557,2.7952,11.3126,1485,2882.26
26230,-1.7023,-0.9218,12.6438,1469,2882.26
26235,-5.0637,0.8787,10.1347,1491,2882.26
26240,0.5339,3.1591,9.3146,1509,2882.26
26245,2.9844,3.3567,10.9259,1481,2882.26
26250,-1.4114,-0.1951,12.6115,1480,2882.26
26255,-4.9368,0.2346,10.7643,1481,2882.26
26260,-0.2933,2.9137,8.9615,1507,2882.26
26265,2.7366,3.6966,10.6207,1483,2882.26
26270,-1.1684,0.3328,12.402,1479,2882.26
26275,-4.622,-0.5746,11.3737,1483,2882.26
26280,-1.3946,2.6145,8.7305,1525,2882.12
26285,2.3643,3.7888,10.4734,1483,2882.12
26290,-0.759,0.844,12.208,1485,2882.12
26295,-3.9624,-1.1301,11.9387,1465,2882.12
26300,-2.5929,2.3499,8.752,1534,2882.12
26305,1.9561,3.8128,10.2891,1486,2882.12
26310,0.3639,1.3767,11.9638,1481,2882.12
26315,-3.1615,-1.4521,12.311,1484,2882.12
26320,-3.7613,2.0303,9.0214,1549,2882.12
26325,1.7119,3.6547,10.0353,1485,2882.12
26330,1.8124,1.9824,11.7088,1486,2882.12
26335,-2.4205,-1.4114,12.554,1484,2882.12
26340,-4.6148,1.5706,9.4092,1520,2881.84
26345,1.3288,3.3399,9.7205,1481,2881.84
26350,2.7569,2.63,11.3198,1481,2881.84
26355,-1.7777,-1.0618,12.6031,1480,2881.84
26360,-5.0051,0.9182,10.0329,1497,2881.84
26365,0.6081,3.122,9.3625,1499,2881.71
26370,2.9461,3.2406,11.0828,1483,2881.71
26375,-1.5203,-0.3938,12.6186,1485,2881.71
26380,-4.9799,0.2885,10.744,1481,2881.71
26385,-0.2179,2.9113,9.0381,1513,2881.57
26390,2.6815,3.7242,10.7404,1492,2881.57
26395,-1.3982,0.261,12.4403,1483,2881.57
26400,-4.5741,-0.3735,11.2863,1481,2881.57
26405,-1.2617,2.7162,8.7867,1508,2881.57
26410,2.3774,3.9169,10.5165,1489,2881.57
26415,-0.7386,0.8607,12.1889,1481,2881.57
26420,-4.0414,-1.0235,11.8178,1481,2881.57
26425,-2.4038,2.3822,8.7688,1543,2881.57
26430,2.1237,3.7373,10.3011,1491,2881.57
26435,0.2873,1.2701,11.9566,1483,2881.57
26440,-3.2465,-1.5119,12.2104,1483,2881.57
26445,-3.5877,1.9908,8.9627,1511,2881.71
26450,1.6652,3.5458,10.1239,1487,2881.71
26455,1.6269,1.8579,11.7172,1483,2881.71
26460,-2.5139,-1.4844,12.5372,1487,2881.71
26465,-4.5143,1.6233,9.3925,1543,2881.84
26470,1.3096,3.4105,9.8114,1480,2881.84
26475,2.6205,2.6145,11.4024,1484,2881.84
26480,-1.8986,-1.0139,12.6737,1479,2881.84
26485,-4.9656,1.081,10.0185,1495,2881.84
26490,0.7482,3.1735,9.3948,1507,2881.71
26495,2.9616,3.2106,11.0157,1485,2881.71
26500,-1.4856,-0.4046,12.6186,1491,2881.71
26505,-5.0027,0.3639,10.556,1483,2881.71
26510,-0.0275,2.9353,9.0812,1513,2881.57
26515,2.8204,3.5757,10.744,1491,2881.57
26520,-1.2402,0.1664,12.475,1483,2881.57
26525,-4.7381,-0.4178,11.1342,1484,2881.57
26530,-1.0965,2.6875,8.7712,1513,2881.43
26535,2.4265,3.8307,10.5201,1491,2881.43
26540,-0.9661,0.7386,12.299,1483,2881.43
26545,-4.1037,-1.0104,11.8154,1481,2881.43
26550,-2.2637,2.4289,8.7891,1535,2881.15
26555,2.0399,3.8738,10.3394,1485,2881.15
26560,0.0311,1.2366,12.0069,1483,2881.15
26565,-3.316,-1.3767,12.2224,1481,2881.15
26570,-3.4034,2.0961,8.8981,1549,2880.74
26575,1.8088,3.6883,10.1203,1486,2880.74
26580,1.5107,1.8423,11.7436,1483,2880.74
26585,-2.4792,-1.5024,12.475,1493,2880.74
26590,-4.4125,1.6544,9.3087,1558,2880.88
26595,1.3695,3.3315,9.8378,1487,2880.88
26600,2.6037,2.466,11.4395,1491,2880.88
26605,-1.883,-1.1899,12.5875,1483,2880.88
26610,-4.9787,1.0714,9.8414,1497,2880.88
26615,0.8763,3.1508,9.4739,1513,2881.01
26620,2.9449,3.1424,11.0959,1485,2881.01
26625,-1.5622,-0.5375,12.5696,1490,2881.01
26630,-5.0362,0.486,10.5285,1482,2881.01
26635,0.0359,3.0023,9.1243,1512,2881.01
26640,2.8431,3.6667,10.7392,1493,2881.01
26645,-1.3934,0.1772,12.408,1484,2881.01
26650,-4.689,-0.2478,11.163,1483,2881.01
26655,-0.9649,2.7725,8.8382,1517,2880.74
26660,2.49,3.8618,10.5572,1489,2880.74
26665,-0.9421,0.68,12.2739,1481,2880.74
26670,-4.1228,-0.9613,11.6657,1481,2880.74
26675,-2.1272,2.4325,8.7173,1534,2881.01
26680,2.0961,3.7912,10.3262,1479,2881.01
26685,0.0,1.1791,11.9902,1480,2881.01
26690,-3.4572,-1.4581,12.1865,1483,2881.01
26695,-3.3615,2.083,8.9483,1543,2881.15
26700,1.7238,3.614,10.1945,1490,2881.15
26705,1.342,1.7789,11.8058,1485,2881.15
26710,-2.6707,-1.494,12.4415,1492,2881.15
26715,-4.3622,1.7238,9.2751,1527,2881.71
26720,1.3563,3.4536,9.9084,1483,2881.71
26725,2.4469,2.4553,11.4802,1490,2881.71
26730,-1.9417,-1.1277,12.6581,1481,2881.71
26735,-4.8842,1.1756,9.8102,1496,2881.71
26740,0.8643,3.2106,9.5205,1510,2881.71
26745,3.0119,3.0574,11.072,1487,2881.71
26750,-1.4629,-0.6189,12.6366,1485,2881.71
26755,-5.0745,0.4621,10.3525,1483,2881.71
26760,0.1018,2.9461,9.1339,1513,2881.84
26765,2.8742,3.5374,10.7715,1493,2881.84
26770,-1.3503,0.0682,12.5205,1484,2881.84
