timestamp_ms,ax,ay,az,acs_adc,rpm
13979,-5.2122,1.1337,9.9072,1487,2906.7
13984,0.8416,3.1975,9.3003,1500,2907.54
13989,3.1855,3.0789,11.1079,1479,2907.54
13994,-1.4126,-0.6177,12.7467,1469,2907.54
13999,-5.2601,0.5555,10.4124,1477,2907.54
14004,0.1448,3.0119,8.9962,1508,2907.96
14009,3.0239,3.4919,10.8302,1479,2907.96
14014,-1.1277,-0.1592,12.6617,1467,2907.96
14019,-5.1775,-0.0012,10.9463,1477,2907.96
14024,-0.6285,2.806,8.8538,1519,2908.24
14029,2.7282,3.7577,10.7129,1479,2908.24
14034,-0.9002,0.3795,12.481,1471,2908.24
14039,-4.8315,-0.5435,11.4108,1480,2908.24
14044,-1.4796,2.6109,8.6251,1500,2909.37
14049,2.4469,3.8906,10.4902,1483,2909.37
14054,-0.4549,0.7793,12.2835,1471,2909.37
14059,-4.3383,-1.0965,11.9243,1469,2909.37
14064,-2.4361,2.4361,8.5736,1533,2909.66
14069,2.1608,3.8259,10.2699,1479,2909.66
14074,0.3388,1.1444,12.0428,1477,2909.66
14079,-3.6978,-1.4581,12.2068,1477,2909.66
14084,-3.3806,2.1931,8.691,1541,2909.51
14089,1.9094,3.7026,10.1095,1479,2909.51
14094,1.2869,1.567,11.8752,1469,2909.51
14099,-3.1208,-1.6676,12.5432,1482,2909.51
14104,-4.2449,1.9082,9.0369,1532,2909.66
14109,1.6352,3.5386,9.912,1479,2909.66
14114,2.2015,2.1201,11.6334,1480,2909.66
14119,-2.5211,-1.5036,12.724,1469,2909.66
14124,-4.8997,1.652,9.4344,1504,2909.66
14129,1.2665,3.4309,9.6702,1471,2909.66
14134,2.8563,2.6803,11.4586,1477,2909.66
14139,-1.9393,-1.1313,12.8006,1467,2909.66
14144,-5.2373,1.2378,9.8581,1485,2909.66
14149,0.8607,3.2705,9.2703,1500,2909.51
14154,3.2537,3.0634,11.157,1477,2909.51
14159,-1.4353,-0.6105,12.7683,1469,2909.51
14164,-5.3223,0.6309,10.3837,1479,2909.51
14169,0.2957,3.067,8.989,1509,2909.51
14174,3.1783,3.4728,10.9259,1469,2909.51
14179,-1.1121,-0.1592,12.6306,1465,2909.51
14184,-5.1679,-0.0443,10.8781,1471,2909.51
14189,-0.5076,2.8048,8.7101,1519,2909.37
14194,2.7976,3.7002,10.7009,1479,2909.37
14199,-0.8871,0.3256,12.5468,1469,2909.37
14204,-4.8518,-0.5938,11.3725,1478,2909.37
14209,-1.3874,2.6863,8.6179,1501,2909.09
14214,2.4397,3.8618,10.5393,1481,2909.09
14219,-0.5914,0.7518,12.3038,1477,2909.09
14224,-4.385,-1.0211,11.7962,1471,2909.09
14229,-2.3296,2.4553,8.606,1533,2909.51
14234,2.1452,3.8583,10.3453,1471,2909.51
14239,0.1664,1.1612,12.1841,1477,2909.51
14244,-3.7685,-1.4006,12.232,1477,2909.51
14249,-3.3016,2.2517,8.7317,1531,2908.95
14254,1.9585,3.7781,10.1933,1481,2908.95
14259,1.2414,1.5455,11.8645,1468,2908.95
14264,-3.1005,-1.6161,12.5169,1480,2908.95
14269,-4.1563,1.9154,8.9675,1533,2908.39
14274,1.6927,3.5781,9.9587,1477,2908.39
14279,2.1727,2.0063,11.7041,1479,2908.39
14284,-2.5283,-1.5706,12.7252,1471,2908.39
14289,-4.8902,1.6388,9.3685,1509,2907.68
14294,1.385,3.4201,9.6714,1469,2907.68
14299,2.8168,2.5798,11.3952,1480,2907.68
14304,-1.9968,-1.2163,12.7731,1469,2907.68
14309,-5.2672,1.1995,9.8557,1485,2907.68
14314,0.8715,3.2932,9.3865,1497,2908.1
14319,3.1065,3.1029,11.1582,1471,2908.1
14324,-1.5251,-0.7254,12.809,1469,2908.1
14329,-5.3271,0.7123,10.3801,1472,2908.1
14334,0.267,3.1089,9.0585,1509,2907.54
14339,3.128,3.4632,10.9439,1477,2907.54
14344,-1.1911,-0.1484,12.6617,1464,2907.54
14349,-5.1487,0.0515,10.8948,1482,2907.54
14354,-0.4166,2.8599,8.7795,1512,2908.1
14359,2.8527,3.7134,10.6781,1471,2908.1
14364,-0.8918,0.2825,12.5109,1469,2908.1
14369,-4.8303,-0.5662,11.3389,1478,2908.1
14374,-1.3599,2.6145,8.5844,1519,2907.82
14379,2.4588,3.7888,10.5225,1479,2907.82
14384,-0.4872,0.7123,12.3385,1479,2907.82
14389,-4.3574,-1.0882,11.8489,1471,2907.82
14394,-2.3774,2.4337,8.5784,1531,2909.09
14399,2.1452,3.8056,10.4208,1471,2909.09
14404,0.1832,1.1325,12.1518,1471,2909.09
14409,-3.8331,-1.3874,12.2344,1477,2909.09
14414,-3.3423,2.241,8.6742,1531,2908.67
14419,1.9261,3.7757,10.2053,1480,2908.67
14424,1.1696,1.5455,11.9602,1470,2908.67
14429,-3.1568,-1.5419,12.5241,1483,2908.67
14434,-4.1803,1.9656,8.9495,1525,2908.67
14439,1.7226,3.644,9.9192,1479,2908.67
14444,2.217,2.0267,11.74,1482,2908.67
14449,-2.484,-1.494,12.7431,1472,2908.67
14454,-4.8291,1.6137,9.323,1497,2908.24
14459,1.3563,3.45,9.675,1471,2908.24
14464,2.8826,2.5319,11.5281,1470,2908.24
14469,-1.9321,-1.2522,12.7922,1469,2908.24
14474,-5.2206,1.1325,9.8294,1489,2908.24
14479,0.893,3.2322,9.3661,1503,2908.24
14484,3.1759,3.049,11.163,1477,2908.24
14489,-1.4988,-0.7075,12.8018,1467,2908.24
14494,-5.3642,0.6967,10.3645,1470,2908.24
14499,0.2646,3.0921,9.0644,1503,2908.39
14504,3.0694,3.5015,10.8721,1477,2908.39
14509,-1.2522,-0.1592,12.6534,1464,2908.39
14514,-5.1799,0.1185,10.9511,1471,2908.39
14519,-0.5088,2.8946,8.8059,1513,2908.1
14524,2.818,3.7481,10.7236,1478,2908.1
14529,-0.8942,0.328,12.5241,1471,2908.1
14534,-4.8064,-0.5004,11.4227,1470,2908.1
14539,-1.3767,2.642,8.5916,1527,2908.24
14544,2.5295,3.8451,10.4507,1481,2908.24
14549,-0.4944,0.7147,12.2954,1477,2908.24
14554,-4.2976,-1.0594,11.8417,1468,2908.24
14559,-2.3535,2.4265,8.5688,1531,2907.68
14564,2.1213,3.802,10.2963,1479,2907.68
14569,0.2813,1.1241,12.135,1469,2907.68
14574,-3.7984,-1.4138,12.1937,1477,2907.68
14579,-3.3603,2.2015,8.7257,1541,2907.54
14584,1.8459,3.6871,10.1789,1479,2907.54
14589,1.1552,1.573,11.9303,1471,2907.54
14594,-3.1472,-1.5514,12.5073,1481,2907.54
14599,-4.2162,1.9956,9.0405,1531,2907.68
14604,1.5993,3.6117,9.9276,1479,2907.68
14609,2.1572,2.0877,11.6837,1483,2907.68
14614,-2.5007,-1.4449,12.712,1467,2907.68
14619,-4.8375,1.6269,9.4032,1479,2907.68
14624,1.3216,3.4153,9.6151,1511,2908.24
14629,2.9161,2.5857,11.3832,1467,2908.24
14634,-1.901,-1.1492,12.7946,1469,2908.24
14639,-5.2098,1.1576,9.8521,1489,2908.24
14644,0.8655,3.2417,9.329,1507,2908.81
14649,3.2238,3.061,11.139,1476,2908.81
14654,-1.4341,-0.7015,12.7611,1469,2908.81
14659,-5.3331,0.6309,10.3034,1471,2908.81
14664,0.2155,3.0191,9.0812,1509,2909.09
14669,3.0765,3.4584,10.9295,1479,2909.09
14674,-1.2294,-0.2035,12.6857,1465,2909.09
14679,-5.1978,0.0383,10.8936,1479,2909.09
14684,-0.5303,2.8695,8.7676,1517,2909.09
14689,2.7809,3.7661,10.6279,1478,2909.09
14694,-0.9206,0.3124,12.5384,1469,2909.09
14699,-4.8626,-0.5004,11.4371,1480,2909.09
14704,-1.3791,2.6815,8.6718,1497,2908.81
14709,2.4696,3.8607,10.5273,1479,2908.81
14714,-0.4932,0.7398,12.3792,1481,2908.81
14719,-4.3275,-1.0044,11.8549,1471,2908.81
14724,-2.332,2.4636,8.5437,1533,2908.95
14729,2.2458,3.8056,10.3406,1479,2908.95
14734,0.237,1.1444,12.1302,1469,2908.95
14739,-3.7769,-1.4461,12.1949,1469,2908.95
14744,-3.3603,2.1668,8.7305,1533,2908.81
14749,1.9094,3.6751,10.1215,1477,2908.81
14754,1.233,1.5191,11.9471,1469,2908.81
14759,-3.1699,-1.5909,12.5085,1480,2908.81
14764,-4.1755,1.9573,8.9771,1529,2908.67
14769,1.6281,3.5853,9.8952,1477,2908.67
14774,2.1129,2.0626,11.7699,1482,2908.67
14779,-2.5307,-1.5071,12.7539,1469,2908.67
14784,-4.8243,1.6448,9.3757,1481,2908.67
14789,1.2713,3.4237,9.5948,1507,2908.67
14794,2.8575,2.5953,11.5029,1471,2908.67
14799,-1.9549,-1.1396,12.7934,1469,2908.67
14804,-5.1906,1.1971,9.8342,1483,2908.67
14809,0.8727,3.2585,9.4008,1506,2908.95
14814,3.2082,3.0969,11.2216,1471,2908.95
14819,-1.4856,-0.6979,12.797,1470,2908.95
14824,-5.3259,0.6632,10.3956,1479,2908.95
14829,0.2933,3.0622,9.0261,1508,2909.23
14834,3.1927,3.4189,10.8876,1471,2909.23
14839,-1.1696,-0.2538,12.6498,1467,2909.23
14844,-5.1715,0.0227,10.8816,1471,2909.23
14849,-0.4717,2.8778,8.7795,1514,2908.95
14854,2.8108,3.7014,10.7164,1478,2908.95
14859,-0.9481,0.2945,12.5145,1471,2908.95
14864,-4.9213,-0.5459,11.3545,1477,2908.95
14869,-1.3348,2.6564,8.5509,1525,2908.95
14874,2.5067,3.8475,10.5153,1477,2908.95
14879,-0.5938,0.7219,12.3062,1479,2908.95
14884,-4.3946,-0.9912,11.8046,1469,2908.95
14889,-2.2685,2.4888,8.6131,1530,2908.53
14894,2.1799,3.8714,10.41,1479,2908.53
14899,0.1784,1.1229,12.1458,1471,2908.53
14904,-3.784,-1.3336,12.2416,1471,2908.53
14909,-3.2729,2.2302,8.679,1533,2908.67
14914,2.0027,3.7888,10.1718,1477,2908.67
14919,1.2127,1.5395,11.8836,1469,2908.67
14924,-3.158,-1.6017,12.536,1480,2908.67
14929,-4.1073,1.9549,8.9543,1541,2908.39
14934,1.6975,3.5865,9.9563,1471,2908.39
14939,2.1249,2.0039,11.6466,1482,2908.39
14944,-2.5115,-1.5419,12.7,1469,2908.39
14949,-4.8219,1.5945,9.3541,1481,2908.39
14954,1.2917,3.4548,9.6498,1499,2907.82
14959,2.8048,2.5702,11.5281,1478,2907.82
14964,-2.0159,-1.2378,12.821,1469,2907.82
14969,-5.2529,1.2677,9.8689,1485,2907.82
14974,0.8751,3.2801,9.3577,1501,2907.82
14979,3.1795,3.0789,11.1905,1477,2907.82
14984,-1.5359,-0.7063,12.8245,1471,2907.82
14989,-5.2648,0.6656,10.3453,1478,2907.82
14994,0.2801,3.1041,9.0225,1503,2907.82
14999,3.1232,3.4776,10.9319,1480,2907.82
15004,-1.1803,-0.158,12.6234,1469,2907.82
15009,-5.1583,0.0766,10.8098,1477,2907.82
15014,-0.4226,2.8742,8.7472,1501,2908.39
15019,2.8491,3.7218,10.6542,1477,2908.39
15024,-0.9266,0.2765,12.4906,1465,2908.39
15029,-4.7896,-0.5519,11.3665,1481,2908.39
15034,-1.3467,2.6468,8.6323,1525,2908.67
15039,2.4792,3.7589,10.4818,1471,2908.67
15044,-0.516,0.6871,12.3457,1481,2908.67
15049,-4.367,-1.0654,11.7867,1471,2908.67
15054,-2.3284,2.484,8.5425,1533,2908.95
15059,2.0734,3.8666,10.3477,1477,2908.95
15064,0.1951,1.1169,12.2164,1469,2908.95
15069,-3.8666,-1.4138,12.2368,1469,2908.95
15074,-3.3088,2.2482,8.7436,1531,2908.95
15079,1.8747,3.7613,10.1897,1479,2908.95
15084,1.1624,1.549,11.9195,1469,2908.95
15089,-3.1759,-1.5419,12.4906,1481,2908.95
15094,-4.1049,2.0099,8.9771,1501,2908.81
15099,1.6688,3.6224,9.9707,1471,2908.81
15104,2.1261,2.0243,11.71,1481,2908.81
15109,-2.472,-1.4808,12.645,1465,2908.81
15114,-4.8267,1.6209,9.335,1472,2908.81
15119,1.3515,3.3698,9.6594,1502,2909.23
15124,2.9078,2.5438,11.4371,1479,2909.23
15129,-1.9704,-1.2522,12.7515,1465,2909.23
15134,-5.2397,1.1947,9.8282,1486,2909.23
15139,0.8918,3.2669,9.3386,1495,2908.81
15144,3.1687,3.0167,11.2061,1471,2908.81
15149,-1.549,-0.7219,12.7994,1477,2908.81
15154,-5.381,0.6632,10.3034,1477,2908.81
15159,0.2933,3.0622,9.0609,1501,2908.67
15164,3.1125,3.4177,10.9559,1477,2908.67
15169,-1.2007,-0.1891,12.6689,1467,2908.67
15174,-5.2241,0.1401,10.8709,1471,2908.67
15179,-0.4357,2.9125,8.7987,1504,2908.53
15184,2.8922,3.7218,10.7727,1479,2908.53
15189,-0.9529,0.2849,12.5121,1467,2908.53
15194,-4.8447,-0.4405,11.3784,1479,2908.53
15199,-1.3228,2.648,8.606,1531,2908.24
15204,2.5247,3.8319,10.5728,1477,2908.24
15209,-0.5483,0.6835,12.3409,1481,2908.24
15214,-4.3515,-1.0127,11.8573,1469,2908.24
15219,-2.2158,2.4636,8.5389,1529,2908.67
15224,2.1919,3.8044,10.3202,1479,2908.67
15229,0.1556,1.0439,12.1338,1471,2908.67
15234,-3.8379,-1.4138,12.1733,1471,2908.67
15239,-3.2513,2.235,8.6574,1543,2908.95
15244,1.8591,3.7146,10.2352,1482,2908.95
15249,1.1396,1.4832,11.9686,1477,2908.95
15254,-3.286,-1.5766,12.5001,1483,2908.95
15259,-4.1456,2.0159,8.9651,1501,2909.66
15264,1.6436,3.6284,9.9922,1470,2909.66
15269,2.1165,2.0087,11.7064,1482,2909.66
15274,-2.5845,-1.5095,12.6737,1465,2909.66
15279,-4.8411,1.6652,9.3194,1471,2909.66
15284,1.3815,3.456,9.6822,1503,2909.8
15289,2.9257,2.5391,11.5041,1481,2909.8
15294,-1.9692,-1.1636,12.8581,1467,2909.8
15299,-5.1882,1.2438,9.7659,1485,2909.8
15304,0.9529,3.2537,9.3314,1503,2909.8
15309,3.1759,3.0083,11.1342,1476,2909.8
15314,-1.5371,-0.753,12.785,1479,2909.8
15319,-5.3415,0.6835,10.3034,1471,2909.8
15324,0.3771,3.0526,9.1339,1507,2910.08
15329,3.1137,3.3591,10.963,1477,2910.08
15334,-1.1947,-0.2358,12.6833,1469,2910.08
15339,-5.2541,0.1879,10.7715,1471,2910.08
15344,-0.4058,2.8814,8.7867,1501,2909.8
15349,2.8539,3.6739,10.6937,1471,2909.8
15354,-0.9888,0.2322,12.5516,1467,2909.8
15359,-4.9512,-0.401,11.3102,1477,2909.8
15364,-1.2653,2.7054,8.6526,1527,2909.66
15369,2.5498,3.8678,10.5393,1477,2909.66
15374,-0.5986,0.668,12.3313,1478,2909.66
15379,-4.4772,-0.9182,11.7627,1471,2909.66
15384,-2.2063,2.4864,8.6143,1544,2909.37
15389,2.247,3.8391,10.3465,1479,2909.37
15394,0.1113,1.0463,12.2056,1469,2909.37
15399,-3.8535,-1.3336,12.1733,1469,2909.37
15404,-3.1304,2.2458,8.6562,1532,2909.51
15409,1.9345,3.6907,10.1742,1480,2909.51
15414,1.0606,1.4545,12.0261,1467,2909.51
15419,-3.3052,-1.5909,12.463,1481,2909.51
15424,-4.0294,2.0027,8.9004,1519,2909.09
15429,1.6927,3.5626,9.9802,1471,2909.09
15434,2.0219,1.9369,11.8046,1492,2909.09
15439,-2.6612,-1.5227,12.6689,1469,2909.09
15444,-4.7226,1.7178,9.2727,1480,2909.09
15449,1.3743,3.4536,9.6534,1499,2908.95
15454,2.794,2.4924,11.5676,1480,2908.95
15459,-2.0961,-1.2186,12.8269,1467,2908.95
15464,-5.1882,1.3168,9.7719,1485,2908.95
15469,0.9912,3.2501,9.3709,1501,2909.09
15474,3.1244,2.9724,11.2348,1469,2909.09
15479,-1.6197,-0.7997,12.7539,1469,2909.09
15484,-5.3283,0.7626,10.2723,1469,2909.09
15489,0.4202,3.1208,9.0812,1502,2908.39
15494,3.1544,3.4058,11.0217,1477,2908.39
15499,-1.1935,-0.2634,12.6833,1469,2908.39
15504,-5.1799,0.176,10.7595,1477,2908.39
15509,-0.2993,2.8551,8.7999,1498,2908.1
15514,2.909,3.6667,10.7787,1470,2908.1
15519,-0.9685,0.1628,12.5205,1467,2908.1
15524,-4.962,-0.4405,11.2923,1479,2908.1
15529,-1.1899,2.6504,8.6993,1529,2908.24
15534,2.5343,3.8188,10.6123,1469,2908.24
15539,-0.6524,0.6309,12.3864,1481,2908.24
15544,-4.4819,-0.9313,11.7771,1469,2908.24
15549,-2.138,2.5007,8.582,1534,2908.1
15554,2.2374,3.869,10.4327,1477,2908.1
15559,0.0335,1.063,12.1817,1469,2908.1
15564,-3.9792,-1.3156,12.1254,1469,2908.1
15569,-3.1029,2.2996,8.7245,1530,2907.82
15574,2.0267,3.7924,10.2017,1480,2907.82
15579,1.0116,1.4653,11.9447,1470,2907.82
15584,-3.2417,-1.5383,12.4798,1483,2907.82
15589,-3.9456,2.0243,8.91,1501,2907.68
15594,1.7322,3.5985,9.9443,1468,2907.68
15599,2.0315,1.9261,11.7639,1483,2907.68
15604,-2.6001,-1.5586,12.7048,1467,2907.68
15609,-4.7465,1.6783,9.2536,1477,2907.68
15614,1.3886,3.4093,9.6786,1503,2907.96
15619,2.7892,2.4804,11.485,1479,2907.96
15624,-2.1093,-1.2773,12.7791,1469,2907.96
15629,-5.2158,1.2366,9.7671,1484,2907.96
15634,0.9301,3.2896,9.4308,1501,2908.1
15639,3.1376,2.9844,11.2444,1469,2908.1
15644,-1.6352,-0.8045,12.8054,1470,2908.1
15649,-5.357,0.8344,10.2592,1469,2908.1
15654,0.4286,3.1711,9.1111,1509,2908.95
15659,3.1568,3.4477,10.9355,1484,2908.95
15664,-1.2725,-0.2346,12.7383,1469,2908.95
15669,-5.1834,0.2382,10.7883,1471,2908.95
15674,-0.2897,2.897,8.8418,1513,2909.66
15679,2.9233,3.6919,10.7117,1477,2909.66
15684,-0.9732,0.1915,12.5696,1468,2909.66
15689,-4.9021,-0.4609,11.2073,1479,2909.66
15694,-1.166,2.6887,8.6072,1499,2909.94
15699,2.5606,3.8068,10.5656,1469,2909.94
15704,-0.6141,0.6141,12.3493,1479,2909.94
15709,-4.4784,-0.9685,11.6909,1470,2909.94
15714,-2.1416,2.5019,8.5665,1527,2909.51
15719,2.1751,3.8235,10.3765,1479,2909.51
15724,0.0311,0.9972,12.1805,1470,2909.51
15729,-3.9768,-1.3288,12.068,1469,2909.51
15734,-3.1077,2.2889,8.6275,1527,2909.23
15739,1.9333,3.7529,10.2376,1481,2909.23
15744,0.978,1.4449,12.044,1477,2909.23
15749,-3.3184,-1.4904,12.4726,1481,2909.23
15754,-3.9648,2.0889,8.8502,1503,2908.81
15759,1.737,3.699,9.9898,1471,2908.81
15764,2.0016,1.9225,11.7819,1483,2908.81
15769,-2.6647,-1.4928,12.6402,1469,2908.81
15774,-4.6759,1.7166,9.2476,1479,2908.81
15779,1.4317,3.4919,9.7217,1503,2910.64
15784,2.7928,2.4469,11.5676,1483,2910.64
15789,-2.0961,-1.3108,12.7719,1469,2910.64
15794,-5.2014,1.3084,9.6654,1486,2910.64
15799,1.069,3.2753,9.3769,1507,2910.78
15804,3.1999,2.885,11.2408,1471,2910.78
15809,-1.6089,-0.8906,12.8365,1471,2910.78
15814,-5.3941,0.844,10.2292,1471,2910.78
15819,0.4286,3.1364,9.1351,1503,2910.5
15824,3.1244,3.3459,11.06,1481,2910.5
15829,-1.3156,-0.3172,12.7599,1471,2910.5
15834,-5.3115,0.2981,10.7069,1477,2910.5
15839,-0.1975,2.9125,8.8047,1501,2910.22
15844,2.9497,3.6284,10.7607,1477,2910.22
15849,-1.1121,0.1616,12.6246,1469,2910.22
15854,-4.9584,-0.2909,11.2899,1478,2910.22
15859,-1.0223,2.7713,8.6347,1527,2909.94
15864,2.6085,3.8343,10.6075,1477,2909.94
15869,-0.6991,0.5722,12.4295,1480,2909.94
15874,-4.5095,-0.8763,11.6693,1470,2909.94
15879,-1.9357,2.4756,8.4791,1530,2909.51
15884,2.3367,3.814,10.4232,1479,2909.51
15889,-0.0395,0.8978,12.2248,1469,2909.51
15894,-3.9983,-1.318,12.0764,1471,2909.51
15899,-2.9485,2.3104,8.6012,1543,2909.37
15904,1.9381,3.7792,10.2759,1479,2909.37
15909,0.7949,1.3072,12.0249,1477,2909.37
15914,-3.4201,-1.5634,12.4522,1483,2909.37
15919,-3.8666,2.0806,8.8681,1515,2908.95
15924,1.7047,3.6117,10.0365,1471,2908.95
15929,1.7729,1.8411,11.8525,1481,2908.95
15934,-2.7725,-1.5167,12.6665,1465,2908.95
15939,-4.61,1.822,9.2225,1479,2908.95
15944,1.4904,3.5159,9.7588,1498,2908.81
15949,2.6791,2.4002,11.5496,1479,2908.81
15954,-2.1021,-1.2845,12.73,1466,2908.81
15959,-5.0829,1.4174,9.6175,1487,2908.81
15964,1.0702,3.3447,9.4822,1501,2908.81
15969,3.1484,2.8144,11.3389,1471,2908.81
15974,-1.5969,-0.8871,12.7276,1469,2908.81
15979,-5.2996,0.8859,10.0664,1471,2908.81
15984,0.492,3.0849,9.1674,1507,2908.81
15989,3.1999,3.2621,11.0253,1480,2908.81
15994,-1.3072,-0.4202,12.7707,1468,2908.81
15999,-5.2888,0.2945,10.6662,1471,2908.81
16004,-0.1568,2.9185,8.8753,1503,2908.95
16009,2.9185,3.5925,10.7727,1470,2908.95
16014,-1.0977,0.1065,12.5851,1469,2908.95
16019,-5.0613,-0.2107,11.1642,1481,2908.95
16024,-1.0092,2.7473,8.6682,1531,2909.66
16029,2.6372,3.8128,10.6003,1477,2909.66
16034,-0.7769,0.5842,12.4642,1481,2909.66
16039,-4.5705,-0.7506,11.6526,1467,2909.66
16044,-1.8663,2.569,8.5916,1531,2910.22
16049,2.3499,3.8618,10.3681,1479,2910.22
16054,-0.1197,0.9361,12.2416,1469,2910.22
16059,-4.0019,-1.227,12.0404,1471,2910.22
16064,-2.8623,2.332,8.5748,1533,2910.36
16069,2.0518,3.7553,10.2532,1471,2910.36
16074,0.7793,1.3108,12.0668,1471,2910.36
16079,-3.4572,-1.5598,12.3313,1482,2910.36
16084,-3.7876,2.1081,8.8238,1534,2910.22
16089,1.7466,3.6152,9.997,1477,2910.22
16094,1.731,1.749,11.8645,1481,2910.22
16099,-2.8587,-1.5993,12.5971,1469,2910.22
16104,-4.525,1.8711,9.1375,1477,2910.22
16109,1.4856,3.5039,9.7947,1503,2910.08
16114,2.5522,2.3176,11.6538,1471,2910.08
16119,-2.3152,-1.3384,12.7791,1471,2910.08
16124,-5.0901,1.482,9.5517,1485,2910.08
16129,1.1528,3.3662,9.4068,1509,2910.22
16134,3.1065,2.8299,11.3533,1469,2910.22
16139,-1.7514,-0.9325,12.8018,1469,2910.22
16144,-5.29,0.9996,10.076,1471,2910.22
16149,0.6081,3.1675,9.2045,1504,2910.22
16154,3.2238,3.2046,11.0828,1477,2910.22
16159,-1.2821,-0.4489,12.6941,1463,2910.22
16164,-5.2792,0.3819,10.5093,1471,2910.22
16169,-0.0323,2.8982,8.8909,1509,2910.36
16174,3.0586,3.5494,10.835,1468,2910.36
16179,-1.0726,0.018,12.6174,1468,2910.36
16184,-5.0578,-0.2286,11.1127,1477,2910.36
16189,-0.8248,2.7557,8.6646,1520,2910.08
16194,2.6588,3.7637,10.6171,1477,2910.08
16199,-0.7793,0.4441,12.4355,1479,2910.08
16204,-4.7585,-0.7614,11.6023,1469,2910.08
16209,-1.7633,2.5702,8.57,1534,2910.5
16214,2.3308,3.9157,10.4603,1477,2910.5
16219,-0.3316,0.8751,12.2739,1470,2910.5
16224,-4.1695,-1.1265,12.0129,1479,2910.5
16229,-2.6815,2.4169,8.6155,1535,2910.78
16234,2.1296,3.8295,10.2615,1469,2910.78
16239,0.6105,1.2546,12.1003,1479,2910.78
16244,-3.5745,-1.5191,12.3613,1483,2910.78
16249,-3.614,2.1572,8.7388,1529,2911.77
16254,1.8711,3.7038,10.0916,1479,2911.77
16259,1.5969,1.6712,11.8393,1483,2911.77
16264,-2.9868,-1.5646,12.5504,1467,2911.77
16269,-4.4077,1.8663,8.9854,1508,2912.9
16274,1.5874,3.4524,9.8114,1471,2912.9
16279,2.4445,2.1201,11.6442,1479,2912.9
16284,-2.4792,-1.4772,12.7886,1469,2912.9
16289,-4.9979,1.5335,9.4727,1485,2912.9
16294,1.2282,3.3531,9.5972,1499,2911.49
16299,2.9485,2.6959,11.5041,1477,2911.49
16304,-1.9501,-1.0606,12.8198,1471,2911.49
16309,-5.3319,1.1552,9.9216,1479,2911.49
16314,0.7985,3.2262,9.2392,1510,2910.78
16319,3.2238,3.1627,11.2025,1477,2910.78
16324,-1.4688,-0.5674,12.7862,1465,2910.78
16329,-5.3032,0.5926,10.4507,1477,2910.78
16334,0.182,3.0275,8.9352,1509,2910.36
16339,3.1747,3.4788,10.8733,1470,2910.36
16344,-1.0977,-0.0646,12.6139,1469,2910.36
16349,-5.1188,-0.0311,10.8936,1477,2910.36
16354,-0.5902,2.806,8.7113,1498,2909.51
16359,2.8623,3.7122,10.7033,1478,2909.51
16364,-0.8416,0.316,12.4941,1477,2909.51
16369,-4.7764,-0.6572,11.3832,1467,2909.51
16374,-1.488,2.6073,8.6431,1533,2908.81
16379,2.4134,3.7984,10.5345,1477,2908.81
16384,-0.4334,0.7638,12.3421,1476,2908.81
16389,-4.3646,-1.0858,11.8944,1478,2908.81
16394,-2.496,2.4588,8.5904,1533,2908.67
16399,2.0638,3.8283,10.3501,1478,2908.67
16404,0.3543,1.136,12.1206,1477,2908.67
16409,-3.7541,-1.409,12.2128,1481,2908.67
16414,-3.4417,2.2242,8.6622,1547,2908.67
16419,1.9249,3.8056,10.1011,1471,2908.67
16424,1.4114,1.6149,11.9088,1479,2908.67
16429,-3.0335,-1.5263,12.5935,1469,2908.67
16434,-4.2449,1.9261,9.0848,1503,2908.81
16439,1.6963,3.5267,9.8569,1477,2908.81
16444,2.3571,2.0291,11.6861,1477,2908.81
16449,-2.4205,-1.5,12.6713,1471,2908.81
16454,-4.8973,1.5694,9.4176,1491,2908.81
16459,1.2725,3.3471,9.584,1496,2909.66
16464,2.9497,2.5917,11.4156,1477,2909.66
16469,-1.9237,-1.1109,12.7779,1468,2909.66
16474,-5.284,1.1648,9.9024,1471,2909.66
16479,0.8033,3.1987,9.2775,1503,2908.95
16484,3.1448,3.0981,11.1881,1477,2908.95
16489,-1.5287,-0.6668,12.815,1463,2908.95
16494,-5.3379,0.6381,10.4172,1480,2908.95
16499,0.1975,3.073,8.995,1514,2908.81
16504,3.0777,3.5542,10.9331,1472,2908.81
16509,-1.2594,-0.1053,12.7048,1479,2908.81
16514,-5.0889,0.0287,10.9559,1477,2908.81
16519,-0.5782,2.8467,8.6526,1497,2908.67
16524,2.8706,3.7493,10.6781,1479,2908.67
16529,-0.8404,0.3196,12.5037,1471,2908.67
16534,-4.8016,-0.5758,11.4239,1470,2908.67
16539,-1.4557,2.66,8.5892,1532,2908.53
16544,2.5031,3.8164,10.5644,1479,2908.53
16549,-0.4214,0.7326,12.3014,1471,2908.53
16554,-4.2557,-1.1013,11.813,1471,2908.53
16559,-2.4565,2.3834,8.5258,1532,2908.53
16564,2.1069,3.8152,10.3525,1472,2908.53
16569,0.3531,1.1253,12.1374,1479,2908.53
16574,-3.7948,-1.4533,12.2655,1481,2908.53
16579,-3.4393,2.241,8.764,1531,2908.81
16584,1.8375,3.7493,10.167,1477,2908.81
16589,1.3036,1.567,11.9507,1479,2908.81
16594,-3.146,-1.4916,12.4702,1467,2908.81
16599,-4.2713,1.9836,8.9495,1503,2909.09
16604,1.6376,3.6152,9.8976,1479,2909.09
16609,2.302,2.0877,11.7579,1479,2909.09
16614,-2.5055,-1.4281,12.7096,1467,2909.09
16619,-4.8698,1.6508,9.3637,1485,2909.09
16624,1.3204,3.456,9.6211,1498,2909.51
16629,2.9939,2.5869,11.3569,1479,2909.51
16634,-1.8364,-1.0953,12.7635,1471,2909.51
16639,-5.2301,1.1145,9.8246,1480,2909.51
16644,0.8475,3.1783,9.2883,1509,2909.09
16649,3.1915,3.067,11.1857,1477,2909.09
16654,-1.4784,-0.68,12.815,1465,2909.09
16659,-5.3498,0.5962,10.3872,1478,2909.09
16664,0.1784,3.0311,9.0357,1511,2908.95
16669,3.0861,3.4824,10.9092,1471,2908.95
16674,-1.1995,-0.0994,12.6797,1467,2908.95
16679,-5.2313,0.0934,10.9571,1477,2908.95
16684,-0.5519,2.9006,8.7855,1497,2908.95
16689,2.8395,3.7242,10.6781,1481,2908.95
16694,-0.9792,0.3484,12.5145,1471,2908.95
16699,-4.7776,-0.5327,11.4024,1477,2908.95
16704,-1.421,2.6432,8.5772,1533,2908.67
16709,2.5247,3.8056,10.4818,1472,2908.67
16714,-0.4525,0.7147,12.3349,1471,2908.67
16719,-4.282,-1.0415,11.8968,1471,2908.67
16724,-2.3559,2.4529,8.5281,1532,2908.67
16729,2.1739,3.796,10.3657,1478,2908.67
16734,0.3065,1.0702,12.0943,1471,2908.67
16739,-3.7529,-1.4377,12.1985,1481,2908.67
16744,-3.3627,2.1895,8.6778,1529,2909.09
16749,1.8794,3.6667,10.1442,1479,2909.09
16754,1.2378,1.5694,11.9698,1481,2909.09
16759,-3.207,-1.6017,12.487,1468,2909.09
16764,-4.2401,1.9884,8.989,1501,2909.09
16769,1.6137,3.5398,9.9192,1469,2909.09
16774,2.1691,2.0375,11.7124,1477,2909.09
16779,-2.5798,-1.4497,12.7012,1468,2909.09
16784,-4.8842,1.6712,9.3817,1489,2909.09
16789,1.2857,3.4967,9.6391,1499,2908.67
16794,2.9018,2.5953,11.5185,1481,2908.67
16799,-1.9501,-1.0678,12.8293,1464,2908.67
16804,-5.205,1.2163,9.8497,1471,2908.67
16809,0.8643,3.2346,9.3422,1513,2908.53
16814,3.2358,3.0526,11.1761,1469,2908.53
16819,-1.4473,-0.6584,12.73,1461,2908.53
16824,-5.3127,0.5986,10.3537,1471,2908.53
16829,0.2227,3.043,8.9759,1513,2908.1
16834,3.1173,3.4117,10.9235,1477,2908.1
16839,-1.1025,-0.249,12.6139,1467,2908.1
16844,-5.2409,0.0132,10.8505,1477,2908.1
16849,-0.5183,2.8012,8.8083,1517,2907.82
16854,2.788,3.6787,10.7284,1479,2907.82
16859,-0.9984,0.3112,12.536,1477,2907.82
16864,-4.8471,-0.5447,11.4467,1467,2907.82
16869,-1.4257,2.6911,8.6107,1533,2908.24
16874,2.4373,3.9002,10.5285,1477,2908.24
16879,-0.5148,0.7685,12.305,1468,2908.24
16884,-4.3898,-1.0139,11.9207,1472,2908.24
16889,-2.3727,2.466,8.6072,1532,2908.67
16894,2.2015,3.8415,10.3154,1477,2908.67
16899,0.2729,1.1049,12.1518,1477,2908.67
16904,-3.7385,-1.4281,12.2164,1481,2908.67
16909,-3.3076,2.229,8.7376,1527,2909.09
16914,1.9525,3.7194,10.1418,1479,2909.09
16919,1.2833,1.5443,11.9531,1483,2909.09
16924,-3.1053,-1.6125,12.5289,1466,2909.09
16929,-4.1803,1.9573,8.9986,1495,2909.09
16934,1.64,3.5458,9.93,1471,2909.09
16939,2.1835,1.9968,11.722,1469,2909.09
16944,-2.5666,-1.5071,12.6809,1471,2909.09
16949,-4.877,1.67,9.3494,1485,2909.09
16954,1.2977,3.4129,9.6151,1497,2909.09
16959,2.8144,2.6013,11.4958,1479,2909.09
16964,-2.0183,-1.1672,12.7898,1468,2909.09
16969,-5.2744,1.2318,9.8665,1471,2909.09
16974,0.8775,3.2753,9.3577,1509,2909.23
16979,3.2166,3.0825,11.2168,1471,2909.23
16984,-1.5455,-0.6476,12.8042,1461,2909.23
16989,-5.3451,0.6967,10.307,1471,2909.23
16994,0.3316,3.0993,8.9962,1517,2909.23
16999,3.231,3.4261,10.9295,1471,2909.23
17004,-1.1636,-0.2251,12.7288,1465,2909.23
17009,-5.1475,0.012,10.9152,1471,2909.23
17014,-0.4633,2.8491,8.7293,1513,2909.09
17019,2.8635,3.6631,10.6841,1479,2909.09
17024,-0.8655,0.2466,12.4989,1471,2909.09
17029,-4.9201,-0.5423,11.303,1471,2909.09
17034,-1.3132,2.7114,8.6203,1531,2908.95
17039,2.4816,3.796,10.5034,1471,2908.95
17044,-0.5818,0.668,12.3289,1477,2908.95
17049,-4.4317,-1.0283,11.8501,1471,2908.95
17054,-2.2853,2.4708,8.5796,1533,2908.39
17059,2.156,3.8678,10.3334,1469,2908.39
17064,0.1592,1.136,12.153,1471,2908.39
17069,-3.8331,-1.3611,12.2188,1481,2908.39
17074,-3.2477,2.3176,8.6969,1529,2907.4
17079,1.9261,3.7984,10.1766,1468,2907.4
17084,1.1923,1.4976,11.9519,1483,2907.4
17089,-3.1232,-1.5574,12.5301,1468,2907.4
17094,-4.1192,1.98,8.9531,1507,2907.4
17099,1.6879,3.632,9.912,1479,2907.4
17104,2.2326,2.0016,11.6765,1469,2907.4
17109,-2.4876,-1.482,12.7431,1467,2907.4
17114,-4.7944,1.6113,9.3506,1491,2907.4
17119,1.2965,3.4189,9.6534,1503,2907.26
17124,2.8515,2.5295,11.4634,1468,2907.26
17129,-1.9297,-1.2582,12.7683,1469,2907.26
17134,-5.2553,1.1612,9.8354,1469,2907.26
17139,0.8428,3.2441,9.3434,1507,2906.84
17144,3.128,3.0933,11.169,1477,2906.84
17149,-1.5562,-0.7027,12.8485,1467,2906.84
17154,-5.3067,0.7111,10.3705,1471,2906.84
17159,0.2753,3.1376,9.0357,1515,2906.55
17164,3.1029,3.4931,10.9247,1493,2906.55
17169,-1.1624,-0.158,12.6593,1467,2906.55
17174,-5.1511,0.079,10.884,1479,2906.55
17179,-0.51,2.8718,8.7999,1528,2906.27
17184,2.8563,3.6739,10.738,1479,2906.27
17189,-0.8847,0.3029,12.4906,1471,2906.27
17194,-4.7645,-0.5411,11.3844,1476,2906.27
17199,-1.4198,2.6372,8.594,1531,2906.41
17204,2.4337,3.7888,10.4603,1477,2906.41
17209,-0.486,0.6979,12.2823,1468,2906.41
17214,-4.288,-1.1097,11.8393,1471,2906.41
17219,-2.4361,2.4588,8.5772,1533,2906.84
17224,2.0877,3.8068,10.392,1477,2906.84
17229,0.2993,1.136,12.1661,1471,2906.84
17234,-3.7445,-1.4329,12.2296,1483,2906.84
17239,-3.4201,2.2266,8.7221,1501,2906.98
17244,1.8316,3.7098,10.1694,1469,2906.98
17249,1.2653,1.5933,11.9112,1485,2906.98
17254,-3.1017,-1.5778,12.5444,1465,2906.98
17259,-4.2737,1.9932,9.0106,1479,2906.98
17264,1.6532,3.5961,9.9647,1502,2906.98
17269,2.3128,2.077,11.6562,1484,2906.98
17274,-2.4313,-1.4269,12.6546,1468,2906.98
17279,-5.3283,0.8092,10.2496,1485,2906.98
17284,1.2773,3.4105,9.5756,1501,2907.4
17289,3.1568,3.2848,10.9822,1477,2907.4
17294,-1.2725,-0.2945,12.724,1493,2907.4
17299,-5.2517,0.1844,10.7691,1469,2907.4
17304,0.8116,3.1975,9.2871,1507,2907.54
17309,2.8922,3.6679,10.7691,1483,2907.54
17314,-1.1037,0.1784,12.5169,1468,2907.54
17319,-4.9333,-0.3651,11.212,1469,2907.54
17324,-1.2234,2.7198,8.6874,1515,2907.54
17329,2.5355,3.8235,10.574,1477,2907.54
17334,-0.674,0.644,12.4139,1467,2907.54
17339,-4.5693,-0.8739,11.716,1481,2907.54
17344,-2.1165,2.472,8.5473,1543,2907.96
17349,2.3044,3.8774,10.3669,1471,2907.96
17354,0.0311,1.0247,12.2116,1481,2907.96
17359,-3.8918,-1.3036,12.1542,1477,2907.96
17364,-3.0765,2.2877,8.6491,1527,2908.1
17369,1.9872,3.7278,10.2149,1483,2908.1
17374,0.984,1.3946,11.9519,1468,2908.1
17379,-3.3351,-1.5814,12.4463,1471,2908.1
17384,-3.9564,1.9884,8.8681,1518,2908.1
17389,1.7166,3.6272,9.9814,1480,2908.1
17394,1.974,1.9333,11.7472,1469,2908.1
17399,-2.7617,-1.5275,12.6474,1482,2908.1
17404,-4.7405,1.7633,9.268,1543,2908.24
17409,1.4042,3.4345,9.7241,1471,2908.24
17414,2.745,2.4505,11.5089,1487,2908.24
17419,-2.0985,-1.2725,12.7611,1471,2908.24
17424,-5.1511,1.3623,9.6881,1469,2908.24
17429,0.9816,3.3172,9.4391,1502,2908.39
17434,3.1639,2.9999,11.2767,1479,2908.39
17439,-1.5862,-0.7817,12.8269,1465,2908.39
17444,-5.3486,0.808,10.2592,1485,2908.39
17449,0.4573,3.152,9.0776,1511,2908.39
17454,3.1807,3.3519,10.9403,1470,2908.39
17459,-1.2354,-0.2502,12.6761,1479,2908.39
17464,-5.2361,0.1951,10.7488,1471,2908.39
17469,-0.2873,2.9173,8.8538,1498,2908.81
17474,2.9353,3.6332,10.799,1483,2908.81
17479,-0.996,0.1903,12.5336,1471,2908.81
17484,-4.9464,-0.4405,11.3258,1471,2908.81
17489,-1.1528,2.6935,8.6227,1513,2908.81
17494,2.5594,3.8068,10.5489,1477,2908.81
17499,-0.668,0.6057,12.3804,1451,2908.81
17504,-4.5107,-0.9493,11.7424,1483,2908.81
17509,-2.1129,2.5139,8.5952,1533,2909.09
17514,2.2027,3.8535,10.4028,1470,2909.09
17519,0.0132,1.0163,12.2044,1483,2909.09
17524,-3.9744,-1.2773,12.1613,1471,2909.09
17529,-3.0658,2.308,8.679,1531,2909.37
17534,2.0171,3.8259,10.1538,1484,2909.37
17539,0.9708,1.4102,11.9973,1471,2909.37
17544,-3.3507,-1.585,12.4403,1469,2909.37
17549,-3.9492,2.0327,8.8657,1547,2908.95
17554,1.7418,3.6799,9.9455,1483,2908.95
17559,1.9728,1.9106,11.801,1471,2908.95
17564,-2.6971,-1.5514,12.651,1481,2908.95
17569,-4.6543,1.7214,9.1877,1546,2908.95
17574,1.4485,3.4213,9.7037,1477,2908.95
17579,2.7785,2.4157,11.5748,1485,2908.95
17584,-2.1249,-1.3491,12.7862,1470,2908.95
17589,-5.1703,1.3491,9.7133,1471,2908.95
17594,1.0475,3.2777,9.4475,1503,2909.09
17599,3.1149,2.9521,11.2444,1478,2909.09
17604,-1.6927,-0.8356,12.7407,1467,2909.09
17609,-5.351,0.844,10.2268,1485,2909.09
17614,0.4693,3.1568,9.1063,1510,2908.95
17619,3.1603,3.3651,11.0492,1470,2908.95
17624,-1.3455,-0.3172,12.7264,1479,2908.95
17629,-5.2625,0.2574,10.7392,1477,2908.95
17634,-0.2442,2.9437,8.8418,1503,2909.23
17639,2.958,3.6488,10.7164,1485,2909.23
17644,-1.0259,0.1676,12.5648,1479,2909.23
17649,-4.9763,-0.3747,11.2671,1462,2909.23
17654,-1.0511,2.7019,8.6814,1515,2910.08
17659,2.6025,3.7864,10.5716,1479,2910.08
17664,-0.6764,0.5519,12.378,1471,2910.08
17669,-4.5466,-0.8859,11.6765,1485,2910.08
17674,-1.9824,2.4768,8.5641,1543,2910.64
17679,2.2733,3.8714,10.4423,1471,2910.64
17684,-0.0515,0.9206,12.22,1479,2910.64
17689,-4.051,-1.3204,12.1171,1483,2910.64
17694,-2.9712,2.3355,8.6538,1531,2910.64
17699,1.9692,3.7996,10.2256,1481,2910.64
17704,0.8643,1.3671,11.9926,1479,2910.64
17709,-3.4848,-1.5323,12.4463,1471,2910.64
17714,-3.8475,2.1045,8.8238,1501,2910.36
17719,1.8124,3.7182,9.9946,1481,2910.36
17724,1.8459,1.8866,11.8286,1471,2910.36
17729,-2.7797,-1.5036,12.6474,1483,2910.36
17734,-4.5562,1.8124,9.2308,1541,2909.8
17739,1.4964,3.4297,9.6774,1470,2909.8
17744,2.6863,2.3284,11.5532,1485,2909.8
17749,-2.1584,-1.3144,12.7635,1461,2909.8
17754,-5.0961,1.4198,9.5996,1479,2909.8
17759,1.1277,3.3471,9.4272,1507,2909.37
17764,3.1867,2.8311,11.2803,1481,2909.37
17769,-1.6807,-0.9409,12.821,1467,2909.37
17774,-5.3044,0.8811,10.1167,1491,2909.37
17779,0.6009,3.1304,9.1063,1501,2909.37
17784,3.1591,3.2513,11.06,1471,2909.37
17789,-1.3743,-0.4166,12.7587,1479,2909.37
17794,-5.3056,0.3555,10.6578,1471,2909.37
17799,-0.1113,3.0167,8.8945,1507,2909.23
17804,2.9544,3.6308,10.8062,1481,2909.23
17809,-1.148,0.152,12.6402,1477,2909.23
17814,-5.0398,-0.2394,11.1259,1471,2909.23
17819,-0.9553,2.7809,8.6371,1515,2909.66
17824,2.6743,3.7912,10.6171,1479,2909.66
17829,-0.7554,0.5327,12.5157,1467,2909.66
17834,-4.5945,-0.7626,11.5963,1479,2909.66
17839,-1.8639,2.5774,8.5784,1543,2909.94
17844,2.3906,3.8762,10.4435,1478,2909.94
17849,-0.1448,0.917,12.2691,1479,2909.94
17854,-4.0677,-1.2941,11.9973,1469,2909.94
17859,-2.8228,2.2936,8.5844,1534,2910.36
17864,2.0087,3.7685,10.2448,1479,2910.36
17869,0.7159,1.2701,12.0596,1467,2910.36
17874,-3.5279,-1.5718,12.3696,1477,2910.36
17879,-3.7661,2.162,8.7795,1544,2910.64
17884,1.749,3.6631,10.0568,1479,2910.64
17889,1.7059,1.8136,11.8633,1469,2910.64
17894,-2.9365,-1.5778,12.6079,1482,2910.64
17899,-4.5478,1.8507,9.1614,1501,2910.78
17904,1.5335,3.5099,9.8474,1471,2910.78
17909,2.5558,2.2948,11.637,1484,2910.78
17914,-2.314,-1.3455,12.7539,1470,2910.78
17919,-5.0159,1.4928,9.5792,1477,2910.78
17924,1.1947,3.3818,9.5014,1503,2911.07
17929,3.146,2.7557,11.3186,1481,2911.07
17934,-1.7154,-1.0068,12.7443,1463,2911.07
17939,-5.2888,0.9601,10.0497,1490,2911.07
17944,0.6907,3.152,9.1913,1495,2911.21
17949,3.2465,3.1627,11.0923,1469,2911.21
17954,-1.3611,-0.504,12.718,1469,2911.21
17959,-5.3786,0.4322,10.5429,1469,2911.21
17964,0.0359,2.9999,8.8813,1501,2911.35
17969,3.0191,3.547,10.8493,1479,2911.35
17974,-1.1744,-0.0395,12.6581,1467,2911.35
17979,-5.1787,-0.164,11.0995,1471,2911.35
17984,-0.7853,2.7761,8.7029,1511,2910.78
17989,2.6612,3.7685,10.6937,1471,2910.78
17994,-0.8763,0.4238,12.5025,1467,2910.78
17999,-4.7525,-0.6608,11.5137,1476,2910.78
18004,-1.6352,2.6408,8.5569,1510,2910.36
18009,2.4313,3.9157,10.4938,1477,2910.36
18014,-0.3627,0.8619,12.3098,1479,2910.36
18019,-4.215,-1.1193,12.0057,1470,2910.36
18024,-2.5714,2.399,8.5581,1526,2910.5
18029,2.1404,3.8092,10.3094,1471,2910.5
18034,0.5459,1.1815,12.1087,1469,2910.5
18039,-3.6404,-1.4952,12.2727,1469,2910.5
18044,-3.5482,2.1787,8.7161,1543,2911.07
18049,1.8771,3.6883,10.1287,1471,2911.07
18054,1.5227,1.6281,11.9135,1466,2911.07
18059,-3.0598,-1.6149,12.5624,1482,2911.07
18064,-4.3646,1.8998,8.9878,1515,2911.07
18069,1.6029,3.5183,9.9036,1479,2911.07
18074,2.405,2.1512,11.6957,1469,2911.07
18079,-2.4553,-1.4257,12.7216,1465,2911.07
18084,-5.0111,1.5969,9.4104,1509,2909.8
18089,1.245,3.3974,9.5924,1480,2909.8
18094,2.9485,2.7054,11.4646,1471,2909.8
18099,-1.9345,-1.0762,12.7982,1469,2909.8
18104,-5.2996,1.1384,9.8713,1489,2909.8
18109,0.8056,3.213,9.2213,1507,2910.78
18114,3.225,3.1053,11.0792,1477,2910.78
18119,-1.4425,-0.583,12.7479,1469,2910.78
18124,-5.3008,0.5686,10.4291,1470,2910.78
18129,0.164,3.0323,8.9759,1503,2909.51
18134,3.1208,3.4405,10.8661,1469,2909.51
18139,-1.1193,-0.097,12.6593,1465,2909.51
18144,-5.1368,-0.0742,10.8793,1470,2909.51
18149,-0.6165,2.8144,8.7065,1515,2909.23
18154,2.7845,3.7122,10.6662,1471,2909.23
18159,-0.9062,0.3603,12.5085,1464,2909.23
18164,-4.8159,-0.6009,11.485,1477,2909.23
18169,-1.5586,2.6576,8.6491,1529,2908.95
18174,2.4098,3.8379,10.4627,1481,2908.95
18179,-0.4824,0.7817,12.3337,1471,2908.95
18184,-4.3251,-1.0714,11.8812,1471,2908.95
18189,-2.4541,2.4696,8.6191,1531,2908.81
18194,2.1632,3.8666,10.3358,1477,2908.81
18199,0.3472,1.1504,12.141,1471,2908.81
18204,-3.7577,-1.4138,12.2835,1471,2908.81
18209,-3.3818,2.2194,8.6957,1533,2908.67
18214,1.9441,3.7409,10.1107,1479,2908.67
18219,1.3719,1.5814,11.8932,1471,2908.67
18224,-3.0311,-1.5694,12.4953,1481,2908.67
18229,-4.2808,1.9237,9.0345,1501,2908.81
18234,1.6245,3.5219,9.8904,1471,2908.81
18239,2.3679,2.0865,11.7088,1483,2908.81
18244,-2.4732,-1.4988,12.6665,1468,2908.81
18249,-4.9249,1.5407,9.3709,1503,2908.81
18254,1.3216,3.3579,9.5612,1472,2908.81
18259,2.9473,2.6683,11.4347,1471,2908.81
18264,-1.9728,-1.0953,12.7623,1467,2908.81
18269,-5.278,1.1289,9.9168,1490,2908.81
18274,0.7973,3.2549,9.2632,1503,2908.95
18279,3.1448,3.1508,11.2073,1470,2908.95
18284,-1.5407,-0.5327,12.7575,1471,2908.95
18289,-5.2888,0.6452,10.3837,1471,2908.95
18294,0.2023,3.1029,9.0082,1501,2908.53
18299,3.1149,3.5075,10.9595,1471,2908.53
18304,-1.2019,-0.0814,12.6713,1461,2908.53
18309,-5.1308,-0.0287,10.896,1471,2908.53
18314,-0.5555,2.8491,8.6766,1513,2908.24
18319,2.8563,3.7122,10.635,1478,2908.24
18324,-0.9146,0.3412,12.4702,1464,2908.24
18329,-4.719,-0.6536,11.4694,1477,2908.24
18334,-1.4617,2.6073,8.5509,1525,2907.54
18339,2.4289,3.8008,10.5273,1479,2907.54
18344,-0.4453,0.7302,12.3206,1481,2907.54
18349,-4.3275,-1.1205,11.898,1471,2907.54
18354,-2.4636,2.4361,8.5688,1534,2908.81
18359,2.1117,3.8415,10.3477,1470,2908.81
18364,0.3184,1.1624,12.1051,1469,2908.81
18369,-3.7781,-1.4162,12.226,1470,2908.81
18374,-3.3842,2.247,8.8262,1533,2908.39
18379,1.901,3.7529,10.1562,1487,2908.39
18384,1.3096,1.5897,11.9076,1469,2908.39
18389,-3.1208,-1.5538,12.5217,1483,2908.39
18394,-4.1911,1.9561,9.001,1533,2908.67
18399,1.67,3.5901,9.8988,1471,2908.67
18404,2.3703,2.1284,11.6849,1479,2908.67
18409,-2.4313,-1.4676,12.7096,1467,2908.67
18414,-4.8542,1.5814,9.3757,1481,2909.09
18419,1.3683,3.4046,9.5624,1515,2909.09
18424,3.0083,2.5833,11.4515,1469,2909.09
18429,-1.901,-1.1396,12.7719,1469,2909.09
18434,-5.2373,1.1205,9.8557,1487,2909.09
18439,0.8164,3.2262,9.2751,1503,2908.81
18444,3.1376,3.1041,11.2085,1476,2908.81
18449,-1.5215,-0.6225,12.8569,1470,2908.81
18454,-5.357,0.6273,10.4052,1477,2908.81
18459,0.1951,3.0801,8.983,1501,2908.53
18464,3.0167,3.4872,10.9415,1471,2908.53
18469,-1.2546,-0.0359,12.7551,1469,2908.53
18474,-5.1751,0.0227,10.9212,1470,2908.53
18479,-0.595,2.885,8.7293,1513,2908.24
18484,2.8671,3.796,10.7548,1469,2908.24
18489,-0.9601,0.3819,12.5767,1468,2908.24
18494,-4.7728,-0.5519,11.3737,1467,2908.24
18499,-1.4078,2.6492,8.5629,1523,2908.39
18504,2.557,3.8104,10.5584,1479,2908.39
18509,-0.4513,0.7709,12.3589,1481,2908.39
18514,-4.2748,-1.1372,11.7879,1469,2908.39
18519,-2.4038,2.3762,8.5629,1529,2908.67
18524,2.2039,3.7948,10.3561,1479,2908.67
18529,0.2957,1.1684,12.1865,1469,2908.67
18534,-3.7649,-1.4904,12.141,1471,2908.67
18539,-3.371,2.1955,8.6718,1531,2909.09
18544,1.8615,3.6703,10.1562,1477,2909.09
18549,1.2821,1.6245,12.0309,1477,2909.09
18554,-3.2034,-1.6137,12.4762,1480,2909.09
18559,-4.2605,1.9656,8.9639,1531,2909.51
18564,1.6041,3.6009,9.8904,1480,2909.51
18569,2.241,2.1536,11.7663,1485,2909.51
18574,-2.4852,-1.4162,12.645,1467,2909.51
18579,-4.8937,1.6185,9.3518,1476,2909.51
18584,1.3719,3.3674,9.5421,1513,2910.08
18589,2.9892,2.5582,11.5305,1477,2910.08
18594,-1.968,-1.1253,12.8078,1467,2910.08
18599,-5.223,1.1253,9.7995,1491,2910.08
18604,0.8763,3.2118,9.1913,1508,2910.64
18609,3.2394,3.0694,11.2061,1469,2910.64
18614,-1.4808,-0.6632,12.7503,1465,2910.64
18619,-5.3463,0.5997,10.3238,1469,2910.64
18624,0.2849,2.988,8.9519,1507,2910.64
18629,3.1017,3.4536,11.0552,1478,2910.64
18634,-1.2821,-0.1293,12.6761,1465,2910.64
18639,-5.2433,0.0335,10.8362,1479,2910.64
18644,-0.4621,2.8802,8.6443,1515,2910.5
18649,2.8048,3.7373,10.7703,1477,2910.5
18654,-1.0594,0.3579,12.6558,1467,2910.5
18659,-4.9009,-0.5195,11.4191,1466,2910.5
18664,-1.3168,2.6492,8.4862,1528,2910.08
18669,2.5522,3.8331,10.556,1478,2910.08
18674,-0.5974,0.7446,12.4295,1472,2910.08
18679,-4.3682,-1.0068,11.7831,1469,2910.08
18684,-2.2529,2.4014,8.4587,1533,2909.37
18689,2.3128,3.8211,10.386,1479,2909.37
18694,0.1867,1.1157,12.2715,1471,2909.37
18699,-3.7852,-1.4425,12.1554,1472,2909.37
18704,-3.2178,2.1679,8.6143,1533,2908.95
18709,1.9944,3.7038,10.1742,1471,2908.95
18714,1.1337,1.5419,12.0416,1471,2908.95
18719,-3.2118,-1.6305,12.4223,1479,2908.95
18724,-4.1192,1.9704,8.8801,1499,2908.81
18729,1.646,3.5817,9.9671,1479,2908.81
18734,2.0674,2.1033,11.8884,1480,2908.81
18739,-2.6228,-1.4712,12.6617,1465,2908.81
18744,-4.8267,1.6568,9.2656,1497,2908.39
18749,1.3731,3.3914,9.6414,1480,2908.39
18754,2.8072,2.5953,11.5939,1469,2908.39
18759,-2.0303,-1.1516,12.7862,1471,2908.39
18764,-5.2385,1.2127,9.7719,1491,2908.39
18769,0.9445,3.2513,9.3518,1499,2908.67
18774,3.2561,3.0622,11.2743,1471,2908.67
18779,-1.506,-0.6333,12.7383,1468,2908.67
18784,-5.2888,0.6668,10.2232,1471,2908.67
18789,0.3376,3.0466,8.9423,1509,2908.39
18794,3.1532,3.395,11.0337,1471,2908.39
18799,-1.2115,-0.1748,12.6785,1463,2908.39
18804,-5.187,0.0443,10.7943,1477,2908.39
18809,-0.4262,2.8659,8.7257,1517,2908.24
18814,2.8108,3.6392,10.7164,1470,2908.24
18819,-0.9948,0.3184,12.5779,1468,2908.24
18824,-4.9141,-0.5171,11.3138,1471,2908.24
18829,-1.33,2.66,8.5868,1499,2907.54
18834,2.4876,3.8343,10.5848,1479,2907.54
18839,-0.6261,0.6788,12.4977,1478,2907.54
18844,-4.4281,-1.0235,11.7962,1468,2907.54
18849,-2.2613,2.4541,8.4683,1532,2908.53
18854,2.2589,3.8427,10.3513,1478,2908.53
18859,0.1257,1.1396,12.2846,1465,2908.53
18864,-3.7637,-1.4281,12.153,1477,2908.53
18869,-3.2178,2.2146,8.6311,1531,2908.1
18874,1.9944,3.7218,10.1969,1477,2908.1
18879,1.2354,1.5562,12.1159,1471,2908.1
18884,-3.146,-1.6089,12.4139,1483,2908.1
18889,-4.0989,1.9297,8.8621,1519,2908.95
18894,1.7597,3.5602,9.906,1471,2908.95
18899,2.1751,2.0542,11.8908,1481,2908.95
18904,-2.5845,-1.5538,12.6007,1465,2908.95
18909,-4.7908,1.6448,9.2296,1479,2908.95
18914,1.3838,3.3926,9.6307,1511,2908.81
18919,2.812,2.5917,11.6215,1471,2908.81
18924,-2.077,-1.2043,12.815,1470,2908.81
18929,-5.2553,1.2306,9.7863,1487,2908.81
18934,0.9649,3.2142,9.2811,1507,2909.09
18939,3.1591,3.055,11.3401,1470,2909.09
18944,-1.5945,-0.68,12.8078,1471,2909.09
18949,-5.3008,0.7015,10.2627,1471,2909.09
18954,0.3484,3.0406,8.9603,1508,2908.95
18959,3.1711,3.4249,11.0241,1477,2908.95
18964,-1.2354,-0.1496,12.7072,1463,2908.95
18969,-5.1739,0.0934,10.7955,1471,2908.95
18974,-0.3998,2.8838,8.7029,1513,2908.67
18979,2.903,3.6799,10.8445,1469,2908.67
18984,-0.9625,0.2825,12.5839,1467,2908.67
18989,-4.8578,-0.5243,11.3425,1477,2908.67
18994,-1.2737,2.6432,8.5569,1525,2908.81
18999,2.5031,3.7637,10.5297,1477,2908.81
19004,-0.5758,0.7123,12.408,1469,2908.81
19009,-4.4652,-1.0439,11.7436,1470,2908.81
19014,-2.2458,2.4768,8.4779,1543,2908.81
19019,2.2134,3.8415,10.398,1479,2908.81
19024,0.1401,1.0989,12.293,1470,2908.81
19029,-3.8607,-1.3886,12.1206,1471,2908.81
19034,-3.1867,2.2769,8.5892,1533,2908.81
19039,1.9656,3.7505,10.155,1481,2908.81
19044,1.136,1.5179,12.0776,1476,2908.81
19049,-3.2537,-1.579,12.5037,1485,2908.81
19054,-4.063,2.0518,8.8885,1532,2908.81
19059,1.7585,3.6033,9.9419,1471,2908.81
19064,2.1584,2.0279,11.8884,1481,2908.81
19069,-2.5546,-1.494,12.6546,1467,2908.81
19074,-4.7345,1.6604,9.2009,1479,2908.81
19079,1.421,3.3998,9.59,1499,2908.95
19084,2.8515,2.5187,11.6945,1477,2908.95
19089,-2.0219,-1.233,12.8018,1471,2908.95
19094,-5.2074,1.2474,9.7444,1489,2908.95
19099,0.9804,3.2549,9.3003,1503,2908.67
19104,3.1639,3.0203,11.3246,1477,2908.67
19109,-1.5814,-0.7422,12.7707,1471,2908.67
19114,-5.357,0.6979,10.246,1469,2908.67
19119,0.3735,3.0646,8.9914,1497,2908.24
19124,3.1352,3.4393,11.0229,1477,2908.24
19129,-1.3001,-0.1808,12.7204,1471,2908.24
19134,-5.2289,0.1556,10.8433,1471,2908.24
19139,-0.3759,2.891,8.7101,1512,2907.96
19144,2.8742,3.6763,10.7763,1471,2907.96
19149,-1.0139,0.334,12.5767,1468,2907.96
19154,-4.8171,-0.4956,11.2468,1477,2907.96
19159,-1.2749,2.6492,8.5641,1529,2907.82
19164,2.5869,3.7828,10.6123,1471,2907.82
19169,-0.5902,0.7207,12.4678,1479,2907.82
19174,-4.3874,-1.0499,11.6729,1469,2907.82
19179,-2.2051,2.4457,8.4982,1529,2907.82
19184,2.2206,3.796,10.3741,1478,2907.82
19189,0.1317,1.081,12.2428,1471,2907.82
19194,-3.9169,-1.4198,12.1111,1477,2907.82
19199,-3.2106,2.2446,8.655,1533,2907.96
19204,1.901,3.7218,10.173,1481,2907.96
19209,1.1277,1.5419,12.0716,1471,2907.96
19214,-3.2813,-1.549,12.4247,1480,2907.96
19219,-4.0941,2.0039,8.849,1503,2907.96
19224,1.6951,3.5949,9.9192,1470,2907.96
19229,2.1237,2.0243,11.9159,1483,2907.96
19234,-2.5857,-1.488,12.6378,1466,2907.96
19239,-4.7357,1.6795,9.2955,1479,2907.96
19244,1.3695,3.4417,9.5972,1509,2908.1
19249,2.8982,2.5379,11.6107,1481,2908.1
19254,-1.9764,-1.1648,12.7467,1467,2908.1
19259,-5.2265,1.2258,9.7408,1485,2908.1
19264,0.9816,3.231,9.3099,1503,2908.24
19269,3.2058,3.0299,11.3042,1471,2908.24
19274,-1.5742,-0.7195,12.7755,1469,2908.24
19279,-5.2864,0.6416,10.2029,1477,2908.24
19284,0.2729,3.0526,8.9064,1503,2908.39
19289,3.1436,3.3866,11.0361,1479,2908.39
19294,-1.2522,-0.1413,12.718,1487,2908.39
19299,-5.2469,0.079,10.7907,1477,2908.39
19304,-0.3986,2.8515,8.6921,1509,2908.67
19309,2.8443,3.7026,10.7739,1479,2908.67
19314,-1.1181,0.3304,12.6139,1469,2908.67
19319,-4.8495,-0.4537,11.2923,1481,2908.67
19324,-1.3096,2.6659,8.5305,1511,2908.67
19329,2.5642,3.8331,10.5692,1468,2908.67
19334,-0.6021,0.735,12.4463,1481,2908.67
19339,-4.4065,-0.9505,11.7172,1469,2908.67
19344,-2.2494,2.4732,8.5162,1532,2908.67
19349,2.2733,3.8451,10.4423,1479,2908.67
19354,0.1137,1.1301,12.2535,1469,2908.67
19359,-3.8008,-1.3922,12.1171,1477,2908.67
19364,-3.2082,2.1823,8.5533,1528,2908.67
19369,1.9573,3.7493,10.1742,1484,2908.67
19374,1.1157,1.5431,12.1194,1480,2908.67
19379,-3.2453,-1.5969,12.4702,1483,2908.67
19384,-4.0749,2.0087,8.8633,1501,2908.81
19389,1.6831,3.5901,9.9347,1471,2908.81
19394,2.0686,2.0315,11.8441,1483,2908.81
19399,-2.63,-1.5395,12.6103,1467,2908.81
19404,-4.7561,1.6616,9.2225,1485,2908.81
19409,1.3491,3.4249,9.663,1503,2908.81
19414,2.8407,2.6001,11.6514,1481,2908.81
19419,-2.0674,-1.172,12.7659,1467,2908.81
19424,-5.1954,1.2797,9.7588,1495,2908.81
19429,0.978,3.2298,9.2751,1508,2909.23
19434,3.1723,2.9987,11.3018,1479,2909.23
19439,-1.5718,-0.7219,12.7539,1479,2909.23
19444,-5.3067,0.6656,10.2568,1471,2909.23
19449,0.4022,3.0646,8.9411,1499,2909.23
19454,3.1603,3.4093,11.0265,1471,2909.23
19459,-1.3108,-0.1676,12.7252,1471,2909.23
19464,-5.2098,0.0658,10.7643,1471,2909.23
19469,-0.3376,2.8407,8.6814,1516,2909.23
19474,2.8635,3.6571,10.7188,1478,2909.23
19479,-1.0247,0.2514,12.6342,1469,2909.23
19484,-4.9093,-0.5004,11.3318,1481,2909.23
19489,-1.2402,2.6887,8.5665,1529,2909.09
19494,2.5618,3.8678,10.6147,1479,2909.09
19499,-0.6776,0.7099,12.4858,1480,2909.09
19504,-4.476,-1.0283,11.7136,1477,2909.09
19509,-2.1991,2.4493,8.4372,1531,2908.95
19514,2.2446,3.8666,10.3777,1479,2908.95
19519,0.0479,1.081,12.323,1472,2908.95
19524,-3.899,-1.3443,12.0979,1467,2908.95
19529,-3.1532,2.2266,8.5509,1515,2907.96
19534,2.0291,3.7613,10.1909,1479,2907.96
19539,1.0271,1.555,12.135,1471,2907.96
19544,-3.2789,-1.5945,12.4127,1480,2907.96
19549,-4.0402,2.0291,8.8382,1527,2908.81
19554,1.7406,3.5698,9.985,1469,2908.81
19559,2.0578,1.9992,11.9124,1487,2908.81
19564,-2.636,-1.5598,12.6725,1467,2908.81
19569,-4.7178,1.6436,9.2488,1471,2908.81
19574,1.3946,3.4069,9.6726,1503,2907.12
19579,2.7749,2.5007,11.6717,1478,2907.12
19584,-2.0399,-1.2821,12.6953,1467,2907.12
19589,-5.1918,1.2258,9.6917,1485,2907.12
19594,0.9361,3.237,9.3494,1509,2907.12
19599,3.1436,2.9928,11.388,1469,2907.12
19604,-1.5766,-0.723,12.797,1479,2907.12
19609,-5.3127,0.7434,10.2651,1471,2907.12
19614,0.4034,3.1017,8.9998,1507,2906.7
19619,3.14,3.4285,10.999,1484,2906.7
19624,-1.2941,-0.1448,12.7336,1469,2906.7
19629,-5.1727,0.0886,10.8002,1471,2906.7
19634,-0.3938,2.8922,8.6981,1516,2906.7
19639,2.885,3.6344,10.7787,1478,2906.7
19644,-1.0247,0.3148,12.5887,1479,2906.7
19649,-4.8255,-0.5195,11.2815,1483,2906.7
19654,-1.3156,2.6875,8.5281,1513,2906.7
19659,2.5151,3.8271,10.5776,1471,2906.7
19664,-0.5531,0.6907,12.4367,1481,2906.7
19669,-4.373,-1.0534,11.7831,1480,2906.7
19674,-2.2721,2.4576,8.5509,1531,2906.98
19679,2.162,3.8008,10.3765,1482,2906.98
19684,0.1077,1.1253,12.2607,1477,2906.98
19689,-3.869,-1.409,12.1266,1470,2906.98
19694,-3.2681,2.2972,8.6167,1508,2906.84
19699,1.9441,3.7601,10.2089,1480,2906.84
19704,1.1552,1.5706,12.0811,1471,2906.84
19709,-3.1747,-1.5562,12.4846,1480,2906.84
19714,-4.1276,2.0039,8.922,1543,2907.12
19719,1.7178,3.5841,9.8402,1469,2907.12
19724,2.2051,2.0423,11.8776,1483,2907.12
19729,-2.5355,-1.4928,12.5732,1471,2907.12
19734,-4.7681,1.6496,9.2656,1471,2907.12
19739,1.3647,3.4046,9.59,1501,2906.98
19744,2.9377,2.5606,11.6155,1481,2906.98
19749,-1.883,-1.1768,12.7084,1469,2906.98
19754,-5.2062,1.172,9.7492,1486,2906.98
19759,0.9421,3.2214,9.2536,1503,2907.12
19764,3.152,3.037,11.3629,1471,2907.12
19769,-1.494,-0.7003,12.7743,1477,2907.12
19774,-5.3451,0.6117,10.3238,1471,2907.12
19779,0.2574,3.0478,9.0046,1503,2907.26
19784,3.0694,3.4728,11.0181,1479,2907.26
19789,-1.1935,-0.1413,12.6917,1477,2907.26
19794,-5.1906,0.0599,10.8158,1471,2907.26
19799,-0.6141,-0.0012,-0.0012,1509,2907.4
19804,2.8252,3.7338,10.6997,1483,2907.4
19809,-0.9972,0.3759,12.5624,1467,2907.4
19814,-4.7704,-0.5016,11.3856,1481,2907.4
19819,-1.3707,2.6791,8.5222,1544,2907.68
19824,2.5283,3.8523,10.5105,1477,2907.68
19829,-0.5519,0.7506,12.4247,1481,2907.68
19834,-4.2701,-1.0594,11.8214,1470,2907.68
19839,-2.399,2.4373,8.497,1523,2907.82
19844,2.1703,3.7984,10.3214,1481,2907.82
19849,0.2813,1.1444,12.202,1476,2907.82
19854,-3.7577,-1.4341,12.1913,1469,2907.82
19859,-3.3399,2.1823,8.6251,1533,2907.96
19864,1.895,3.7062,10.1382,1483,2907.96
19869,1.2617,1.5862,12.038,1479,2907.96
19874,-3.2058,-1.6029,12.5169,1479,2907.96
19879,-4.2294,1.9357,8.9627,1543,2908.24
19884,1.6424,3.5662,9.9323,1470,2908.24
19889,2.1907,2.1201,11.8597,1481,2908.24
19894,-2.5606,-1.4521,12.7192,1471,2908.24
19899,-4.8387,1.6676,9.3625,1477,2908.24
19904,1.3815,3.389,9.5636,1497,2908.24
19909,2.9461,2.6612,11.5412,1479,2908.24
19914,-1.9154,-1.1289,12.7707,1468,2908.24
19919,-5.1858,1.1779,9.839,1482,2908.24
19924,0.8715,3.2417,9.2416,1507,2908.39
19929,3.2118,3.0718,11.3258,1471,2908.39
19934,-1.4497,-0.6488,12.7156,1470,2908.39
19939,-5.2792,0.5638,10.3489,1478,2908.39
19944,0.2298,3.0131,8.9148,1507,2908.53
19949,3.14,3.4093,10.9918,1485,2908.53
19954,-1.172,-0.1544,12.724,1469,2908.53
19959,-5.2241,-0.0227,10.8996,1469,2908.53
19964,-0.5255,2.8623,8.7017,1516,2908.24
19969,2.8264,3.6763,10.7524,1479,2908.24
19974,-1.0534,0.3519,12.5696,1470,2908.24
19979,-4.8291,-0.5124,11.3713,1479,2908.24
19984,-1.4222,2.6576,8.5353,1533,2908.1
19989,2.4876,3.8726,10.5285,1479,2908.1
19994,-0.5315,0.844,12.4738,1487,2908.1
19999,-4.3802,-1.0511,11.801,1470,2908.1
20004,-2.3942,2.4301,8.5449,1531,2907.96
20009,2.2541,3.7924,10.3418,1479,2907.96
20014,0.2693,1.1432,12.2164,1471,2907.96
20019,-3.7242,-1.4437,12.1458,1471,2907.96
20024,-3.3519,2.1584,8.6443,1519,2907.26
20029,1.9501,3.717,10.1897,1481,2907.26
20034,1.3012,1.579,12.0764,1477,2907.26
20039,-3.1017,-1.6568,12.4642,1479,2907.26
20044,-4.2222,1.8818,8.904,1543,2908.81
20049,1.6568,3.4931,9.912,1470,2908.81
20054,2.2134,2.1057,11.8202,1479,2908.81
20059,-2.5462,-1.4916,12.6929,1471,2908.81
20064,-4.853,1.6424,9.4092,1482,2908.81
20069,1.2809,3.4069,9.56,1499,2908.24
20074,2.903,2.6612,11.6011,1471,2908.24
20079,-1.9537,-1.1456,12.7563,1471,2908.24
20084,-5.2577,1.166,9.7683,1483,2908.24
20089,0.8894,3.2178,9.3003,1511,2908.81
20094,3.2561,3.1304,11.2707,1471,2908.81
20099,-1.4904,-0.595,12.7719,1471,2908.81
20104,-5.3271,0.6728,10.3657,1478,2908.81
20109,0.3053,3.0143,8.8585,1511,2908.53
20114,3.1436,3.4788,11.0038,1481,2908.53
20119,-1.1911,-0.0934,12.6546,1471,2908.53
20124,-5.0781,-0.0503,10.8781,1477,2908.53
20129,-0.5567,2.812,8.6359,1509,2908.67
20134,2.7952,3.699,10.738,1479,2908.67
20139,-0.9673,0.3591,12.5827,1471,2908.67
20144,-4.8219,-0.6201,11.3665,1477,2908.67
20149,-1.4664,2.6085,8.5293,1544,2908.67
20154,2.4876,3.8678,10.5237,1467,2908.67
20159,-0.577,0.7697,12.4295,1481,2908.67
20164,-4.3682,-1.063,11.9028,1471,2908.67
20169,-2.3774,2.4134,8.5641,1535,2908.81
20174,2.1524,3.8559,10.3501,1482,2908.81
20179,0.2143,1.1947,12.2428,1477,2908.81
20184,-3.7673,-1.3898,12.2272,1469,2908.81
20189,-3.3603,2.1919,8.6407,1544,2908.95
20194,1.992,3.7206,10.1514,1480,2908.95
20199,1.3096,1.6113,12.0488,1477,2908.95
20204,-3.0957,-1.5766,12.4917,1479,2908.95
20209,-4.2294,1.9393,8.9124,1524,2908.67
20214,1.6915,3.5303,9.924,1469,2908.67
20219,2.2661,2.053,11.8046,1481,2908.67
20224,-2.4936,-1.5622,12.6462,1477,2908.67
20229,-4.8734,1.5897,9.329,1485,2908.67
20234,1.3348,3.3399,9.5936,1501,2908.39
20239,2.9197,2.5881,11.5808,1479,2908.39
20244,-1.9932,-1.1923,12.8281,1468,2908.39
20249,-5.2397,1.1624,9.7731,1478,2908.39
20254,0.826,3.231,9.2476,1511,2908.39
20259,3.1723,3.1089,11.2539,1471,2908.39
20264,-1.5778,-0.6464,12.8018,1471,2908.39
20269,-5.3199,0.6764,10.3537,1476,2908.39
20274,0.2849,3.0454,8.9795,1515,2908.24
20279,3.14,3.468,10.9894,1476,2908.24
20284,-1.2989,-0.0802,12.6617,1468,2908.24
20289,-5.132,0.0587,10.8625,1477,2908.24
20294,-0.486,2.8683,8.679,1513,2908.24
20299,2.8635,3.6919,10.6913,1479,2908.24
20304,-0.9948,0.3771,12.566,1471,2908.24
20309,-4.7764,-0.5758,11.3509,1470,2908.24
20314,-1.4042,2.636,8.5617,1525,2908.39
20319,2.5067,3.7769,10.5596,1477,2908.39
20324,-0.504,0.759,12.475,1480,2908.39
20329,-4.379,-1.0798,11.8166,1477,2908.39
20334,-2.4086,2.375,8.5078,1531,2908.39
20339,2.1596,3.8188,10.3848,1479,2908.39
20344,0.2442,1.1995,12.2368,1479,2908.39
20349,-3.802,-1.4305,12.2236,1479,2908.39
20354,-3.3327,2.2015,8.691,1542,2908.53
20359,1.8747,3.7745,10.1227,1477,2908.53
20364,1.2246,1.5993,12.0787,1477,2908.53
20369,-3.1819,-1.5646,12.4475,1479,2908.53
20374,-4.1922,1.9836,8.9088,1544,2908.24
20379,1.7047,3.5877,9.8761,1469,2908.24
20384,2.2877,2.0782,11.8549,1481,2908.24
20389,-2.5091,-1.4497,12.6713,1469,2908.24
20394,-4.8231,1.6077,9.2907,1487,2908.24
20399,1.3707,3.3579,9.5134,1499,2908.1
20404,2.9736,2.5845,11.5448,1477,2908.1
20409,-1.9142,-1.1756,12.7012,1471,2908.1
20414,-5.2026,1.1049,9.7971,1480,2908.1
20419,0.8835,3.1903,9.2452,1508,2908.1
20424,3.1161,3.037,11.2863,1472,2908.1
20429,-1.5562,-0.6823,12.7336,1466,2908.1
20434,-5.3654,0.6297,10.3501,1477,2908.1
20439,0.2598,3.0179,8.9232,1512,2907.82
20444,3.0382,3.4716,10.9906,1479,2907.82
20449,-1.2689,-0.085,12.6462,1469,2907.82
20454,-5.2086,0.0204,10.8601,1477,2907.82
20459,-0.4884,2.903,8.6957,1507,2907.68
20464,2.8132,3.7613,10.7368,1480,2907.68
20469,-1.0116,0.4118,12.5803,1467,2907.68
20474,-4.7633,-0.5447,11.3665,1477,2907.68
20479,-1.385,2.6468,8.5078,1533,2907.82
20484,2.5798,3.8355,10.5728,1478,2907.82
20489,-0.5327,0.7626,12.4056,1469,2907.82
20494,-4.2713,-1.1169,11.8609,1477,2907.82
20499,-2.3918,2.3942,8.4934,1531,2907.82
20504,2.1644,3.7577,10.3418,1479,2907.82
20509,0.2622,1.166,12.1733,1471,2907.82
20514,-3.7529,-1.4664,12.1793,1481,2907.82
20519,-3.3651,2.1584,8.673,1543,2907.96
20524,1.8723,3.6835,10.173,1479,2907.96
20529,1.2306,1.5886,12.0452,1478,2907.96
20534,-3.1603,-1.5658,12.4858,1471,2907.96
20539,-4.2353,1.9704,8.9411,1503,2908.1
20544,1.6233,3.5506,9.894,1477,2908.1
20549,2.2338,2.1476,11.8118,1479,2908.1
20554,-2.5546,-1.4449,12.7216,1469,2908.1
20559,-4.8626,1.6508,9.3781,1486,2908.1
20564,1.336,3.3914,9.5708,1499,2908.67
20569,2.9413,2.6444,11.6035,1479,2908.67
20574,-1.9609,-1.0882,12.8233,1471,2908.67
20579,-5.2194,1.1636,9.8198,1479,2908.67
20584,0.8882,3.1915,9.1925,1503,2908.67
20589,3.1939,3.0646,11.2252,1477,2908.67
20594,-1.5024,-0.6596,12.7383,1465,2908.67
20599,-5.3067,0.5507,10.3597,1477,2908.67
20604,0.2382,3.0143,8.9304,1517,2908.81
20609,3.0095,3.4596,10.9822,1479,2908.81
20614,-1.2773,-0.1341,12.7431,1467,2908.81
20619,-5.1834,0.0012,10.8613,1471,2908.81
20624,-0.5734,2.8371,8.7065,1499,2908.81
20629,2.7785,3.7338,10.7524,1483,2908.81
20634,-1.0259,0.3819,12.6043,1467,2908.81
20639,-4.8746,-0.5782,11.376,1469,2908.81
20644,-1.4557,2.6755,8.5617,1531,2908.53
20649,2.5259,3.8427,10.5141,1477,2908.53
20654,-0.5722,0.7889,12.3409,1477,2908.53
20659,-4.2737,-1.0558,11.7855,1477,2908.53
20671,-2.3762,2.4636,8.5605,1545,2908.53
20675,0.2729,1.1791,12.2308,1471,2908.53
20680,-3.6811,-1.4904,12.1637,1479,2908.53
20685,-3.3363,2.1967,8.6215,1519,2908.53
20690,1.9118,3.6607,10.1442,1481,2908.53
20695,1.2881,1.5718,12.0345,1479,2908.53
20700,-3.1675,-1.64,12.4391,1485,2908.53
20705,-4.2377,1.9417,8.9735,1518,2908.67
20710,1.6556,3.5518,9.9012,1477,2908.67
20715,2.2027,2.1476,11.8309,1487,2908.67
20720,-2.6061,-1.4724,12.6522,1479,2908.67
20725,-4.8806,1.6436,9.3446,1477,2908.67
20730,1.336,3.3662,9.5744,1512,2909.09
20735,2.8982,2.6456,11.5748,1483,2909.09
20740,-1.9597,-1.1133,12.7623,1468,2909.09
20745,-5.217,1.2151,9.8462,1491,2909.09
20750,0.8703,3.2573,9.1842,1509,2909.23
20755,3.2322,3.0718,11.2946,1477,2909.23
20760,-1.5143,-0.6488,12.7467,1482,2909.23
20765,-5.296,0.6009,10.3334,1483,2909.23
20770,0.3053,3.0011,8.8645,1503,2908.95
20775,3.14,3.4189,10.9978,1487,2908.95
20780,-1.2605,-0.1053,12.7372,1471,2908.95
20785,-5.126,-0.0443,10.8816,1477,2908.95
20790,-0.4597,2.7964,8.691,1515,2908.67
20795,2.7761,3.7158,10.8146,1478,2908.67
20800,-0.9685,0.3424,12.5827,1470,2908.67
20805,-4.8638,-0.6416,11.2934,1489,2908.67
20810,-1.3719,2.6372,8.5425,1545,2908.53
20815,2.4792,3.8595,10.6159,1477,2908.53
20820,-0.5974,0.747,12.4606,1480,2908.53
20825,-4.3539,-1.0451,11.8178,1479,2908.53
20830,-2.2936,2.4924,8.5688,1525,2908.53
20835,2.2063,3.8942,10.3765,1483,2908.53
20840,0.1975,1.1708,12.214,1479,2908.53
20845,-3.7433,-1.421,12.1446,1479,2908.53
20850,-3.2777,2.2565,8.6335,1512,2908.67
20855,2.0099,3.7721,10.1933,1483,2908.67
20860,1.233,1.5658,12.0201,1479,2908.67
20865,-3.1484,-1.6017,12.5313,1485,2908.67
20870,-4.1492,1.9549,8.8717,1503,2909.66
20875,1.7107,3.5338,9.9132,1471,2909.66
20880,2.2063,2.0399,11.7663,1485,2909.66
20885,-2.5307,-1.5347,12.6558,1477,2909.66
20890,-4.798,1.5933,9.317,1477,2909.66
20895,1.3372,3.3471,9.6881,1497,2908.81
20900,2.8647,2.5953,11.5808,1481,2908.81
20905,-2.0722,-1.2342,12.7802,1469,2908.81
20910,-5.2541,1.2474,9.7719,1490,2908.81
20915,0.9493,3.2549,9.3027,1507,2908.95
20920,3.1771,3.0873,11.2911,1477,2908.95
20925,-1.6077,-0.6644,12.7994,1479,2908.95
20930,-5.3067,0.7003,10.3729,1479,2908.95
20935,0.3208,3.0861,9.0166,1504,2908.39
20940,3.1364,3.4129,10.993,1485,2908.39
20945,-1.2713,-0.103,12.718,1477,2908.39
20950,-5.0757,0.067,10.8421,1478,2908.39
20955,-0.4501,2.879,8.6347,1511,2908.39
20960,2.8802,3.6919,10.7392,1483,2908.39
20965,-0.9134,0.3448,12.5684,1468,2908.39
20970,-4.7956,-0.5746,11.2911,1491,2908.39
20975,-1.3348,2.6217,8.5377,1544,2908.24
20980,2.4732,3.7769,10.556,1478,2908.24
20985,-0.6321,0.7087,12.3924,1480,2908.24
20990,-4.3479,-1.0774,11.7639,1479,2908.24
20995,-2.2996,2.466,8.5377,1530,2907.82
21000,2.1141,3.8355,10.3633,1485,2907.82
21005,0.2191,1.1432,12.2858,1479,2907.82
21010,-3.863,-1.4473,12.0991,1471,2907.82
21015,-3.3184,2.2398,8.6119,1509,2907.12
21020,1.9549,3.7912,10.1873,1481,2907.12
21025,1.1887,1.6089,12.0548,1480,2907.12
21030,-3.1472,-1.5347,12.4846,1485,2907.12
21035,-4.1204,2.0315,8.9711,1546,2906.98
21040,1.7226,3.5877,9.9599,1471,2906.98
21045,2.2254,2.0506,11.8118,1487,2906.98
21050,-2.5235,-1.4784,12.633,1481,2906.98
21055,-4.7872,1.5802,9.2871,1480,2906.98
21060,1.3467,3.3674,9.6103,1501,2906.84
21065,2.8874,2.6133,11.5891,1480,2906.84
21070,-1.9285,-1.166,12.706,1468,2906.84
21075,-5.1607,1.1241,9.8533,1485,2906.84
21080,0.8655,3.2058,9.2787,1507,2906.55
21085,3.1041,3.0789,11.248,1467,2906.55
21090,-1.5634,-0.6452,12.7252,1479,2906.55
21095,-5.2996,0.5997,10.3166,1481,2906.55
21100,0.2191,3.067,8.9842,1502,2906.55
21105,3.0478,3.4584,10.9942,1484,2906.55
21110,-1.2414,-0.0874,12.7012,1477,2906.55
21115,-5.1547,0.0287,10.896,1471,2906.55
21120,-0.5243,2.9125,8.7532,1514,2906.41
21125,2.7892,3.7685,10.7224,1483,2906.41
21130,-0.9996,0.3807,12.5181,1471,2906.41
21135,-4.7621,-0.5722,11.4299,1483,2906.41
21140,-1.4425,2.6624,8.5856,1543,2906.7
21145,2.5163,3.8188,10.5704,1479,2906.7
21150,-0.5064,0.7709,12.3433,1481,2906.7
21155,-4.2461,-1.1265,11.8393,1479,2906.7
21160,-2.4098,2.4193,8.509,1531,2906.41
21165,2.1584,3.7697,10.2831,1479,2906.41
21170,0.3412,1.172,12.2416,1471,2906.41
21175,-3.7206,-1.4653,12.2248,1477,2906.41
21180,-3.4046,2.1967,8.673,1543,2906.13
21185,1.8818,3.6799,10.1933,1481,2906.13
21190,1.2845,1.6664,11.9638,1480,2906.13
21195,-3.0777,-1.5359,12.5109,1483,2906.13
21200,-4.2856,1.9429,8.9962,1512,2906.41
21205,1.5897,3.5554,9.8964,1477,2906.41
21210,2.3439,2.217,11.7448,1482,2906.41
21215,-2.4469,-1.391,12.7012,1467,2906.41
21220,-4.865,1.5957,9.4355,1487,2906.41
21225,1.318,3.371,9.5912,1499,2906.84
21230,3.0131,2.7066,11.4634,1478,2906.84
21235,-1.9058,-1.0427,12.7348,1471,2906.84
21240,-5.2146,1.0427,9.9228,1485,2906.84
21245,0.8152,3.1448,9.2476,1509,2906.98
21250,3.1615,3.1053,11.212,1478,2906.98
21255,-1.4401,-0.565,12.7575,1471,2906.98
21260,-5.2696,0.4501,10.4232,1480,2906.98
21265,0.1425,3.0059,8.8681,1515,2906.55
21270,3.0083,3.4991,10.9283,1479,2906.55
21275,-1.1959,-0.0215,12.6689,1471,2906.55
21280,-5.1571,-0.1245,10.963,1481,2906.55
21285,-0.6859,2.8,8.6778,1503,2906.27
21290,2.7031,3.7098,10.738,1483,2906.27
21295,-0.9457,0.4944,12.5085,1471,2906.27
21300,-4.7321,-0.6452,11.4575,1478,2906.27
21305,-1.6376,2.6444,8.6107,1542,2906.41
21310,2.3978,3.8499,10.5333,1479,2906.41
21315,-0.3998,0.8906,12.3493,1479,2906.41
21320,-4.1695,-1.1624,11.9171,1472,2906.41
21325,-2.5786,2.3703,8.6203,1544,2906.7
21330,2.1859,3.7649,10.3549,1478,2906.7
21335,0.5088,1.2522,12.1757,1479,2906.7
21340,-3.5626,-1.4976,12.2188,1484,2906.7
21345,-3.5925,2.1153,8.7233,1533,2906.98
21350,1.8914,3.6536,10.07,1480,2906.98
21355,1.5227,1.7418,12.044,1479,2906.98
21360,-3.0071,-1.6376,12.5408,1470,2906.98
21365,-4.4544,1.8364,9.0764,1511,2907.12
21370,1.5526,3.486,9.8258,1479,2907.12
21375,2.4014,2.2613,11.7184,1481,2907.12
21380,-2.4301,-1.385,12.6174,1471,2907.12
21385,-4.9428,1.5012,9.5146,1485,2907.12
21390,1.239,3.3459,9.5589,1509,2907.54
21395,2.9736,2.8,11.4982,1481,2907.54
21400,-1.8507,-0.978,12.7982,1471,2907.54
21405,-5.2589,1.0104,10.0233,1479,2907.54
21410,0.6716,3.1412,9.1578,1509,2907.26
21415,3.1675,3.2382,11.1701,1471,2907.26
21420,-1.4449,-0.4477,12.8281,1467,2907.26
21425,-5.2493,0.4046,10.5608,1483,2907.26
21430,0.067,2.9628,8.8753,1517,2907.54
21435,3.0442,3.5721,10.8924,1479,2907.54
21440,-1.166,0.067,12.5887,1483,2907.54
21445,-5.0482,-0.2286,11.0121,1479,2907.54
21450,-0.7614,2.7066,8.6383,1532,2907.68
21455,2.6959,3.7254,10.7212,1484,2907.68
21460,-0.8966,0.5076,12.5025,1479,2907.68
21465,-4.6831,-0.7793,11.5305,1467,2907.68
21470,-1.6963,2.6097,8.5198,1519,2908.1
21475,2.3535,3.8367,10.5022,1469,2908.1
21480,-0.3555,0.9194,12.323,1471,2908.1
21485,-4.1671,-1.257,11.9662,1477,2908.1
21490,-2.6899,2.3762,8.5557,1529,2907.82
21495,2.1548,3.8559,10.2987,1477,2907.82
21500,0.5124,1.3048,12.1793,1479,2907.82
21505,-3.5566,-1.5167,12.3206,1483,2907.82
21510,-3.6105,2.0997,8.7771,1542,2907.26
21515,1.9249,3.6871,10.0317,1479,2907.26
21520,1.5909,1.7765,11.9052,1483,2907.26
21525,-2.8706,-1.5766,12.5432,1471,2907.26
21530,-4.4388,1.8028,9.0309,1481,2907.26
21535,1.6077,3.48,9.8246,1509,2906.84
21540,2.5223,2.2565,11.7292,1479,2906.84
21545,-2.3116,-1.409,12.7659,1471,2906.84
21550,-5.0135,1.4485,9.5002,1492,2906.84
21555,1.1935,3.3052,9.4763,1508,2906.84
21560,3.0323,2.8156,11.4168,1477,2906.84
21565,-1.8112,-0.9589,12.8245,1479,2906.84
21570,-5.2397,0.996,10.0616,1477,2906.84
21575,0.6536,3.1436,9.1159,1504,2907.12
21580,3.0682,3.2573,11.1259,1479,2907.12
21585,-1.4257,-0.4178,12.7779,1460,2907.12
21590,-5.2481,0.3926,10.5692,1479,2907.12
21595,-0.0024,3.0083,8.8274,1519,2907.26
21600,3.0466,3.6105,10.8529,1480,2907.26
21605,-1.2091,0.1293,12.6929,1471,2907.26
21610,-4.9787,-0.2394,11.0756,1483,2907.26
21615,-0.8416,2.7964,8.5784,1523,2907.68
21620,2.6995,3.7577,10.6291,1477,2907.68
21625,-0.8296,0.5411,12.4594,1483,2907.68
21630,-4.6124,-0.8894,11.5077,1471,2907.68
21635,-1.804,2.5702,8.5054,1533,2907.96
21640,2.3631,3.8331,10.4531,1479,2907.96
21645,-0.2382,0.9397,12.3732,1477,2907.96
21650,-4.0965,-1.2941,11.9878,1479,2907.96
21655,-2.7809,2.3894,8.5485,1543,2907.96
21660,2.0387,3.8044,10.2963,1482,2907.96
21665,0.6428,1.3408,12.1434,1479,2907.96
21670,-3.4692,-1.5395,12.3301,1486,2907.96
21675,-3.7014,2.1368,8.7568,1507,2908.1
21680,1.816,3.7254,10.0987,1471,2908.1
21685,1.6831,1.8292,11.9866,1489,2908.1
21690,-2.8718,-1.5371,12.6019,1472,2908.1
21695,-4.464,1.8411,9.0597,1479,2908.1
21700,1.6113,3.4884,9.7229,1508,2908.39
21705,2.5522,2.332,11.6897,1485,2908.39
21710,-2.2613,-1.324,12.6845,1469,2908.39
21715,-5.0218,1.4246,9.5002,1490,2908.39
21720,1.1923,3.3435,9.4451,1507,2908.39
21725,3.0394,2.8204,11.4263,1480,2908.39
21730,-1.749,-0.9816,12.718,1481,2908.39
21735,-5.272,0.899,9.9958,1478,2908.39
21740,0.595,3.0993,9.104,1507,2908.53
21745,3.1005,3.2334,11.1438,1481,2908.53
21750,-1.4401,-0.4681,12.7587,1479,2908.53
21755,-5.3139,0.3555,10.5848,1477,2908.53
21760,-0.0299,2.9736,8.8885,1515,2908.24
21765,2.9257,3.6272,10.8984,1480,2908.24
21770,-1.148,0.1149,12.6318,1471,2908.24
21775,-5.047,-0.1951,11.0552,1485,2908.24
21780,-0.8475,2.7701,8.6467,1531,2908.39
21785,2.6899,3.7996,10.6398,1479,2908.39
21790,-0.8571,0.5447,12.5624,1481,2908.39
21795,-4.5729,-0.7913,11.5496,1471,2908.39
21800,-1.7442,2.5606,8.5078,1532,2908.39
21805,2.387,3.8104,10.4423,1480,2908.39
21810,-0.2083,0.899,12.3481,1471,2908.39
21815,-4.1001,-1.3108,11.9171,1479,2908.39
21820,-2.7701,2.326,8.5222,1513,2908.39
21825,2.0554,3.7278,10.2987,1483,2908.39
21830,0.7195,1.3264,12.1961,1479,2908.39
21835,-3.5075,-1.5514,12.202,1485,2908.39
21840,-3.705,2.083,8.7209,1545,2908.39
21845,1.7909,3.638,10.0317,1471,2908.39
21850,1.6568,1.8112,11.9566,1487,2908.39
21855,-2.9137,-1.5838,12.5624,1469,2908.39
21860,-4.5083,1.8387,9.08,1477,2908.39
21865,1.5012,3.4979,9.8043,1507,2908.39
21870,2.5319,2.3583,11.722,1483,2908.39
21875,-2.3152,-1.3048,12.7336,1471,2908.39
21880,-5.0721,1.4521,9.5158,1492,2908.39
21885,1.2163,3.3423,9.4535,1513,2908.53
21890,3.0718,2.8132,11.4586,1479,2908.53
21895,-1.7131,-0.911,12.7958,1483,2908.53
21900,-5.2553,0.9254,9.9754,1479,2908.53
21905,0.6393,3.1328,9.0848,1503,2908.24
21910,3.1304,3.2106,11.1259,1484,2908.24
21915,-1.3898,-0.4046,12.6653,1470,2908.24
21920,-5.2816,0.3412,10.5297,1471,2908.24
21925,-0.0227,2.9054,8.8478,1517,2908.24
21930,2.9437,3.5255,10.8781,1481,2908.24
21935,-1.1732,0.0994,12.6546,1469,2908.24
21940,-5.0949,-0.231,11.084,1486,2908.24
21945,-0.8308,2.7533,8.5485,1544,2907.96
21950,2.5953,3.8092,10.6315,1479,2907.96
21955,-0.8284,0.5555,12.5001,1483,2907.96
21960,-4.701,-0.7578,11.5628,1478,2907.96
21965,-1.8268,2.636,8.5892,1543,2907.96
21970,2.3475,3.8714,10.4902,1483,2907.96
21975,-0.2705,0.9254,12.3589,1469,2907.96
21980,-4.0474,-1.2474,11.9782,1479,2907.96
21985,-2.7737,2.3308,8.5976,1543,2908.24
21990,2.1584,3.8068,10.2484,1481,2908.24
21995,0.7195,1.336,12.1123,1479,2908.24
22000,-3.4572,-1.579,12.3074,1485,2908.24
22005,-3.7481,2.0614,8.7448,1547,2908.39
22010,1.8387,3.5937,10.0054,1478,2908.39
22015,1.7142,1.8076,11.9734,1491,2908.39
22020,-2.8706,-1.5921,12.5504,1478,2908.39
22025,-4.4951,1.798,9.1016,1477,2908.39
22030,1.5431,3.4129,9.7241,1511,2908.39
22035,2.5187,2.3272,11.7017,1484,2908.39
22040,-2.3846,-1.3228,12.7719,1469,2908.39
22045,-5.0877,1.4557,9.5624,1489,2908.39
22050,1.1696,3.3172,9.4547,1511,2909.23
22055,3.0095,2.8671,11.3796,1477,2909.23
22060,-1.8375,-0.9014,12.7814,1479,2909.23
22065,-5.2601,0.9876,10.0556,1477,2909.23
22070,0.674,3.1568,9.1447,1509,2908.81
22075,3.1472,3.2765,11.1881,1481,2908.81
22080,-1.4461,-0.3627,12.7539,1477,2908.81
22085,-5.2206,0.3771,10.5692,1479,2908.81
22090,0.0036,2.8958,8.7724,1517,2908.24
22095,2.982,3.5183,10.8804,1480,2908.24
22100,-1.1217,0.0934,12.615,1469,2908.24
22105,-4.9811,-0.334,11.066,1487,2908.24
22110,-0.8464,2.7126,8.6095,1515,2907.4
22115,2.6312,3.7577,10.6877,1477,2907.4
22120,-0.8595,0.5327,12.5037,1483,2907.4
22125,-4.61,-0.844,11.5365,1480,2907.4
22130,-1.798,2.5355,8.5317,1531,2906.7
22135,2.2936,3.8535,10.4746,1485,2906.7
22140,-0.2514,0.9649,12.3385,1471,2906.7
22145,-4.124,-1.2941,11.9794,1481,2906.7
22150,-2.788,2.4014,8.6347,1515,2905.99
22155,2.1261,3.8176,10.3214,1483,2905.99
22160,0.6536,1.3659,12.1027,1479,2905.99
22165,-3.4297,-1.5335,12.3134,1481,2905.99
22170,-3.7218,2.0913,8.7424,1545,2905.99
22175,1.8735,3.6464,10.009,1467,2905.99
22180,1.8172,1.8088,11.8764,1491,2905.99
22185,-2.7964,-1.5957,12.5815,1481,2905.99
22190,-4.5119,1.7334,9.1231,1479,2905.99
22195,1.5479,3.4596,9.7229,1497,2905.57
22200,2.6109,2.3691,11.6574,1483,2905.57
22205,-2.2362,-1.3743,12.706,1471,2905.57
22210,-5.0841,1.3623,9.5864,1487,2905.57
22215,1.1145,3.2801,9.4619,1510,2905.99
22220,3.0107,2.909,11.4251,1478,2905.99
22225,-1.7861,-0.8847,12.8233,1483,2905.99
22230,-5.3032,0.9074,10.1119,1481,2905.99
22235,0.5758,3.1771,9.1159,1500,2905.99
22240,3.1173,3.3866,11.0744,1477,2905.99
22245,-1.4114,-0.261,12.7348,1477,2905.99
22250,-5.2301,0.3256,10.6662,1480,2905.99
22255,-0.1377,2.9592,8.7771,1515,2906.13
22260,2.9676,3.65,10.89,1485,2906.13
22265,-1.142,0.2406,12.5899,1469,2906.13
22270,-4.8686,-0.3531,11.169,1479,2906.13
22275,-1.0044,2.7019,8.5928,1544,2905.99
22280,2.6205,3.7792,10.6075,1477,2905.99
22285,-0.723,0.5974,12.4008,1483,2905.99
22290,-4.4855,-0.9912,11.6717,1471,2905.99
22295,-2.0159,2.466,8.5078,1531,2905.85
22300,2.2386,3.8235,10.3956,1483,2905.85
22305,-0.0718,0.9936,12.2858,1471,2905.85
22310,-3.9552,-1.4018,12.0309,1481,2905.85
22315,-3.0358,2.2889,8.6155,1545,2905.71
22320,1.9932,3.7948,10.246,1481,2905.71
22325,0.8511,1.5191,12.1218,1481,2905.71
22330,-3.3579,-1.5299,12.4379,1480,2905.71
22335,-3.9241,2.0746,8.8837,1544,2905.43
22340,1.7741,3.6799,9.9838,1479,2905.43
22345,1.9656,1.9489,11.8501,1482,2905.43
22350,-2.6635,-1.5119,12.572,1471,2905.43
22355,-4.6448,1.6987,9.1889,1491,2905.43
22360,1.5359,3.4548,9.7049,1496,2905.15
22365,2.7641,2.484,11.5951,1471,2905.15
22370,-2.0387,-1.2498,12.7587,1483,2905.15
22375,-5.0757,1.1947,9.7229,1483,2905.15
22380,0.9852,3.2286,9.3709,1509,2905.43
22385,3.1208,2.9556,11.2587,1479,2905.43
22390,-1.5874,-0.7685,12.7467,1465,2905.43
22395,-5.2876,0.7171,10.2436,1477,2905.43
22400,0.3675,3.0526,9.0561,1514,2904.73
22405,3.0382,3.4309,11.0085,1481,2904.73
22410,-1.312,-0.1688,12.7084,1465,2904.73
22415,-5.2062,0.1173,10.7931,1479,2904.73
22420,-0.3747,2.9125,8.7388,1527,2904.58
22425,2.8072,3.717,10.7595,1484,2904.58
22430,-1.0786,0.334,12.5684,1479,2904.58
22435,-4.81,-0.4513,11.3042,1471,2904.58
22440,-1.2474,2.7186,8.588,1518,2904.73
22445,2.496,3.8331,10.5369,1479,2904.73
22450,-0.5339,0.7661,12.3852,1478,2904.73
22455,-4.3108,-1.0618,11.7603,1477,2904.73
22460,-2.2661,2.4409,8.5246,1543,2905.01
22465,2.2266,3.7613,10.3334,1479,2905.01
22470,0.1748,1.1049,12.1793,1477,2905.01
22475,-3.7469,-1.4784,12.1506,1487,2905.01
22480,-3.2813,2.1955,8.685,1528,2904.87
22485,1.8806,3.717,10.1646,1471,2904.87
22490,1.2043,1.573,12.0285,1484,2904.87
22495,-3.1484,-1.5886,12.457,1471,2904.87
22500,-4.1635,1.9369,8.9866,1481,2904.87
22505,1.6293,3.5183,9.924,1496,2905.71
22510,2.1524,2.1105,11.8908,1483,2905.71
22515,-2.5367,-1.4473,12.7084,1470,2905.71
22520,-4.8363,1.5897,9.3446,1487,2905.71
22525,1.3192,3.3974,9.5852,1504,2905.99
22530,2.9173,2.6647,11.5616,1481,2905.99
22535,-1.8914,-1.0523,12.7862,1483,2905.99
22540,-5.1715,1.0846,9.8378,1477,2905.99
22545,0.8787,3.1783,9.262,1507,2906.13
22550,3.1615,3.0981,11.1905,1483,2906.13
22555,-1.4569,-0.5854,12.7563,1480,2906.13
22560,-5.2397,0.504,10.3669,1477,2906.13
22565,0.2586,3.0023,8.9208,1524,2905.85
22570,2.9975,3.4979,10.9571,1481,2905.85
22575,-1.2617,-0.0826,12.6905,1469,2905.85
22580,-4.4676,-0.9505,11.746,1487,2905.85
22585,-0.6321,2.7952,8.6383,1543,2905.99
22590,2.1775,3.8822,10.3813,1480,2905.99
22595,-0.9194,0.395,12.5133,1485,2905.99
22600,-3.8882,-1.3743,12.0716,1479,2905.99
22605,-1.5251,2.654,8.5976,1531,2906.13
22610,2.0889,3.7254,10.2029,1483,2906.13
22615,1.0846,1.4856,12.0201,1472,2906.13
22620,-3.2394,-1.567,12.4762,1478,2906.13
22625,-3.9887,2.0123,8.9052,1545,2906.55
22630,1.7573,3.5494,9.8964,1485,2906.55
22635,2.0375,1.9513,11.8501,1478,2906.55
22640,-2.6073,-1.5838,12.5803,1483,2906.55
22645,-4.7142,1.6556,9.2512,1543,2906.55
22650,1.4198,3.4129,9.6462,1469,2906.55
22655,2.7509,2.4912,11.643,1487,2906.55
22660,-2.1189,-1.1983,12.7731,1481,2906.55
22665,-5.1799,1.2378,9.7229,1479,2906.55
22670,1.0319,3.2609,9.3075,1511,2907.26
22675,3.0454,3.0358,11.2923,1485,2907.26
22680,-1.7178,-0.6919,12.8329,1470,2907.26
22685,-5.3211,0.747,10.2412,1489,2907.26
22690,0.4118,3.1532,9.0225,1511,2907.4
22695,3.1053,3.462,11.0492,1491,2907.4
22700,-1.3228,-0.1688,12.7156,1482,2907.4
22705,-5.102,0.1125,10.7524,1477,2907.4
22710,-0.3591,2.8563,8.6598,1507,2907.54
22715,2.9006,3.6248,10.7978,1485,2907.54
22720,-0.9637,0.2801,12.6258,1471,2907.54
22725,-4.8267,-0.492,11.3617,1481,2907.54
22730,-1.2222,2.6647,8.588,1513,2907.82
22735,2.5331,3.7792,10.5524,1471,2907.82
22740,-0.5914,0.6357,12.3792,1469,2907.82
22745,-4.3958,-1.081,11.7208,1489,2907.82
22750,-2.1943,2.4217,8.5234,1543,2908.39
22755,2.1703,3.7936,10.4303,1479,2908.39
22760,0.0754,1.0882,12.2954,1483,2908.39
22765,-3.9217,-1.4138,12.1458,1481,2908.39
22770,-3.1244,2.3008,8.6191,1533,2908.53
22775,1.9668,3.802,10.2244,1485,2908.53
22780,1.0702,1.5359,12.0464,1477,2908.53
22785,-3.2693,-1.5993,12.4331,1477,2908.53
22790,-4.0127,2.0387,8.9064,1511,2908.1
22795,1.7897,3.5973,9.9431,1483,2908.1
22800,2.1129,2.0219,11.8238,1479,2908.1
22805,-2.6097,-1.4808,12.6103,1481,2908.1
22810,-4.7166,1.6544,9.2285,1543,2909.09
22815,1.4521,3.383,9.6055,1471,2909.09
22820,2.8204,2.5055,11.5987,1485,2909.09
22825,-2.0111,-1.2067,12.7491,1479,2909.09
22830,-5.1763,1.2246,9.7588,1469,2909.09
22835,0.9936,3.2226,9.329,1499,2908.39
22840,3.0622,2.97,11.2839,1485,2908.39
22845,-1.664,-0.7518,12.7683,1471,2908.39
22850,-5.3415,0.7027,10.2604,1491,2908.39
22855,0.3974,3.0682,8.9938,1501,2909.09
22860,3.0442,3.4165,11.0732,1469,2909.09
22865,-1.4066,-0.1556,12.7383,1479,2909.09
22870,-5.1822,0.1556,10.7955,1477,2909.09
22875,-0.2957,2.8982,8.74,1507,2909.09
22880,2.8706,3.6919,10.738,1483,2909.09
22885,-1.0391,0.3089,12.5971,1479,2909.09
22890,-4.8315,-0.4788,11.2671,1479,2909.09
22895,-1.1923,2.6731,8.5772,1515,2908.95
22900,2.6193,3.8128,10.5596,1480,2908.95
22905,-0.6201,0.6752,12.4391,1471,2908.95
22910,-4.3898,-1.0175,11.7364,1486,2908.95
22915,-2.1368,2.4337,8.4767,1543,2908.81
22920,2.2781,3.7948,10.4064,1477,2908.81
22925,0.0982,1.0654,12.2523,1481,2908.81
22930,-3.9085,-1.3695,12.1661,1471,2908.81
22935,-3.14,2.2386,8.5916,1533,2908.81
22940,1.9644,3.7625,10.2436,1484,2908.81
22945,1.0116,1.5323,12.1039,1477,2908.81
22950,-3.3064,-1.5862,12.4235,1478,2908.81
22955,-4.0031,2.0147,8.8861,1511,2908.81
22960,1.6987,3.5877,9.9778,1484,2908.81
22965,2.0291,2.0087,11.8525,1477,2908.81
22970,-2.6252,-1.4748,12.6498,1484,2908.81
22975,-4.6855,1.7298,9.2979,1543,2908.95
22980,1.4772,3.4524,9.6271,1471,2908.95
22985,2.7833,2.4768,11.5664,1490,2908.95
22990,-2.0387,-1.1995,12.7036,1478,2908.95
22995,-5.1439,1.2761,9.657,1480,2908.95
23000,1.0487,3.2154,9.3398,1503,2908.95
23005,3.1077,2.958,11.3018,1484,2908.95
23010,-1.6053,-0.7458,12.8066,1471,2908.95
23015,-5.3187,0.6524,10.2376,1485,2908.95
23020,0.4298,3.073,9.0214,1509,2908.67
23025,3.0299,3.4069,10.9894,1471,2908.67
23030,-1.3108,-0.2191,12.7407,1479,2908.67
23035,-5.211,0.1065,10.7284,1479,2908.67
23040,-0.3376,2.909,8.7688,1503,2908.81
23045,2.8311,3.6847,10.7919,1483,2908.81
23050,-1.0858,0.2837,12.6354,1477,2908.81
23055,-4.938,-0.425,11.2791,1479,2908.81
23060,-1.1624,2.6803,8.5665,1513,2908.67
23065,2.5965,3.8583,10.5728,1471,2908.67
23070,-0.7458,0.6979,12.4139,1478,2908.67
23075,-4.4029,-0.99,11.7507,1485,2908.67
23080,-2.1548,2.4888,8.5892,1529,2908.81
23085,2.2685,3.8427,10.4016,1477,2908.81
23090,0.0922,1.0654,12.2595,1482,2908.81
23095,-3.9014,-1.3623,12.0883,1471,2908.81
23100,-3.0646,2.2182,8.57,1534,2908.67
23105,2.0279,3.6787,10.2041,1485,2908.67
23110,0.9685,1.5311,12.1254,1479,2908.67
23115,-3.292,-1.5718,12.4379,1477,2908.67
23120,-3.9672,1.992,8.8526,1543,2908.95
23125,1.7011,3.5674,9.9216,1481,2908.95
23130,1.962,1.9908,11.886,1479,2908.95
23135,-2.6983,-1.5119,12.6246,1479,2908.95
23140,-4.7465,1.7322,9.2668,1523,2908.81
23145,1.4569,3.4465,9.6307,1477,2908.81
23150,2.7198,2.5175,11.6598,1487,2908.81
23155,-2.1679,-1.1839,12.7767,1480,2908.81
23160,-5.1236,1.2881,9.7348,1471,2908.81
23165,1.0942,3.2801,9.335,1501,2908.95
23170,3.0825,2.9784,11.327,1483,2908.95
23175,-1.6688,-0.7123,12.7324,1471,2908.95
23180,-5.2972,0.759,10.1754,1491,2908.95
23185,0.486,3.0825,8.9902,1512,2909.23
23190,3.1352,3.383,11.0935,1477,2909.23
23195,-1.3312,-0.2334,12.7539,1471,2909.23
23200,-5.2218,0.1113,10.7224,1481,2909.23
23205,-0.2837,2.8635,8.6874,1510,2908.95
23210,2.8611,3.6679,10.8062,1483,2908.95
23215,-1.1061,0.2011,12.5851,1483,2908.95
23220,-4.9476,-0.4477,11.242,1479,2908.95
23225,-1.1073,2.745,8.606,1515,2908.81
23230,2.5019,3.8176,10.5979,1481,2908.81
23235,-0.7254,0.6979,12.4702,1469,2908.81
23240,-4.5155,-0.929,11.7041,1490,2908.81
23245,-2.0746,2.5007,8.5329,1545,2909.09
23250,2.2829,3.8654,10.3872,1481,2909.09
23255,-0.0132,1.0642,12.2751,1479,2909.09
23260,-3.96,-1.3084,12.1374,1478,2909.09
23265,-3.0538,2.314,8.6275,1529,2909.37
23270,2.0351,3.7529,10.2173,1484,2909.37
23275,0.9397,1.4617,12.1015,1479,2909.37
23280,-3.3196,-1.6089,12.4223,1479,2909.37
23285,-3.954,2.0087,8.8023,1543,2909.37
23290,1.7992,3.571,9.9467,1485,2909.37
23295,1.98,1.968,11.9195,1481,2909.37
23300,-2.7605,-1.5802,12.6605,1492,2909.37
23305,-4.6998,1.7274,9.1901,1533,2909.37
23310,1.4473,3.4393,9.6738,1483,2909.37
23315,2.6647,2.4624,11.625,1487,2909.37
23320,-2.1907,-1.2222,12.7096,1479,2909.37
23325,-5.1332,1.3024,9.663,1479,2909.37
23330,1.0606,3.2992,9.317,1513,2909.66
23335,3.0598,2.9485,11.3832,1480,2909.66
23340,-1.7226,-0.8092,12.7719,1469,2909.66
23345,-5.3139,0.8248,10.1263,1487,2909.66
23350,0.5447,3.1089,9.0178,1505,2909.51
23355,3.0933,3.3411,11.0624,1477,2909.51
23360,-1.3575,-0.2945,12.791,1480,2909.51
23365,-5.1954,0.1915,10.6925,1479,2909.51
23370,-0.1724,2.9066,8.7412,1509,2909.51
23375,2.9377,3.614,10.823,1483,2909.51
23380,-1.1205,0.2047,12.6378,1478,2909.51
23385,-4.9153,-0.3627,11.1941,1480,2909.51
23390,-1.0139,2.7222,8.5641,1516,2909.51
23395,2.6049,3.7601,10.6171,1479,2909.51
23400,-0.6955,0.6009,12.4774,1471,2909.51
23405,-4.5298,-0.9385,11.6238,1491,2909.51
23410,-1.9489,2.4972,8.5305,1545,2909.94
23415,2.3272,3.8523,10.4603,1471,2909.94
23420,-0.1077,1.0199,12.2727,1481,2909.94
23425,-4.051,-1.3072,11.995,1471,2909.94
23430,-2.9257,2.3619,8.5772,1532,2909.94
23435,2.0746,3.802,10.24,1483,2909.94
23440,0.7781,1.3958,12.1326,1479,2909.94
23445,-3.4105,-1.5874,12.39,1481,2909.94
23450,-3.8595,2.1153,8.7927,1513,2909.37
23455,1.8016,3.6775,10.0126,1481,2909.37
23460,1.8842,1.8507,11.9124,1469,2909.37
23465,-2.8491,-1.5562,12.6091,1483,2909.37
23470,-4.5801,1.7777,9.0776,1545,2911.07
23475,1.5969,3.4596,9.6798,1469,2911.07
23480,2.6612,2.3619,11.6753,1491,2911.07
23485,-2.229,-1.3575,12.7096,1480,2911.07
23490,-5.0518,1.3659,9.5636,1479,2911.07
23495,1.1875,3.2813,9.3769,1507,2910.5
23500,3.0682,2.8706,11.4359,1483,2910.5
23505,-1.7813,-0.9158,12.8102,1471,2910.5
23510,-5.3283,0.9014,10.0521,1489,2910.5
23515,0.6081,3.1771,9.0848,1511,2910.36
23520,3.0909,3.2932,11.1318,1472,2910.36
23525,-1.4772,-0.3567,12.7527,1481,2910.36
23530,-5.284,0.3208,10.574,1479,2910.36
23535,-0.0634,2.9616,8.8035,1507,2910.5
23540,2.9904,3.6308,10.8769,1485,2910.5
23545,-1.1277,0.1365,12.6869,1477,2910.5
23550,-5.0242,-0.2646,11.1666,1479,2910.5
23555,-0.8368,2.709,8.5425,1517,2910.78
23560,2.7306,3.8092,10.6135,1481,2910.78
23565,-0.8404,0.5207,12.4463,1468,2910.78
23570,-4.5837,-0.8056,11.5796,1486,2910.78
23575,-1.7968,2.5199,8.4479,1509,2910.36
23580,2.393,3.8559,10.4806,1471,2910.36
23585,-0.2239,0.8547,12.3313,1483,2910.36
23590,-4.0989,-1.2989,11.8884,1479,2910.36
23595,-2.721,2.3475,8.5102,1531,2911.35
23600,2.077,3.7517,10.1933,1487,2911.35
23605,0.6596,1.3168,12.0668,1479,2911.35
23610,-3.5733,-1.5754,12.3385,1471,2911.35
23615,-3.6691,2.1153,8.7197,1542,2911.07
23620,1.8711,3.6595,10.0748,1483,2911.07
23625,1.5874,1.8064,11.9734,1477,2911.07
23630,-2.9784,-1.5538,12.5743,1491,2911.07
23635,-4.4532,1.8615,9.0477,1545,2910.64
23640,1.5874,3.5243,9.7935,1469,2910.64
23645,2.4864,2.2745,11.7436,1493,2910.64
23650,-2.32,-1.3958,12.7635,1478,2910.64
23655,-4.9668,1.4904,9.5229,1482,2910.64
23660,1.2605,3.3794,9.499,1497,2910.93
23665,3.0442,2.806,11.479,1483,2910.93
23670,-1.8328,-0.9708,12.785,1469,2910.93
23675,-5.2816,0.9948,9.9347,1491,2910.93
23680,0.7853,3.1867,9.1854,1501,2911.35
23685,3.1711,3.1627,11.1474,1478,2911.35
23690,-1.4712,-0.4956,12.7719,1481,2911.35
23695,-5.3163,0.4477,10.4423,1477,2911.35
23700,0.1006,2.9951,8.8693,1511,2911.77
23705,2.9892,3.5267,10.8852,1484,2911.77
23710,-1.2737,-0.0251,12.7395,1478,2911.77
23715,-5.1535,-0.1209,10.9714,1471,2911.77
23720,-0.6524,2.7689,8.6,1519,2912.2
23725,2.7569,3.7685,10.647,1479,2912.2
23730,-0.9697,0.4752,12.5851,1471,2912.2
23735,-4.7477,-0.6141,11.479,1479,2912.2
23740,-1.5024,2.6049,8.5186,1535,2912.34
23745,2.4732,3.8786,10.4806,1479,2912.34
23756,-15.2475,-1.0618,16.9318,1480,2912.34
23760,-2.4624,2.3571,8.5353,1526,2912.48
23765,2.1931,3.8331,10.3274,1479,2912.48
23770,0.3807,1.1791,12.2535,1477,2912.48
23775,-3.7517,-1.4916,12.2164,1477,2912.48
23780,-3.3471,2.1895,8.6443,1545,2912.2
23785,1.9213,3.7158,10.088,1481,2912.2
23790,1.3132,1.6544,12.0632,1483,2912.2
23795,-3.1627,-1.646,12.5229,1483,2912.2
23800,-4.2018,1.9034,8.9172,1518,2911.63
23805,1.6903,3.5111,9.9084,1478,2911.63
23810,2.1524,2.1033,11.8561,1490,2911.63
23815,-2.6061,-1.4928,12.6569,1469,2911.63
23820,-4.8423,1.6005,9.3302,1479,2911.63
23825,1.3767,3.3746,9.5792,1511,2911.77
23830,2.8264,2.6085,11.5831,1479,2911.77
23835,-2.0375,-1.1181,12.7994,1477,2911.77
23840,-5.2241,1.1839,9.8102,1493,2911.77
23845,0.9649,3.2597,9.268,1497,2911.63
23850,3.1627,3.0454,11.3198,1479,2911.63
23855,-1.5742,-0.65,12.7767,1481,2911.63
23860,-5.3319,0.6512,10.2915,1478,2911.63
23865,0.3831,3.0335,8.9866,1507,2911.35
23870,3.1244,3.4285,10.9726,1481,2911.35
23875,-1.3012,-0.1592,12.7455,1468,2911.35
23880,-5.1822,0.0132,10.8206,1479,2911.35
23885,-0.3867,2.8443,8.7101,1517,2911.35
23890,2.8252,3.6619,10.7751,1479,2911.35
23895,-1.0546,0.2801,12.5935,1470,2911.35
23900,-4.8985,-0.5112,11.3437,1481,2911.35
23905,-1.2318,2.6396,8.5533,1529,2911.63
23910,2.5187,3.8415,10.5465,1483,2911.63
23915,-0.6859,0.7338,12.4953,1479,2911.63
23920,-4.4688,-1.0032,11.7843,1471,2911.63
23925,-2.1679,2.4517,8.4563,1543,2911.63
23930,2.2745,3.8511,10.3441,1478,2911.63
23935,0.0287,1.0942,12.2966,1479,2911.63
23940,-3.9037,-1.397,12.135,1478,2911.63
23945,-3.1256,2.2889,8.6179,1541,2911.77
23950,2.0411,3.7984,10.143,1479,2911.77
23955,1.0331,1.5311,12.0919,1481,2911.77
23960,-3.2549,-1.5921,12.457,1485,2911.77
23965,-3.9828,1.9992,8.819,1541,2912.06
23970,1.7597,3.5805,9.8952,1483,2912.06
23975,1.98,1.9453,11.9207,1484,2912.06
23980,-2.7402,-1.5718,12.6534,1480,2912.06
23985,-4.6711,1.7095,9.2392,1529,2911.77
23990,1.5012,3.4536,9.6486,1472,2911.77
23995,2.6647,2.5055,11.6646,1481,2911.77
24000,-2.2075,-1.3144,12.8078,1477,2911.77
24005,-5.1224,1.2617,9.6043,1490,2911.77
24010,1.0846,3.2681,9.3254,1499,2912.2
24015,3.0813,2.958,11.3521,1479,2912.2
24020,-1.7502,-0.7793,12.8413,1479,2912.2
24025,-5.3307,0.8667,10.1263,1483,2912.2
24030,0.5555,3.1232,9.0644,1510,2911.77
24035,3.1256,3.3758,11.0636,1479,2911.77
24040,-1.3683,-0.2921,12.7539,1471,2911.77
24045,-5.2301,0.2071,10.6195,1481,2911.77
24050,-0.1281,2.9305,8.7771,1511,2911.07
24055,2.9377,3.6739,10.8242,1481,2911.07
24060,-1.1552,0.2095,12.6821,1477,2911.07
24065,-4.9237,-0.3747,11.133,1477,2911.07
24070,-0.9768,2.7114,8.5305,1509,2910.64
24075,2.5534,3.7685,10.6231,1482,2910.64
24080,-0.753,0.565,12.4953,1471,2910.64
24085,-4.6005,-0.9337,11.5604,1481,2910.64
24090,-1.8842,2.4995,8.5377,1543,2910.5
24095,2.3044,3.8499,10.4471,1479,2910.5
24100,-0.1951,0.9936,12.3589,1482,2910.5
24105,-4.118,-1.2605,11.995,1481,2910.5
24110,-2.8623,2.3571,8.5485,1541,2910.22
24115,2.053,3.8199,10.2735,1481,2910.22
24120,0.6979,1.3671,12.2009,1477,2910.22
24125,-3.4764,-1.5514,12.3457,1481,2910.22
24130,-3.7529,2.1368,8.8202,1544,2910.08
24135,1.8735,3.6871,10.0353,1480,2910.08
24140,1.743,1.8292,11.9064,1481,2910.08
24145,-2.824,-1.5778,12.5732,1484,2910.08
24150,-4.4831,1.798,9.0956,1541,2909.66
24155,1.6053,3.4692,9.7049,1470,2909.66
24160,2.5786,2.3487,11.7543,1480,2909.66
24165,-2.2541,-1.3743,12.7539,1478,2909.66
24170,-5.0135,1.3838,9.5193,1483,2909.66
24175,1.1959,3.2789,9.3865,1501,2910.22
24180,3.0299,2.8455,11.4263,1487,2910.22
24185,-1.8316,-0.9385,12.7994,1479,2910.22
24190,-5.3044,0.8882,10.0173,1482,2910.22
24195,0.6728,3.1077,9.0992,1510,2909.8
24200,3.0694,3.2789,11.1378,1479,2909.8
24205,-1.4772,-0.3783,12.7862,1479,2909.8
24210,-5.272,0.395,10.5524,1481,2909.8
24215,0.0491,2.9772,8.7831,1495,2909.37
24220,2.9987,3.6571,10.835,1481,2909.37
24225,-1.2103,0.1472,12.6581,1472,2909.37
24230,-4.9811,-0.2083,11.0864,1478,2909.37
24235,-0.7853,2.7665,8.6072,1512,2909.37
24240,2.7222,3.8032,10.6315,1483,2909.37
24245,-0.8332,0.5112,12.4929,1471,2909.37
24250,-4.5837,-0.8009,11.5101,1481,2909.37
24255,-1.6987,2.5379,8.4851,1543,2909.66
24260,2.3978,3.8164,10.4938,1479,2909.66
24265,-0.261,0.9254,12.3637,1480,2909.66
24270,-4.1432,-1.2605,11.9854,1481,2909.66
24275,-2.7066,2.3092,8.5485,1542,2909.66
24280,2.0686,3.7613,10.2568,1479,2909.66
24285,0.5902,1.2929,12.1554,1479,2909.66
24290,-3.5973,-1.5502,12.2894,1480,2909.66
24295,-3.6464,2.15,8.7329,1517,2909.8
24300,1.8687,3.7098,10.0748,1483,2909.8
24305,1.6041,1.8471,11.9507,1481,2909.8
24310,-2.976,-1.5502,12.6402,1483,2909.8
24315,-4.446,1.9022,9.1123,1533,2910.08
24320,1.5886,3.5374,9.8186,1477,2910.08
24325,2.5414,2.2398,11.5939,1485,2910.08
24330,-2.2613,-1.3934,12.6139,1471,2910.08
24335,-4.9871,1.47,9.3829,1481,2910.08
24340,1.257,3.3303,9.4571,1499,2910.08
24345,3.0454,2.7677,11.558,1484,2910.08
24350,-1.8471,-0.9613,12.9514,1479,2910.08
24355,-5.2984,0.9864,9.9862,1485,2910.08
24360,0.7757,3.146,9.0202,1511,2910.36
24365,3.1508,3.1855,11.0109,1477,2910.36
24370,-1.5155,-0.4848,12.7994,1481,2910.36
24375,-5.302,0.3855,10.6075,1480,2910.36
24380,0.0479,3.0023,8.8981,1511,2910.5
24385,2.9449,3.6105,10.9822,1482,2910.5
24390,-1.3096,0.0072,12.7144,1479,2910.5
24395,-5.0434,-0.1065,10.9642,1482,2910.5
24400,-0.6991,2.7857,8.5485,1515,2910.64
24405,2.7485,3.7529,10.5884,1482,2910.64
24410,-0.9912,0.4633,12.5923,1466,2910.64
24415,-4.6795,-0.6584,11.5963,1480,2910.64
24420,-1.5706,2.6133,8.5868,1545,2910.78
24425,2.4289,3.8846,10.507,1480,2910.78
24430,-0.4214,0.893,12.3661,1480,2910.78
24435,-4.1587,-1.2103,11.7926,1478,2910.78
24440,-2.5175,2.3882,8.4743,1533,2910.5
24445,2.2015,3.7781,10.3262,1485,2910.5
24450,0.4525,1.239,12.3014,1479,2910.5
24455,-3.6248,-1.5119,12.2547,1479,2910.5
24460,-3.4728,2.1141,8.6538,1547,2910.08
24465,1.8747,3.6368,10.0808,1484,2910.08
24470,1.4126,1.6747,11.995,1477,2910.08
24475,-3.0418,-1.5658,12.4834,1483,2910.08
24480,-4.3754,1.8902,9.0453,1541,2910.93
24485,1.5886,3.486,9.8629,1479,2910.93
24490,2.2829,2.2075,11.8752,1485,2910.93
24495,-2.4756,-1.3994,12.6629,1482,2910.93
24500,-4.9249,1.573,9.3518,1477,2910.93
24505,1.3575,3.4393,9.4906,1503,2911.63
24510,2.9975,2.7102,11.4778,1489,2911.63
24515,-1.9728,-1.0487,12.7934,1471,2911.63
24520,-5.2134,1.1157,9.9048,1487,2911.63
24525,0.9158,3.1735,9.2225,1501,2912.62
24530,3.225,3.0909,11.2132,1479,2912.62
24535,-1.567,-0.6009,12.7443,1483,2912.62
24540,-5.2828,0.5315,10.2747,1479,2912.62
24545,0.2478,3.0394,8.8992,1509,2912.2
24550,3.0706,3.4477,11.0097,1486,2912.2
24555,-1.3024,-0.1053,12.7324,1481,2912.2
24560,-5.1487,-0.0215,10.9044,1479,2912.2
24565,-0.5291,2.7916,8.6036,1515,2911.77
24570,2.7821,3.7362,10.6829,1481,2911.77
24575,-1.0355,0.3268,12.5708,1470,2911.77
24580,-4.859,-0.5698,11.3342,1491,2911.77
24585,-1.3001,2.6659,8.5401,1507,2910.93
24590,2.5223,3.8966,10.5357,1471,2910.93
24595,-0.6333,0.7602,12.457,1481,2910.93
24600,-4.3191,-0.9984,11.7914,1477,2910.93
24605,-2.2721,2.4481,8.4743,1533,2911.21
24610,2.2482,3.8391,10.3322,1486,2911.21
24615,0.1448,1.1528,12.299,1479,2911.21
24620,-3.7804,-1.4269,12.2296,1471,2911.21
24625,-3.207,2.2386,8.6215,1541,2910.93
24630,2.0399,3.7661,10.2113,1483,2910.93
24635,1.1241,1.5095,12.0991,1470,2910.93
24640,-3.2214,-1.6233,12.3936,1485,2910.93
24645,-4.0438,1.9668,8.7771,1548,2910.93
24650,1.7681,3.5231,9.9347,1479,2910.93
24655,2.0746,1.9668,11.9459,1491,2910.93
24660,-2.6767,-1.5239,12.6893,1469,2910.93
24665,-4.7633,1.6352,9.3099,1479,2910.93
24670,1.3898,3.4381,9.6426,1509,2911.07
24675,2.7605,2.5594,11.6717,1484,2911.07
24680,-2.1237,-1.2402,12.7336,1469,2911.07
24685,-5.2026,1.2881,9.6738,1491,2911.07
24690,1.0391,3.2621,9.3781,1511,2911.35
24695,3.1292,3.0047,11.3389,1479,2911.35
24700,-1.6939,-0.6979,12.8329,1481,2911.35
24705,-5.3127,0.723,10.1945,1478,2911.35
24710,0.4705,3.0921,8.9687,1503,2911.77
24715,3.1627,3.377,10.9846,1481,2911.77
24720,-1.2845,-0.2083,12.7695,1479,2911.77
24725,-5.1775,0.1125,10.7488,1479,2911.77
24730,-0.2586,2.8994,8.7388,1519,2912.2
24735,2.8742,3.6739,10.7583,1479,2912.2
24740,-1.0546,0.1963,12.6067,1471,2912.2
24745,-4.938,-0.4477,11.1905,1481,2912.2
24750,-1.0738,2.7222,8.5222,1531,2912.48
24755,2.5905,3.79,10.5788,1479,2912.48
24760,-0.747,0.6021,12.4786,1481,2912.48
24765,-4.5669,-0.9756,11.7017,1471,2912.48
24770,-1.9668,2.5307,8.4958,1533,2912.9
24775,2.3044,3.863,10.3956,1479,2912.9
24780,-0.0874,1.0175,12.3254,1471,2912.9
24785,-4.0917,-1.3252,12.0596,1479,2912.9
24790,-2.9113,2.3439,8.5653,1531,2913.19
24795,2.1093,3.8559,10.2256,1470,2913.19
24800,0.8428,1.4377,12.2332,1477,2913.19
24805,-3.4943,-1.5395,12.4307,1486,2913.19
24810,-3.7577,2.0853,8.7125,1516,2913.61
24815,1.9154,3.6703,9.93,1477,2913.61
24820,1.804,1.8328,11.9782,1483,2913.61
24825,-2.8335,-1.5682,12.5708,1477,2913.61
24830,-4.4939,1.7897,9.0704,1511,2913.61
24835,1.6113,3.4752,9.7312,1470,2913.61
24840,2.563,2.3092,11.7555,1479,2913.61
24845,-2.3284,-1.3324,12.7515,1479,2913.61
24850,-5.0566,1.4293,9.4739,1493,2913.61
24855,1.2402,3.3447,9.4104,1497,2913.75
24860,2.9724,2.8252,11.406,1481,2913.75
24865,-1.9333,-0.9673,12.8856,1471,2913.75
24870,-5.278,0.9613,10.0197,1483,2913.75
24875,0.7638,3.1364,9.1231,1501,2913.47
24880,3.1699,3.2765,11.2073,1479,2913.47
24885,-1.5203,-0.4717,12.7779,1469,2913.47
24890,-5.2852,0.4561,10.5189,1481,2913.47
24895,0.1317,2.9772,8.8143,1517,2913.47
24900,3.0634,3.5602,10.9152,1481,2913.47
24905,-1.2139,0.0,12.7348,1471,2913.47
24910,-5.0996,-0.1329,10.9774,1479,2913.47
24915,-0.6393,2.7605,8.6084,1514,2913.19
24920,2.8299,3.7397,10.6781,1481,2913.19
24925,-0.8894,0.4393,12.5815,1469,2913.19
24930,-4.6759,-0.7362,11.4311,1482,2913.19
24935,-1.5107,2.5917,8.5066,1535,2913.33
24940,2.4648,3.7984,10.5046,1478,2913.33
24945,-0.407,0.8045,12.4127,1483,2913.33
24950,-4.3311,-1.166,11.9016,1479,2913.33
24955,-2.4804,2.4026,8.5042,1531,2913.61
24960,2.1823,3.8427,10.3561,1481,2913.61
24965,0.3555,1.1768,12.287,1471,2913.61
24970,-3.8032,-1.4605,12.2044,1472,2913.61
24975,-3.4297,2.2553,8.6,1548,2913.75
24980,1.9561,3.7362,10.1107,1481,2913.75
24985,1.2905,1.5993,12.0764,1480,2913.75
24990,-3.1879,-1.579,12.5169,1485,2913.75
24995,-4.1743,1.992,8.9783,1503,2913.47
25000,1.7717,3.6045,9.8497,1477,2913.47
25005,2.2853,2.065,11.8669,1489,2913.47
25010,-2.6049,-1.4629,12.7216,1479,2913.47
25015,-4.792,1.6436,9.268,1480,2913.47
25020,1.4928,3.3926,9.5708,1501,2913.33
25025,2.897,2.5881,11.649,1482,2913.33
25030,-2.1021,-1.16,12.8054,1471,2913.33
25035,-5.1619,1.1684,9.7492,1487,2913.33
25040,0.972,3.2178,9.2775,1509,2913.47
25045,3.1089,2.9892,11.2934,1479,2913.47
25050,-1.6891,-0.7362,12.8257,1481,2913.47
25055,-5.3295,0.6919,10.2436,1471,2913.47
25060,0.4453,3.0873,8.9423,1509,2913.33
25065,3.14,3.4285,11.0983,1485,2913.33
25070,-1.3743,-0.1772,12.7683,1477,2913.33
25075,-5.2206,0.1616,10.7811,1477,2913.33
25080,-0.2239,2.8599,8.6766,1514,2913.47
25085,2.9544,3.6763,10.8362,1484,2913.47
25090,-1.1815,0.2646,12.6689,1478,2913.47
25095,-4.8961,-0.4238,11.2444,1487,2913.47
25100,-1.0654,2.7031,8.4982,1545,2913.61
25105,2.6671,3.8247,10.562,1481,2913.61
25110,-0.6644,0.6512,12.4882,1483,2913.61
25115,-4.5334,-0.9325,11.649,1471,2913.61
25120,-1.9836,2.4816,8.4671,1531,2914.04
25125,2.3535,3.7769,10.4028,1481,2914.04
25130,-0.0407,0.9661,12.3325,1479,2914.04
25135,-4.112,-1.3431,12.0632,1479,2914.04
25140,-2.909,2.314,8.5808,1533,2914.46
25145,2.0351,3.7637,10.2161,1483,2914.46
25150,0.7925,1.3898,12.1841,1478,2914.46
25155,-3.5267,-1.6065,12.3613,1487,2914.46
25160,-3.802,2.1021,8.7484,1513,2914.6
25165,1.7849,3.6751,10.0449,1477,2914.6
25170,1.7813,1.7909,11.9794,1490,2914.6
25175,-2.9329,-1.5526,12.6174,1471,2914.6
25180,-4.5777,1.8411,9.0692,1481,2914.89
25185,1.6293,3.5183,9.7408,1515,2914.89
25190,2.5786,2.3032,11.6933,1479,2914.89
25195,-2.381,-1.2977,12.8006,1477,2914.89
25200,-5.041,1.4593,9.4954,1493,2914.89
25205,1.2761,3.3351,9.4176,1504,2915.45
25210,3.0586,2.7318,11.4419,1480,2915.45
25215,-1.895,-0.9565,12.8545,1471,2915.45
25220,-5.2732,0.978,9.9156,1481,2915.45
25225,0.7649,3.1412,9.0656,1509,2915.59
25230,3.1867,3.1615,11.1761,1481,2915.59
25235,-1.5538,-0.5231,12.7922,1467,2915.59
25240,-5.3271,0.4609,10.4926,1481,2915.59
25245,0.1604,2.9592,8.8298,1515,2915.03
25250,3.0347,3.5027,10.9188,1480,2915.03
25255,-1.2845,0.0048,12.8018,1471,2915.03
25260,-5.2014,-0.0575,10.9295,1482,2915.03
25265,-0.5926,2.7964,8.5928,1514,2914.89
25270,2.818,3.7745,10.7524,1483,2914.89
25275,-1.0295,0.4417,12.6354,1479,2914.89
25280,-4.8375,-0.5986,11.3677,1483,2914.89
25285,-1.3731,2.6372,8.4934,1543,2914.46
25290,2.5558,3.893,10.4531,1480,2914.46
25295,-0.6057,0.8104,12.4714,1481,2914.46
25300,-4.3084,-1.0965,11.8262,1481,2914.46
25305,-2.3152,2.4122,8.4611,1529,2914.46
25310,2.2709,3.8343,10.2831,1481,2914.46
25315,0.2011,1.172,12.2954,1471,2914.46
25320,-3.8523,-1.4676,12.1482,1481,2914.46
25325,-3.2226,2.2098,8.6048,1548,2914.32
25330,1.9992,3.6978,10.1071,1483,2914.32
25335,1.1396,1.5311,12.1087,1479,2914.32
25340,-3.2884,-1.585,12.4798,1483,2914.32
25345,-4.1108,1.9956,8.8729,1511,2914.18
25350,1.6819,3.5901,9.8964,1470,2914.18
25355,2.0375,2.0315,11.9351,1487,2914.18
25360,-2.715,-1.5371,12.6581,1480,2914.18
25365,-4.7309,1.6484,9.1949,1471,2914.18
25370,1.4341,3.4321,9.6666,1503,2913.89
25375,2.7593,2.5271,11.655,1483,2913.89
25380,-2.2039,-1.2234,12.7922,1478,2913.89
25385,-5.199,1.3144,9.7193,1491,2913.89
25390,1.0762,3.2645,9.3326,1513,2913.75
25395,3.1771,3.0095,11.3342,1476,2913.75
25400,-1.6795,-0.7626,12.7647,1481,2913.75
25405,-5.3163,0.8009,10.1574,1480,2913.75
25410,0.51,3.0742,8.9687,1501,2913.75
25415,3.1735,3.3435,11.1103,1485,2913.75
25420,-1.3384,-0.2813,12.8066,1479,2913.75
25425,-5.2768,0.2155,10.6913,1479,2913.75
25430,-0.1197,2.8778,8.758,1515,2913.61
25435,2.9904,3.6368,10.8074,1479,2913.61
25440,-1.1708,0.1353,12.6282,1471,2913.61
25445,-5.0434,-0.3867,11.1582,1485,2913.61
25450,-0.9397,2.7222,8.5964,1517,2913.61
25455,2.6504,3.7996,10.6362,1479,2913.61
25460,-0.8954,0.6285,12.5672,1482,2913.61
25465,-4.6471,-0.8356,11.6083,1469,2913.61
25470,-1.8878,2.5283,8.4479,1531,2913.47
25475,2.387,3.8762,10.4208,1479,2913.47
25480,-0.2753,0.9888,12.4235,1477,2913.47
25485,-4.1025,-1.2617,12.0273,1471,2913.47
25490,-2.739,2.3188,8.5234,1554,2913.47
25495,2.2087,3.8487,10.2723,1483,2913.47
25500,0.6668,1.3324,12.1709,1477,2913.47
25505,-3.5937,-1.5239,12.287,1490,2913.47
25510,-3.6212,2.0853,8.6921,1509,2913.33
25515,1.9609,3.6883,10.0042,1476,2913.33
25520,1.6388,1.7801,12.0021,1485,2913.33
25525,-3.0143,-1.6257,12.5971,1477,2913.33
25530,-4.4137,1.816,9.0441,1485,2913.33
25535,1.6233,3.4716,9.7719,1513,2914.18
25540,2.4696,2.2649,11.7723,1477,2914.18
25545,-2.4565,-1.409,12.7539,1472,2914.18
25550,-4.9488,1.5,9.4116,1493,2914.18
25555,1.2989,3.3375,9.4727,1501,2914.18
25560,2.9975,2.7653,11.5125,1479,2914.18
25565,-1.9788,-1.0211,12.8221,1479,2914.18
25570,-5.2684,1.0546,9.8952,1479,2914.18
25575,0.8547,3.2022,9.165,1507,2914.6
25580,3.237,3.1508,11.2001,1480,2914.6
25585,-1.5862,-0.5207,12.791,1467,2914.6
25590,-5.3079,0.5399,10.3621,1481,2914.6
25595,0.2478,3.0478,8.8957,1515,2914.6
25600,3.0969,3.5015,10.9475,1484,2914.6
25605,-1.257,-0.0407,12.7647,1477,2914.6
25610,-5.1571,-0.0826,10.8804,1480,2914.6
25615,-0.4645,2.8431,8.5964,1503,2914.74
25620,2.8479,3.7362,10.7093,1484,2914.74
25625,-0.9792,0.3735,12.6474,1478,2914.74
25630,-4.877,-0.6141,11.3844,1479,2914.74
25635,-1.312,2.6695,8.5126,1531,2914.89
25640,2.5319,3.8439,10.5129,1479,2914.89
25645,-0.6093,0.7661,12.5001,1480,2914.89
25650,-4.4939,-1.1145,11.825,1481,2914.89
25655,-2.2757,2.4457,8.5018,1535,2914.74
25660,2.2817,3.8846,10.3621,1483,2914.74
25665,0.0347,1.1181,12.4115,1479,2914.74
25670,-3.9002,-1.3755,12.1853,1481,2914.74
25675,-3.1364,2.2601,8.5353,1548,2915.03
25680,2.0698,3.8259,10.1335,1482,2915.03
25685,1.0259,1.5263,12.1554,1480,2915.03
25690,-3.3232,-1.5574,12.457,1484,2915.03
25695,-3.9899,2.0267,8.8047,1511,2915.88
25700,1.8196,3.6559,9.8737,1471,2915.88
25705,2.0135,1.9309,11.9231,1491,2915.88
25710,-2.8371,-1.5694,12.6893,1481,2915.88
25715,-4.6412,1.7406,9.1566,1479,2915.88
25720,1.5754,3.4034,9.6259,1507,2915.31
25725,2.7102,2.4014,11.7304,1484,2915.31
25730,-2.2661,-1.3336,12.797,1469,2915.31
25735,-5.0841,1.3108,9.6223,1491,2915.31
25740,1.1516,3.3016,9.3649,1507,2915.03
25745,3.1053,2.891,11.4443,1477,2915.03
25750,-1.8459,-0.905,12.8138,1481,2915.03
25755,-5.3498,0.8799,10.0509,1479,2915.03
25760,0.7242,3.1568,9.0656,1506,2915.03
25765,3.2334,3.3483,11.2037,1490,2915.03
25770,-1.5155,-0.3699,12.7719,1467,2915.03
25775,-5.2744,0.3663,10.6171,1481,2915.03
25780,0.0239,2.9688,8.7712,1512,2915.74
25785,3.0287,3.5985,10.8409,1479,2915.74
25790,-1.1995,0.1065,12.621,1471,2915.74
25795,-5.1188,-0.2358,11.0109,1483,2915.74
25800,-0.674,2.7928,8.5712,1507,2916.02
25805,2.8048,3.7948,10.6925,1481,2916.02
25810,-0.911,0.4932,12.6115,1483,2916.02
25815,-4.7369,-0.7817,11.5041,1477,2916.02
25820,-1.6017,2.5678,8.4671,1531,2917.01
25825,2.4469,3.8307,10.4459,1479,2917.01
25830,-0.431,0.8248,12.3756,1477,2917.01
25835,-4.294,-1.239,11.9016,1479,2917.01
25840,-2.5019,2.4313,8.4647,1543,2918.29
25845,2.1751,3.8283,10.2999,1479,2918.29
25850,0.3651,1.1899,12.317,1479,2918.29
25855,-3.8319,-1.5227,12.311,1485,2918.29
25860,-3.3519,2.2134,8.6036,1533,2918.43
25865,1.9908,3.7792,10.0772,1478,2918.43
25870,1.245,1.6113,12.1266,1481,2918.43
25875,-3.2777,-1.6089,12.5241,1471,2918.43
25880,-4.0989,2.0303,8.9148,1545,2917.86
25885,1.828,3.6739,9.8988,1471,2917.86
25890,2.1284,2.0554,11.9447,1483,2917.86
25895,-2.6863,-1.5191,12.7527,1479,2917.86
25900,-4.7453,1.6903,9.177,1487,2917.86
25905,1.5634,3.4153,9.5217,1497,2917.44
25910,2.8563,2.4995,11.6562,1483,2917.44
25915,-2.1919,-1.2869,12.7599,1469,2917.44
25920,-5.1619,1.2689,9.6247,1487,2917.44
25925,1.1349,3.2537,9.2931,1510,2917.29
25930,3.1268,2.9461,11.4168,1479,2917.29
25935,-1.7633,-0.9002,12.8593,1481,2917.29
25940,-5.3606,0.7925,10.0676,1479,2917.29
25945,0.6416,3.0957,8.9603,1509,2917.01
25950,3.1556,3.3555,11.1235,1485,2917.01
25955,-1.506,-0.3412,12.8317,1477,2917.01
25960,-5.3127,0.322,10.6243,1479,2917.01
25965,-0.0443,3.0095,8.7293,1512,2916.87
25970,3.0191,3.6655,10.8673,1481,2916.87
25975,-1.2067,0.1556,12.6869,1470,2916.87
25980,-5.1188,-0.2729,11.0492,1485,2916.87
25985,-0.7949,2.7533,8.5389,1541,2917.44
25990,2.8024,3.8152,10.6841,1476,2917.44
25995,-0.8619,0.5435,12.651,1480,2917.44
26000,-4.6878,-0.7865,11.5341,1479,2917.44
26005,-1.6197,2.5845,8.4036,1528,2918.15
26010,2.4924,3.8355,10.3908,1479,2918.15
26015,-0.3543,0.8296,12.4606,1471,2918.15
26020,-4.2665,-1.2558,11.8824,1471,2918.15
26025,-2.5618,2.3523,8.4755,1543,2917.58
26030,2.1751,3.7769,10.2831,1495,2917.58
26035,0.4669,1.1791,12.3409,1478,2917.58
26040,-3.8379,-1.567,12.232,1486,2917.58
26045,-3.4165,2.2003,8.5904,1543,2917.58
26050,1.9632,3.7302,10.1239,1477,2917.58
26055,1.306,1.6316,12.1218,1485,2917.58
26060,-3.2908,-1.6221,12.5289,1478,2917.58
26065,-4.1899,1.9956,8.9364,1511,2917.72
26070,1.7322,3.5698,9.8641,1480,2917.72
26075,2.2146,2.0722,11.9447,1481,2917.72
26080,-2.6839,-1.4772,12.6725,1477,2917.72
26085,-4.8303,1.6987,9.2285,1495,2917.72
26090,1.5287,3.4177,9.4918,1494,2917.86
26095,2.9042,2.5139,11.6394,1483,2917.86
26100,-2.1033,-1.1875,12.7683,1471,2917.86
26105,-5.2074,1.2582,9.6917,1485,2917.86
26110,1.0534,3.2202,9.2608,1508,2918.86
26115,3.1879,2.9473,11.4179,1479,2918.86
26120,-1.7131,-0.8224,12.821,1479,2918.86
26125,-5.3486,0.7721,10.1155,1481,2918.86
26130,0.5902,3.1065,8.9507,1509,2918.71
26135,3.1687,3.3267,11.1498,1484,2918.71
26140,-1.4856,-0.3484,12.8138,1471,2918.71
26145,-5.3295,0.2514,10.641,1479,2918.71
26150,-0.0563,2.9113,8.6287,1515,2918.71
26155,2.9951,3.6679,10.8757,1485,2918.71
26160,-1.2594,0.1341,12.7132,1477,2918.71
26165,-5.0889,-0.243,11.1211,1491,2918.71
26170,-0.7877,2.8024,8.5521,1533,2918.29
26175,2.7988,3.8152,10.6482,1476,2918.29
26180,-0.8966,0.5842,12.6162,1481,2918.29
26185,-4.7285,-0.7745,11.5005,1479,2918.29
26190,-1.5981,2.5726,8.4048,1533,2918.29
26195,2.5438,3.8475,10.4519,1483,2918.29
26200,-0.3304,0.8499,12.408,1479,2918.29
26205,-4.2593,-1.2067,11.9291,1480,2918.29
26210,-2.4912,2.3667,8.4587,1545,2918.15
26215,2.2122,3.7816,10.2376,1479,2918.15
26220,0.4525,1.1672,12.2164,1480,2918.15
26225,-3.7122,-1.5718,12.1793,1487,2918.15
26230,-3.3507,2.1129,8.5569,1533,2918.43
26235,1.9728,3.6763,10.0952,1477,2918.43
26240,1.3396,1.6053,12.1183,1485,2918.43
26245,-3.3004,-1.6436,12.4989,1471,2918.43
26250,-4.1922,1.9429,8.8502,1509,2918.43
26255,1.7633,3.5865,9.8928,1481,2918.43
26260,2.1691,2.0674,11.8633,1480,2918.43
26265,-2.6683,-1.5203,12.7,1471,2918.43
26270,-4.8111,1.6999,9.2081,1493,2918.43
26275,1.4892,3.4836,9.5277,1499,2918.57
26280,2.8599,2.5594,11.6657,1479,2918.57
26285,-2.1691,-1.1744,12.8593,1471,2918.57
26290,-5.1236,1.3264,9.6857,1483,2918.57
26295,1.1396,3.3172,9.2356,1509,2918.86
26300,3.2166,2.9568,11.4012,1481,2918.86
26305,-1.725,-0.808,12.8652,1471,2918.86
26310,-5.3846,0.7183,10.1119,1479,2918.86
26315,0.6273,3.1101,8.9854,1496,2918.57
26320,3.1951,3.3004,11.1402,1480,2918.57
26325,-1.4533,-0.34,12.8437,1477,2918.57
26330,-5.3283,0.237,10.5872,1469,2918.57
26335,-0.0479,2.9078,8.7436,1511,2918.29
26340,3.0167,3.62,10.8314,1485,2918.29
26345,-1.2629,0.1293,12.7407,1477,2918.29
26350,-5.0649,-0.2837,11.1031,1490,2918.29
26355,-0.7973,2.7749,8.5449,1547,2917.44
26360,2.7497,3.7936,10.6458,1477,2917.44
26365,-0.9493,0.5255,12.5971,1472,2917.44
26370,-4.7381,-0.7626,11.5652,1479,2917.44
26375,-1.6053,2.5786,8.4599,1532,2917.01
26380,2.5127,3.8858,10.4519,1484,2917.01
26385,-0.3436,0.8703,12.487,1471,2917.01
26390,-4.2294,-1.2067,11.9411,1479,2917.01
26395,-2.4756,2.3583,8.4551,1543,2917.15
26400,2.1943,3.7816,10.222,1483,2917.15
26405,0.4393,1.2115,12.3325,1479,2917.15
26410,-3.6847,-1.549,12.2152,1490,2917.15
26415,-3.3806,2.1488,8.594,1504,2917.58
26420,2.0087,3.6823,10.0844,1468,2917.58
26425,2.7366,2.4708,11.734,1486,2917.58
26430,-2.3308,-1.2953,12.815,1477,2917.58
26435,-5.1751,1.3455,9.5912,1491,2917.58
26440,1.7669,3.5446,9.8773,1513,2918.0
26445,3.1017,2.9066,11.4227,1476,2918.0
26450,-1.8854,-0.8284,12.8593,1471,2918.0
26455,-5.3678,0.9373,10.1275,1485,2918.0
26460,0.723,3.1304,9.0333,1509,2918.0
26465,3.2142,3.2465,11.157,1479,2918.0
26470,-1.4593,-0.3926,12.7491,1471,2918.0
26475,-5.3067,0.3783,10.5261,1483,2918.0
26480,0.0958,2.9018,8.7293,1510,2918.29
26485,3.1053,3.5913,10.8649,1471,2918.29
26490,-1.172,0.0335,12.7336,1469,2918.29
26495,-5.1499,-0.2658,11.0792,1479,2918.29
26500,-0.644,2.7521,8.5437,1516,2917.72
26505,2.8287,3.7326,10.6518,1481,2917.72
26510,-0.978,0.4106,12.5959,1479,2917.72
26515,-4.8423,-0.7841,11.5233,1471,2917.72
26520,-1.5083,2.5522,8.4396,1515,2917.29
26525,2.4732,3.8427,10.5213,1485,2917.29
26530,-0.5471,0.826,12.4917,1470,2917.29
26535,-4.4053,-1.1277,11.9267,1483,2917.29
26540,-2.4134,2.4433,8.4551,1543,2917.58
26545,2.2529,3.9037,10.2963,1480,2917.58
26550,0.3029,1.1983,12.2751,1480,2917.58
26555,-3.9169,-1.4605,12.2439,1477,2917.58
26560,-3.2501,2.2517,8.5258,1533,2918.15
26565,2.0949,3.7661,10.1514,1484,2918.15
26570,1.2031,1.555,12.1649,1479,2918.15
26575,-3.304,-1.5706,12.5085,1477,2918.15
26580,-4.0318,1.9896,8.8071,1512,2918.29
26585,1.8543,3.6272,9.8019,1483,2918.29
26590,2.1165,1.9381,11.9076,1479,2918.29
26595,-2.715,-1.5694,12.7036,1487,2918.29
26600,-4.6902,1.6915,9.2177,1547,2918.86
26605,1.5263,3.4524,9.6319,1469,2918.86
26610,2.715,2.4708,11.7328,1487,2918.86
26615,-2.2745,-1.3276,12.8198,1471,2918.86
26620,-5.211,1.306,9.5553,1483,2918.86
26625,1.166,3.2968,9.3577,1509,2918.43
26630,3.0897,2.8898,11.4766,1484,2918.43
26635,-1.901,-0.8404,12.9395,1471,2918.43
26640,-5.3762,0.9385,10.1155,1491,2918.43
26645,0.6273,3.1771,9.0249,1497,2918.43
26650,3.1807,3.3387,11.1474,1477,2918.43
26655,-1.4844,-0.31,12.803,1482,2918.43
26660,-5.3391,0.3663,10.5189,1480,2918.43
26665,0.0682,2.9556,8.7568,1507,2918.29
26670,3.1184,3.5853,10.902,1481,2918.29
26675,-1.2067,0.0658,12.8126,1465,2918.29
26680,-5.1368,-0.2227,10.9978,1481,2918.29
26685,-0.656,2.8012,8.5688,1519,2918.15
26690,2.8395,3.7589,10.6458,1467,2918.15
26695,-0.9397,0.4597,12.6569,1477,2918.15
26700,-4.7597,-0.7446,11.4443,1482,2918.15
26705,-1.5598,2.5594,8.43,1516,2917.15
26710,2.4493,3.8092,10.4878,1483,2917.15
26715,-0.4178,0.8464,12.469,1471,2917.15
26720,-4.4077,-1.2091,11.9088,1481,2917.15
26725,-2.4038,2.4409,8.4827,1533,2915.59
26730,2.2434,3.8642,10.331,1480,2915.59
26735,0.2574,1.2546,12.323,1483,2915.59
26740,-3.9133,-1.482,12.2571,1477,2915.59
26745,-3.2836,2.2314,8.6467,1531,2914.46
26750,1.9848,3.7757,10.0999,1485,2914.46
26755,1.2175,1.573,12.1913,1477,2914.46
26760,-3.2681,-1.6101,12.4642,1477,2914.46
26765,-4.112,1.98,8.8981,1545,2913.33
26770,1.8364,3.5829,9.8785,1481,2913.33
26775,2.1739,2.0315,11.8489,1479,2913.33
26780,-2.6324,-1.4928,12.7192,1483,2913.33
26785,-4.7525,1.634,9.2404,1509,2912.76
26790,1.4676,3.3878,9.5098,1471,2912.76
26795,2.873,2.4732,11.6274,1489,2912.76
26800,-2.1009,-1.2186,12.7312,1479,2912.76
26805,-5.1715,1.1911,9.6738,1480,2912.76
26810,1.0379,3.2406,9.3087,1501,2912.34
26815,3.0885,3.0311,11.3796,1481,2912.34
26820,-1.7095,-0.753,12.8329,1477,2912.34
26825,-5.3451,0.7721,10.2352,1487,2912.34
26830,0.4812,3.0957,8.9675,1509,2911.91
26835,3.1328,3.4093,11.0828,1481,2911.91
26840,-1.4676,-0.2059,12.7156,1479,2911.91
26845,-5.1667,0.1664,10.7607,1481,2911.91
26850,-0.2693,2.9042,8.7185,1503,2912.34
26855,2.9916,3.7074,10.8014,1490,2912.34
26860,-1.0942,0.2741,12.6905,1481,2912.34
26865,-4.8495,-0.3879,11.2659,1478,2912.34
26870,-1.0283,2.6983,8.4767,1513,2913.05
26875,2.6719,3.7792,10.5309,1480,2913.05
26880,-0.6704,0.6129,12.4798,1477,2913.05
26885,-4.555,-1.0259,11.6646,1500,2913.05
26890,-1.986,2.4995,8.4491,1509,2912.76
26895,2.3296,3.8439,10.392,1476,2912.76
26900,-0.1269,0.9912,12.3804,1482,2912.76
26905,-4.027,-1.3874,12.0416,1477,2912.76
26910,-2.9461,2.2996,8.5293,1532,2912.76
26915,2.0411,3.7828,10.222,1481,2912.76
26920,0.8188,1.4078,12.1398,1471,2912.76
26925,-3.5207,-1.5479,12.4103,1478,2912.76
26930,-3.8307,2.1165,8.825,1531,2912.9
26935,1.8459,3.6727,9.9802,1483,2912.9
26940,1.7825,1.8507,11.971,1479,2912.9
26945,-2.885,-1.5275,12.6426,1487,2912.9
26950,-4.543,1.8052,9.1016,1513,2912.62
26955,1.5826,3.5171,9.736,1471,2912.62
26960,2.63,2.2685,11.7364,1489,2912.62
26965,-2.2841,-1.318,12.7647,1468,2912.62
26970,-5.0554,1.4006,9.5217,1481,2912.62
26975,1.1971,3.3471,9.4391,1515,2912.48
26980,3.0718,2.7797,11.4551,1485,2912.48
26985,-1.8076,-0.9349,12.8198,1469,2912.48
26990,-5.3091,0.8894,10.0126,1492,2912.48
26995,0.7099,3.0945,9.171,1508,2912.48
27000,3.146,3.1903,11.1797,1482,2912.48
27005,-1.5395,-0.4286,12.8377,1481,2912.48
27010,-5.3163,0.3627,10.5082,1477,2912.48
27015,0.0443,2.9796,8.7783,1511,2912.48
27020,3.0095,3.5314,10.8996,1481,2912.48
27025,-1.2486,0.0694,12.7216,1469,2912.48
27030,-5.1356,-0.1784,11.0445,1479,2912.48
27035,-0.6859,2.8,8.6383,1518,2912.76
27040,2.7665,3.8235,10.6769,1479,2912.76
27045,-1.0092,0.4788,12.5755,1471,2912.76
27050,-4.6376,-0.7051,11.4371,1481,2912.76
27055,-1.5897,2.5391,8.4647,1497,2912.48
27060,2.5091,3.8738,10.4615,1481,2912.48
27065,-0.3903,0.8871,12.4534,1481,2912.48
27070,-4.2102,-1.2222,11.9243,1471,2912.48
27075,-2.5343,2.3523,8.4886,1533,2912.9
27080,2.2242,3.8391,10.2879,1480,2912.9
27085,0.4501,1.2677,12.2511,1469,2912.9
27090,-3.7338,-1.5419,12.1901,1479,2912.9
27095,-3.4656,2.1572,8.6921,1543,2912.48
27100,1.9022,3.6643,10.1107,1477,2912.48
27105,1.3647,1.6293,12.0404,1477,2912.48
27110,-3.1556,-1.5981,12.5444,1483,2912.48
27115,-4.2796,1.913,9.0106,1533,2912.06
27120,1.6616,3.547,9.7863,1479,2912.06
27125,2.2673,2.1787,11.8106,1485,2912.06
27130,-2.5809,-1.385,12.6857,1479,2912.06
27135,-4.8902,1.5826,9.3266,1512,2911.91
27140,1.3755,3.4237,9.5696,1480,2911.91
27145,2.9233,2.6468,11.5472,1483,2911.91
27150,-1.9968,-1.0403,12.8054,1479,2911.91
27155,-5.1822,1.1085,9.8055,1495,2911.91
27160,0.9002,3.2094,9.2237,1499,2911.63
27165,3.1723,3.0562,11.1965,1480,2911.63
27170,-1.5634,-0.5842,12.8269,1478,2911.63
27175,-5.3139,0.5938,10.4088,1485,2911.63
27180,0.2873,2.9999,8.9591,1511,2911.77
27185,3.0454,3.4369,10.9415,1479,2911.77
27190,-1.2773,-0.1401,12.6857,1471,2911.77
27195,-5.2421,-0.0383,10.8146,1485,2911.77
27200,-0.419,2.7964,8.6491,1515,2912.06
27205,2.8168,3.7254,10.756,1481,2912.06
27210,-1.1121,0.3376,12.6174,1471,2912.06
27215,-4.9153,-0.5112,11.382,1471,2912.06
27220,-1.2342,2.66,8.5736,1515,2912.48
27225,2.5546,3.8583,10.5812,1481,2912.48
27230,-0.6716,0.7087,12.487,1477,2912.48
27235,-4.4388,-1.0379,11.7723,1483,2912.48
27240,-2.1775,2.4409,8.4779,1542,2913.19
27245,2.3391,3.8559,10.3573,1471,2913.19
27250,0.0563,1.1253,12.3373,1480,2913.19
27255,-3.8942,-1.3767,12.1147,1480,2913.19
27260,-3.1017,2.2458,8.5569,1528,2913.75
27265,2.0494,3.7326,10.1634,1484,2913.75
27270,0.9984,1.4832,12.0716,1471,2913.75
27275,-3.3375,-1.6125,12.4044,1479,2913.75
27280,-4.0079,1.9776,8.8765,1547,2913.47
27285,1.7597,3.614,9.9467,1481,2913.47
27290,1.9932,1.9752,11.8944,1478,2913.47
27295,-2.8299,-1.5754,12.6737,1485,2913.47
27300,-4.6878,1.7226,9.1494,1545,2912.34
27305,1.5167,3.4536,9.675,1479,2912.34
27310,2.6312,2.4409,11.6705,1485,2912.34
27315,-2.3032,-1.2869,12.7791,1479,2912.34
27320,-5.1092,1.3072,9.596,1479,2912.34
27325,1.1097,3.3076,9.3529,1509,2910.93
27330,3.14,2.9676,11.3653,1482,2910.93
27335,-1.7262,-0.7506,12.8186,1471,2910.93
27340,-5.3103,0.8356,10.1299,1490,2910.93
27345,0.6129,3.1316,9.0501,1511,2910.22
27350,3.2022,3.3291,11.0373,1471,2910.22
27355,-1.385,-0.2885,12.7467,1481,2910.22
27360,-5.2098,0.1999,10.6817,1477,2910.22
27365,-0.1221,2.9137,8.7233,1503,2909.51
27370,2.9509,3.638,10.7919,1481,2909.51
27375,-1.1648,0.182,12.6103,1479,2909.51
27380,-4.9608,-0.4106,11.1666,1481,2909.51
27385,-0.9912,2.6839,8.5293,1514,2909.37
27390,2.5917,3.7745,10.5668,1483,2909.37
27395,-0.7877,0.6021,12.5169,1478,2909.37
27400,-4.634,-0.9613,11.7196,1487,2909.37
27405,-1.9154,2.563,8.5533,1531,2909.66
27410,2.3128,3.8475,10.3765,1479,2909.66
27415,-0.1999,1.0726,12.3325,1481,2909.66
27420,-4.0462,-1.3168,11.9997,1481,2909.66
27425,-2.8754,2.3475,8.6383,1531,2909.8
27430,2.0818,3.8307,10.2113,1487,2909.8
27435,0.7781,1.3719,12.1769,1478,2909.8
27440,-3.4321,-1.5682,12.3541,1477,2909.8
27445,-3.7637,2.0782,8.77,1542,2909.66
27450,1.8687,3.6835,9.9934,1483,2909.66
27455,1.8076,1.8783,11.9411,1477,2909.66
27460,-2.8323,-1.5766,12.6067,1483,2909.66
27465,-4.5466,1.7717,9.0932,1541,2909.09
27470,1.5586,3.4572,9.7097,1469,2909.09
27475,2.5103,2.3152,11.6981,1485,2909.09
27480,-2.2781,-1.3503,12.7192,1480,2909.09
27485,-5.0673,1.3264,9.5792,1480,2909.09
27490,1.1408,3.3375,9.3781,1507,2909.66
27495,3.049,2.8778,11.4383,1483,2909.66
27500,-1.8148,-0.8787,12.8413,1477,2909.66
27505,-5.3115,0.8966,10.0844,1490,2909.66
27510,0.6357,3.1591,9.1267,1509,2909.8
27515,3.1639,3.3016,11.0923,1471,2909.8
27520,-1.4437,-0.3472,12.7539,1483,2909.8
27525,-5.2349,0.3268,10.5919,1480,2909.8
27530,-0.0455,2.9712,8.7891,1501,2909.8
27535,2.9856,3.5769,10.8517,1482,2909.8
27540,-1.2031,0.1221,12.7024,1479,2909.8
27545,-4.9608,-0.3029,11.1211,1479,2909.8
27550,-0.8595,2.7521,8.5892,1513,2909.94
27555,2.7043,3.7577,10.5572,1479,2909.94
27560,-0.7877,0.5459,12.5121,1471,2909.94
27565,-4.628,-0.8871,11.5401,1484,2909.94
27570,-1.7741,2.5307,8.521,1535,2909.94
27575,2.3499,3.814,10.4519,1477,2909.94
27580,-0.2777,0.9529,12.3684,1483,2909.94
27585,-4.0977,-1.2989,11.9698,1478,2909.94
27590,-2.7773,2.3511,8.5557,1533,2910.36
27595,2.0794,3.7996,10.2149,1485,2910.36
27600,0.6572,1.3108,12.2032,1479,2910.36
27605,-3.5458,-1.5479,12.3541,1479,2910.36
27610,-3.6907,2.1488,8.7807,1513,2910.64
27615,1.8591,3.723,10.0413,1483,2910.64
27620,1.6735,1.7825,11.9626,1483,2910.64
27625,-2.9137,-1.5203,12.5923,1485,2910.64
27630,-4.4748,1.8567,9.0728,1523,2911.63
27635,1.5981,3.553,9.7324,1469,2911.63
27640,2.5486,2.2829,11.7376,1489,2911.63
27645,-2.3559,-1.3994,12.7886,1479,2911.63
27650,-4.95,1.4736,9.4906,1479,2911.63
27655,1.2486,3.322,9.4248,1515,2911.63
27660,3.0694,2.7713,11.4455,1485,2911.63
27665,-1.8759,-0.9613,12.8006,1471,2911.63
27670,-5.3067,0.9589,9.9826,1491,2911.63
27675,0.7661,3.0897,9.1303,1508,2911.91
27680,3.1376,3.1807,11.2168,1477,2911.91
27685,-1.5467,-0.4956,12.7958,1483,2911.91
27690,-5.284,0.4513,10.507,1470,2911.91
27695,0.1197,3.0155,8.8741,1511,2911.91
27700,3.0442,3.5853,10.8804,1491,2911.91
27705,-1.2486,0.0311,12.7096,1481,2911.91
27710,-5.1008,-0.1161,10.9499,1479,2911.91
27715,-0.6105,2.8587,8.6263,1518,2911.91
27720,2.7653,3.7745,10.6793,1479,2911.91
27725,-0.9876,0.492,12.5684,1471,2911.91
27730,-4.7226,-0.674,11.4263,1485,2911.91
27735,-1.5071,2.5881,8.5246,1520,2911.63
27740,2.4684,3.8247,10.5369,1477,2911.63
27745,-0.4118,0.8499,12.4475,1483,2911.63
27750,-4.2497,-1.245,11.8824,1468,2911.63
27755,-2.478,2.3511,8.5581,1532,2911.77
27760,2.2051,3.7338,10.3166,1482,2911.77
27765,0.3998,1.2079,12.2416,1477,2911.77
27770,-3.7194,-1.5251,12.1578,1480,2911.77
27775,-3.4369,2.1703,8.6179,1545,2911.77
27780,1.8783,3.6583,10.094,1479,2911.77
27785,1.342,1.6209,12.0907,1480,2911.77
27790,-3.1651,-1.5945,12.4858,1487,2911.77
27795,-4.2808,1.9309,8.9555,1511,2911.49
27800,1.6879,3.5781,9.8641,1477,2911.49
27805,2.2745,2.1153,11.7879,1485,2911.49
27810,-2.5187,-1.4593,12.6941,1472,2911.49
27815,-4.8566,1.573,9.3338,1483,2911.49
27820,1.3491,3.4333,9.6091,1511,2911.49
27825,2.9365,2.642,11.6442,1482,2911.49
27830,-1.9884,-1.0858,12.8509,1471,2911.49
27835,-5.1906,1.1576,9.833,1493,2911.49
27840,0.9625,3.2106,9.2093,1504,2911.63
27845,3.1627,3.0502,11.1893,1479,2911.63
27850,-1.5838,-0.5878,12.7527,1483,2911.63
27855,-5.2852,0.5746,10.2963,1481,2911.63
27860,0.3089,3.0047,8.8945,1511,2911.49
27865,3.0801,3.4069,11.0289,1479,2911.49
27870,-1.2929,-0.1365,12.6629,1471,2911.49
27875,-5.2373,0.0192,10.7847,1480,2911.49
27880,-0.3926,2.8575,8.6084,1519,2911.91
27885,2.8563,3.7206,10.75,1479,2911.91
27890,-1.1325,0.3627,12.5959,1468,2911.91
27895,-4.8758,-0.5052,11.3892,1481,2911.91
27900,-1.257,2.6935,8.5389,1513,2911.21
27905,2.569,3.8607,10.5153,1482,2911.21
27910,-0.6584,0.741,12.5073,1487,2911.21
27915,-4.4281,-1.0427,11.7124,1477,2911.21
27920,-2.1799,2.4588,8.5365,1533,2912.2
27925,2.3236,3.8846,10.3537,1480,2912.2
27930,0.1149,1.1456,12.3206,1471,2912.2
27935,-3.8642,-1.4186,12.1625,1481,2912.2
27940,-3.1352,2.2505,8.6275,1543,2911.21
27945,2.0411,3.7493,10.173,1477,2911.21
27950,1.0247,1.4964,12.1135,1479,2911.21
27955,-3.2729,-1.6376,12.4187,1485,2911.21
27960,-3.9911,1.98,8.7999,1533,2910.93
27965,1.7418,3.5674,9.9288,1479,2910.93
27970,2.0231,1.9812,11.9064,1485,2910.93
27975,-2.7749,-1.5251,12.6031,1479,2910.93
27980,-4.7585,1.7119,9.1794,1515,2910.64
27985,1.4329,3.4153,9.7085,1481,2910.64
27990,2.727,2.5235,11.6119,1479,2910.64
27995,-2.2194,-1.2234,12.7515,1479,2910.64
28000,-5.1499,1.2965,9.6857,1493,2910.64
28005,1.0415,3.298,9.3877,1509,2911.07
28010,3.1232,2.9688,11.3437,1479,2911.07
28015,-1.6771,-0.7542,12.8198,1477,2911.07
28020,-5.2816,0.7733,10.2065,1483,2911.07
28025,0.4896,3.0754,9.0022,1507,2911.49
28030,3.2046,3.3531,11.0516,1471,2911.49
28035,-1.3515,-0.2322,12.7635,1469,2911.49
28040,-5.2648,0.1772,10.6793,1480,2911.49
28045,-0.158,2.9233,8.8107,1516,2912.34
28050,2.891,3.632,10.7619,1484,2912.34
28055,-1.1241,0.1975,12.6629,1471,2912.34
28060,-5.047,-0.4238,11.1642,1497,2912.34
28065,-0.9888,2.7318,8.5569,1507,2913.19
28070,2.5989,3.7864,10.6111,1480,2913.19
28075,-0.8248,0.5555,12.5528,1479,2913.19
28080,-4.6388,-0.9158,11.6478,1479,2913.19
28085,-1.8974,2.5558,8.503,1533,2913.61
28090,2.3224,3.8642,10.3956,1479,2913.61
28095,-0.1401,1.0163,12.3385,1483,2913.61
28100,-4.1312,-1.2905,12.0249,1479,2913.61
28105,-2.8299,2.3643,8.5892,1531,2913.19
28110,2.1356,3.8199,10.1969,1482,2913.19
28115,0.6859,1.3838,12.2691,1477,2913.19
28120,-3.4728,-1.5191,12.3864,1481,2913.19
28125,-3.6763,2.0913,8.7161,1517,2913.61
28130,1.889,3.6691,10.0353,1481,2913.61
28135,1.743,1.7861,11.9806,1478,2913.61
28140,-2.9568,-1.6424,12.6186,1483,2913.61
28145,-4.4448,1.798,9.0896,1545,2914.46
28150,1.6281,3.5243,9.7264,1481,2914.46
28155,2.4816,2.2936,11.7543,1485,2914.46
28160,-2.4157,-1.4186,12.7,1485,2914.46
28165,-5.0326,1.4569,9.4631,1479,2914.46
28170,1.2354,3.3291,9.4068,1511,2913.75
28175,2.9497,2.7737,11.4874,1481,2913.75
28180,-1.9776,-0.9864,12.8389,1468,2913.75
28185,-5.272,1.0834,9.9431,1491,2913.75
28190,0.7817,3.2118,9.177,1509,2913.75
28195,3.1149,3.2094,11.2396,1481,2913.75
28200,-1.5514,-0.4908,12.8365,1479,2913.75
28205,-5.2888,0.5088,10.4423,1471,2913.75
28210,0.2107,3.0215,8.8358,1508,2913.05
28215,3.1101,3.5303,10.8781,1485,2913.05
28220,-1.2546,0.0096,12.7132,1479,2913.05
28225,-5.1475,-0.1077,11.0085,1479,2913.05
28230,-0.5746,2.8072,8.6383,1515,2912.9
28235,2.8096,3.7098,10.6554,1479,2912.9
