timestamp_ms,ax,ay,az,acs_adc,rpm
12164,-3.6248,-1.5179,12.3038,1447,2925.97
12169,-3.0598,2.1835,8.8346,1466,2926.54
12174,1.9776,3.7326,10.0545,1451,2926.54
12179,0.7877,1.573,11.8477,1447,2926.54
12184,-3.2058,-1.7071,12.487,1459,2926.54
12189,-3.8044,1.9728,9.0776,1469,2926.83
12194,1.828,3.6057,9.9168,1449,2926.83
12199,1.5754,1.962,11.71,1453,2926.83
12204,-2.7258,-1.6113,12.6007,1444,2926.83
12209,-4.397,1.7549,9.4786,1459,2926.54
12214,1.6221,3.4848,9.7372,1452,2926.54
12219,2.2446,2.4169,11.4742,1453,2926.54
12224,-2.2805,-1.4593,12.6677,1447,2926.54
12229,-4.8279,1.4581,9.8689,1452,2926.54
12234,1.4425,3.3662,9.4906,1461,2927.97
12239,2.7222,2.8647,11.1869,1449,11650.49
12244,-1.8974,-1.0918,12.6881,1445,11650.49
12249,-5.0829,1.0056,10.2316,1455,11650.49
12254,1.0894,3.2465,9.2584,1460,3910.32
12259,2.8754,3.2441,11.0337,1448,3910.32
12264,-1.6137,-0.674,12.7467,1447,3910.32
12269,-5.1499,0.5602,10.6769,1448,3910.32
12274,0.5878,3.1029,9.0058,1461,2927.26
12279,2.8072,3.4943,10.7236,1453,2927.26
12284,-1.4509,-0.2179,12.7264,1447,2927.26
12289,-5.0913,0.0754,10.9858,1449,2927.26
12294,-0.0108,2.8527,8.7963,1467,2926.97
12299,2.624,3.7649,10.586,1451,2926.97
12304,-1.3695,0.1221,12.6318,1445,2926.97
12309,-4.8542,-0.4657,11.3725,1455,2926.97
12314,-0.6728,2.6983,8.6562,1453,2926.97
12319,2.46,3.9097,10.5153,1451,2926.97
12324,-1.2139,0.4693,12.4283,1440,2926.97
12329,-4.6052,-0.8859,11.7675,1455,2926.97
12334,-1.3827,2.5941,8.6503,1477,2926.83
12339,2.2901,3.9636,10.477,1450,2926.83
12344,-0.7566,0.8344,12.2308,1451,2926.83
12349,-4.1695,-1.2426,12.0177,1451,2926.83
12354,-2.1763,2.411,8.6981,1483,2926.26
12359,2.1344,3.9217,10.3142,1453,2926.26
12364,-0.1712,1.1684,12.0476,1448,2926.26
12369,-3.65,-1.5179,12.2368,1447,2926.26
12374,-2.9951,2.2326,8.849,1479,2925.97
12379,2.0039,3.7445,10.1155,1455,2925.97
12384,0.6907,1.5658,11.9124,1449,2925.97
12389,-3.201,-1.6963,12.3984,1458,2925.97
12394,-3.7457,2.0039,9.0812,1469,2925.97
12399,1.8543,3.6069,9.9264,1451,2925.97
12404,1.5778,1.9501,11.7328,1456,2925.97
12409,-2.7797,-1.67,12.5648,1446,2925.97
12414,-4.3778,1.7933,9.4379,1455,2925.69
12419,1.6807,3.5111,9.6845,1455,2925.69
12424,2.2302,2.3703,11.4778,1453,2925.69
12429,-2.2924,-1.488,12.6905,1447,2925.69
12434,-4.8387,1.4365,9.8126,1461,2925.69
12439,1.4042,3.3363,9.5313,1459,2925.97
12444,2.6683,2.8443,11.2097,1449,2925.97
12449,-1.9297,-1.057,12.8174,1447,2925.97
12454,-5.0996,1.0762,10.1694,1455,2925.97
12459,1.0989,3.2477,9.1913,1459,2925.83
12464,2.8659,3.2489,11.0301,1449,2925.83
12469,-1.6951,-0.6716,12.803,1447,2925.83
12474,-5.12,0.565,10.5943,1447,2925.83
12479,0.5997,3.049,8.9771,1461,2925.69
12484,2.8096,3.5554,10.8912,1455,2925.69
12489,-1.5119,-0.2909,12.6474,1447,2925.69
12494,-5.0386,0.0527,11.0277,1447,2925.69
12499,0.0359,2.8635,8.7712,1465,2925.54
12504,2.6384,3.729,10.6422,1449,2925.54
12509,-1.336,0.1293,12.5875,1438,2925.54
12514,-4.8722,-0.4513,11.4024,1459,2925.54
12519,-0.7015,2.7354,8.7412,1472,2925.54
12524,2.4265,3.8511,10.501,1451,2925.54
12529,-1.1372,0.4741,12.4127,1449,2925.54
12534,-4.561,-0.8775,11.7855,1449,2925.54
12539,-1.5012,2.575,8.7017,1477,2925.54
12544,2.2302,3.9097,10.3609,1455,2925.54
12549,-0.7326,0.8691,12.3661,1453,2925.54
12554,-4.1396,-1.2366,12.0368,1449,2925.54
12559,-2.3224,2.4445,8.7616,1481,2925.26
12564,2.1165,3.9014,10.228,1454,2925.26
12569,-0.0419,1.2103,12.1374,1447,2925.26
12574,-3.6667,-1.5095,12.2667,1447,2925.26
12579,-3.0311,2.235,8.8789,1463,2924.83
12584,2.0435,3.796,10.1347,1454,2924.83
12589,0.7638,1.5694,11.8345,1445,2924.83
12594,-3.1089,-1.6592,12.4642,1453,2924.83
12599,-3.7745,1.98,9.098,1463,2924.97
12604,1.8663,3.6069,9.8881,1447,2924.97
12609,1.6328,1.9609,11.6358,1452,2924.97
12614,-2.7114,-1.6676,12.6629,1445,2924.97
12619,-4.3946,1.7035,9.408,1450,2924.97
12624,1.7095,3.4249,9.7193,1467,2924.83
12629,2.2529,2.4301,11.4299,1447,2924.83
12634,-2.3032,-1.4641,12.7096,1448,2924.83
12639,-4.8339,1.4281,9.809,1460,2924.83
12644,1.4162,3.3052,9.4786,1461,2925.12
12649,2.6264,2.8443,11.1797,1449,2925.12
12654,-1.8866,-1.0546,12.6701,1451,2925.12
12659,-5.1284,1.0092,10.2604,1455,2925.12
12664,1.0726,3.2501,9.3206,1461,2925.26
12669,2.8335,3.2597,10.9511,1448,2925.26
12674,-1.5802,-0.6069,12.6258,1448,2925.26
12679,-5.1439,0.559,10.6482,1449,2925.26
12684,0.577,3.0873,9.0704,1455,2925.4
12689,2.7809,3.5338,10.7248,1459,2925.4
12694,-1.3886,-0.1808,12.6821,1447,2925.4
12699,-5.023,0.0108,11.0708,1450,2925.4
12704,-0.0694,2.8778,8.7807,1460,2925.26
12709,2.6169,3.7314,10.5429,1451,2925.26
12714,-1.2905,0.1987,12.6103,1443,2925.26
12719,-4.81,-0.5351,11.4084,1460,2925.26
12724,-0.814,2.7078,8.6898,1479,2925.12
12729,2.3954,3.8942,10.4375,1451,2925.12
12734,-1.0918,0.5507,12.4906,1453,2925.12
12739,-4.4855,-0.9924,11.8214,1448,2925.12
12744,-1.5502,2.5678,8.6826,1481,2925.97
12749,2.1931,3.9289,10.3657,1455,2925.97
12754,-0.6381,0.8475,12.2284,1449,2925.97
12759,-4.0737,-1.2486,12.1099,1450,2925.97
12764,-2.3367,2.393,8.7149,1481,2925.69
12769,2.1045,3.893,10.2627,1453,2925.69
12774,0.0144,1.2605,12.038,1449,2925.69
12779,-3.5973,-1.5359,12.2811,1450,2925.69
12784,-3.1424,2.2422,8.8933,1485,2925.97
12789,2.0159,3.7888,10.0736,1453,2925.97
12794,0.8978,1.6173,11.8226,1447,2925.97
12799,-3.1173,-1.6484,12.4355,1455,2925.97
12804,-3.8283,1.992,9.1542,1464,2925.97
12809,1.8794,3.5913,9.9084,1447,2925.97
12814,1.7538,2.0375,11.6215,1459,2925.97
12819,-2.6252,-1.6843,12.5624,1445,2925.97
12824,-4.4975,1.7035,9.5217,1449,2925.97
12829,1.6568,3.4572,9.681,1463,2925.83
12834,2.3667,2.4912,11.4383,1449,2925.83
12839,-2.2039,-1.4246,12.5803,1446,2925.83
12844,-4.889,1.3743,9.845,1459,2925.83
12849,1.4114,3.3172,9.4715,1459,2926.26
12854,2.6887,2.9209,11.1821,1448,2926.26
12859,-1.889,-1.0199,12.7407,1451,2926.26
12864,-5.1308,0.9649,10.3477,1453,2926.26
12869,1.0475,3.1723,9.2261,1459,2926.12
12874,2.8659,3.2884,10.9678,1453,2926.12
12879,-1.6568,-0.577,12.7779,1443,2926.12
12884,-5.1404,0.5124,10.6578,1447,2926.12
12889,0.516,2.9999,8.9723,1463,2926.26
12894,2.4588,3.9002,10.5141,1451,2926.26
12899,-1.494,-0.1724,12.6366,1447,2926.26
12904,-5.0063,-0.0527,11.0816,1448,2926.26
12909,-0.0682,2.8742,8.752,1465,2926.4
12914,2.6336,3.7601,10.7081,1449,2926.4
12919,-1.3396,0.2011,12.5348,1439,2926.4
12924,-4.7968,-0.5638,11.4359,1459,2926.4
12929,-0.7733,2.654,8.5868,1481,2926.4
12934,2.4517,3.881,10.5333,1449,2926.4
12939,-1.0546,0.5578,12.3385,1453,2926.4
12944,-4.5119,-0.9625,11.8058,1449,2926.4
12949,-1.5694,2.5893,8.7269,1481,2926.69
12954,2.2146,3.9253,10.3968,1459,2926.69
12959,-0.65,0.9134,12.232,1445,2926.69
12964,-4.0929,-1.3072,12.0357,1447,2926.69
12969,-2.399,2.4086,8.8011,1484,2927.11
12974,2.1153,3.8822,10.1766,1449,2927.11
12979,0.0611,1.2318,12.1087,1449,2927.11
12984,-3.6607,-1.5443,12.3421,1445,2927.11
12989,-3.1675,2.2805,8.9771,1484,2927.11
12994,2.0171,3.7517,10.0676,1453,2927.11
12999,0.9074,1.579,11.9171,1447,2927.11
13004,-3.1101,-1.6807,12.4379,1454,2927.11
13009,-3.808,1.9932,9.1243,1477,2927.54
13014,1.8675,3.6344,9.9156,1445,2927.54
13019,1.6759,1.986,11.6382,1461,2927.54
13024,-2.6815,-1.6065,12.6809,1449,2927.54
13029,-4.4353,1.7166,9.414,1449,2927.54
13034,1.7035,3.4477,9.6331,1464,2927.54
13039,2.3056,2.4325,11.4036,1451,2927.54
13044,-2.3559,-1.4269,12.7443,1447,2927.54
13049,-4.8578,1.3922,9.8055,1461,2927.54
13054,1.3946,3.316,9.481,1461,2927.83
13059,2.6612,2.8611,11.2324,1448,2927.83
13064,-2.0087,-1.0618,12.7767,1447,2927.83
13069,-5.132,1.0331,10.222,1450,2927.83
13074,1.0678,3.1663,9.1889,1459,2928.11
13079,2.8467,3.2705,11.0217,1452,2928.11
13084,-1.7609,-0.65,12.6929,1446,2928.11
13089,-5.1487,0.6249,10.6195,1450,2928.11
13094,0.6273,3.043,9.0561,1456,2928.26
13099,2.8419,3.5721,10.8014,1454,2928.26
13104,-1.4904,-0.2251,12.6342,1449,2928.26
13109,-5.0937,0.0958,11.0385,1449,2928.26
13114,0.0227,2.9102,8.8753,1463,2928.54
13119,2.6971,3.7014,10.5824,1450,2928.54
13124,-1.2965,0.1676,12.5552,1445,2928.54
13129,-4.9045,-0.4381,11.3677,1461,2928.54
13134,-0.7039,2.7282,8.74,1469,2928.83
13139,2.4325,3.8295,10.3741,1452,2928.83
13144,-1.0678,0.504,12.4846,1449,2928.83
13149,-4.6148,-0.9218,11.6634,1449,2928.83
13154,-1.4126,2.5738,8.6622,1479,2929.4
13159,2.2829,3.9217,10.3944,1461,2929.4
13164,-0.7458,0.8092,12.3301,1449,2929.4
13169,-4.2389,-1.245,12.0333,1451,2929.4
13174,-2.1632,2.4409,8.6706,1483,2929.54
13179,2.1691,3.8954,10.258,1458,2929.54
13184,-0.1448,1.1528,12.1063,1445,2929.54
13189,-3.7924,-1.4377,12.2906,1451,2929.54
13194,-2.9078,2.3128,8.849,1461,2929.69
13199,2.053,3.8164,10.0652,1451,2929.69
13204,0.6428,1.506,11.9159,1446,2929.69
13209,-3.316,-1.6017,12.4618,1457,2929.69
13214,-3.5781,2.0842,8.9878,1461,2929.4
13219,1.9178,3.6883,9.9539,1439,2929.4
13224,1.4269,1.8507,11.7663,1455,2929.4
13229,-2.8431,-1.6867,12.5779,1445,2929.4
13234,-4.2138,1.8471,9.3242,1463,2928.69
13239,1.7813,3.5674,9.7791,1452,2928.69
13244,2.144,2.2865,11.5317,1449,2928.69
13249,-2.4373,-1.5538,12.5971,1449,2928.69
13254,-4.7285,1.5323,9.6438,1461,2928.69
13259,1.5395,3.377,9.6115,1460,2928.69
13264,2.5678,2.6983,11.3365,1449,2928.69
13269,-2.0351,-1.2869,12.6486,1448,2928.69
13274,-5.0817,1.1744,10.1155,1459,2928.69
13279,1.2079,3.2717,9.3577,1463,2927.97
13284,2.818,3.1304,11.0708,1450,2927.97
13289,-1.7119,-0.7853,12.8126,1451,2927.97
13294,-5.187,0.7949,10.4722,1449,2927.97
13299,0.8104,3.1017,9.0597,1459,2927.69
13304,2.8958,3.4524,10.8745,1453,2927.69
13309,-1.5694,-0.3603,12.8389,1447,2927.69
13314,-5.1308,0.322,10.9032,1449,2927.69
13319,0.2107,2.9485,8.8418,1467,2927.69
13324,2.806,3.7122,10.7153,1451,2927.69
13329,-1.4018,0.0084,12.6354,1439,2927.69
13334,-4.9344,-0.2741,11.2994,1459,2927.69
13339,-0.3555,2.7689,8.7017,1465,2927.69
13344,2.5414,3.8379,10.6135,1449,2927.69
13349,-1.2306,0.3723,12.4199,1449,2927.69
13354,-4.6172,-0.7554,11.5424,1449,2927.69
13359,-1.0906,2.6264,8.5976,1469,2927.83
13364,2.3427,3.9049,10.5213,1449,2927.83
13369,-0.9912,0.6847,12.2547,1451,2927.83
13374,-4.3586,-1.1181,11.9159,1451,2927.83
13379,-1.9465,2.4888,8.7281,1468,2927.83
13384,2.1332,3.9145,10.3394,1459,2927.83
13389,-0.3376,1.0678,12.2044,1445,2927.83
13394,-3.9648,-1.4246,12.1865,1448,2927.83
13399,-2.739,2.3343,8.7939,1469,2927.83
13404,2.0423,3.7936,10.1143,1451,2927.83
13409,0.3998,1.4126,12.0189,1446,2927.83
13414,-3.4979,-1.6029,12.3601,1455,2927.83
13419,-3.4465,2.1249,9.0034,1483,2928.11
13424,1.9788,3.7086,9.9587,1448,2928.11
13429,1.2582,1.749,11.8178,1453,2928.11
13434,-2.9532,-1.6795,12.5732,1449,2928.11
13439,-4.0713,1.8663,9.244,1465,2927.54
13444,1.8663,3.5147,9.8138,1451,2927.54
13449,2.0195,2.1476,11.5652,1451,2927.54
13454,-2.5319,-1.5574,12.7144,1449,2927.54
13459,-4.64,1.5862,9.5469,1449,2927.54
13464,1.6101,3.4369,9.5684,1460,2928.26
13469,2.5402,2.6396,11.3425,1453,2928.26
13474,-2.1644,-1.2809,12.7084,1453,2928.26
13479,-5.0027,1.221,9.9335,1455,2928.26
13484,1.2725,3.2046,9.3075,1459,2928.11
13489,2.8084,2.9939,11.2432,1449,2928.11
13494,-1.8735,-0.8751,12.7874,1447,2928.11
13499,-5.1595,0.8799,10.3501,1447,2928.11
13504,0.9254,3.1424,9.1099,1463,2928.54
13509,2.8754,3.3674,10.9798,1455,2928.54
13514,-1.6508,-0.4705,12.7372,1443,2928.54
13519,-5.1799,0.4106,10.7823,1447,2928.54
13524,0.3915,2.976,8.9783,1467,2928.69
13529,2.7665,3.6033,10.7416,1448,2928.69
13534,-1.4174,-0.0407,12.6342,1445,2928.69
13539,-5.0063,-0.1006,11.157,1456,2928.69
13544,-0.2418,2.8766,8.7855,1463,2928.69
13549,2.5642,3.7924,10.5225,1453,2928.69
13554,-1.2354,0.2622,12.5193,1449,2928.69
13559,-4.7788,-0.6249,11.4814,1455,2928.69
13564,-0.9732,2.7007,8.7293,1483,2928.97
13569,2.3343,3.8391,10.3753,1449,2928.97
13574,-0.99,0.5746,12.4463,1451,2928.97
13579,-4.4748,-1.0582,11.7388,1451,2928.97
13584,-1.6963,2.545,8.6167,1480,2928.83
13589,2.2051,3.8954,10.2867,1453,2928.83
13594,-0.5327,0.9804,12.2475,1445,2928.83
13599,-4.0677,-1.2941,12.0895,1449,2928.83
13604,-2.5235,2.4062,8.7005,1484,2928.97
13609,2.0399,3.8678,10.2101,1449,2928.97
13614,0.2047,1.2498,11.9578,1447,2928.97
13619,-3.644,-1.5395,12.3277,1454,2928.97
13624,-3.1927,2.223,8.8645,1483,2929.4
13629,2.0027,3.7601,10.0616,1451,2929.4
13634,0.9553,1.6412,11.8788,1452,6787.33
13639,-3.1352,-1.6125,12.5456,1453,6787.33
13644,-3.893,2.0027,9.1063,1485,5154.2
13649,1.8675,3.6236,9.8892,1445,5154.2
13654,1.7777,1.9992,11.6442,1453,5154.2
13659,-2.6791,-1.6352,12.5947,1453,5154.2
13664,-4.4532,1.7166,9.4379,1448,5154.2
13669,1.7142,3.4524,9.6965,1462,2929.54
13674,2.3822,2.4205,11.4658,1451,2929.54
13679,-2.2565,-1.4281,12.6665,1449,2929.54
13684,-4.889,1.4042,9.8378,1459,2929.54
13689,1.4808,3.2872,9.4152,1460,2929.69
13694,2.6971,2.824,11.1833,1448,2929.69
13699,-1.913,-1.1001,12.7455,1451,2929.69
13704,-5.1559,1.0439,10.2185,1447,2929.69
13709,1.0726,3.207,9.2668,1461,2929.69
13714,2.8982,3.2118,10.9978,1452,2929.69
13719,-1.6484,-0.6572,12.7934,1437,2929.69
13724,-5.2134,0.6117,10.574,1451,2929.69
13729,0.6021,3.0347,8.9926,1465,2929.4
13734,2.9197,3.4919,10.7667,1451,2929.4
13739,-1.4664,-0.2693,12.7862,1447,2929.4
13744,-5.0745,0.1293,10.9882,1449,2929.4
13749,0.0778,2.885,8.8131,1465,2929.12
13754,2.7521,3.7302,10.6973,1447,2929.12
13759,-1.3479,0.0946,12.548,1439,2929.12
13764,-4.871,-0.3819,11.3174,1455,2929.12
13769,-0.6021,2.7019,8.6479,1483,2928.26
13774,2.5271,3.8642,10.6063,1452,2928.26
13779,-1.1899,0.413,12.4187,1452,2928.26
13784,-4.543,-0.8619,11.6837,1448,2928.26
13789,-1.3084,2.5809,8.6538,1481,2927.83
13794,2.2841,3.9373,10.4734,1453,2927.83
13799,-0.7913,0.8056,12.2739,1447,2927.83
13804,-4.2701,-1.1935,11.9435,1451,2927.83
13809,-2.1129,2.4541,8.7269,1480,2927.69
13814,2.083,3.9049,10.3178,1453,2927.69
13819,-0.1784,1.1384,12.0632,1447,2927.69
13824,-3.802,-1.4952,12.2439,1447,2927.69
13829,-2.9449,2.3236,8.8358,1460,2927.69
13834,2.0111,3.8152,10.0664,1451,2927.69
13839,0.7015,1.4964,11.9578,1448,2927.69
13844,-3.316,-1.6328,12.3888,1453,2927.69
13849,-3.6428,2.1105,9.0944,1480,2927.4
13854,1.9166,3.699,9.9467,1447,2927.4
13859,1.5335,1.8459,11.7639,1459,2927.4
13864,-2.7749,-1.5945,12.5708,1447,2927.4
13869,-4.2844,1.8292,9.3087,1466,2927.4
13874,1.7633,3.5243,9.7755,1465,2927.11
13879,2.2661,2.2721,11.4491,1451,2927.11
13884,-2.3798,-1.4521,12.7539,1448,2927.11
13889,-4.7453,1.5359,9.7013,1459,2927.11
13894,1.4904,3.3567,9.5158,1459,2926.83
13899,2.636,2.7282,11.2527,1449,2926.83
13904,-2.0375,-1.1899,12.7826,1449,2926.83
13909,-5.0901,1.1648,10.0042,1449,2926.83
13914,1.166,3.2034,9.2871,1461,2926.69
13919,2.8754,3.1603,11.1163,1451,2926.69
13924,-1.7478,-0.7362,12.791,1449,2926.69
13929,-5.1607,0.7003,10.5129,1445,2926.69
13934,0.753,3.0347,9.0046,1462,2926.83
13939,2.9066,3.4632,10.8553,1455,2926.83
13944,-1.506,-0.316,12.6593,1448,2926.83
13949,-5.1128,0.2358,10.9319,1449,2926.83
13954,0.1951,2.97,8.9292,1465,2926.69
13959,2.7246,3.705,10.6877,1451,2926.69
13964,-1.3838,0.0599,12.5983,1445,2926.69
13969,-4.9081,-0.3148,11.2958,1454,2926.69
13974,-0.5064,2.7988,8.7771,1479,2926.69
13979,2.4972,3.7912,10.4267,1453,2926.69
13984,-1.1265,0.3986,12.4929,1447,2926.69
13989,-4.6759,-0.7793,11.6765,1449,2926.69
13994,-1.2725,2.6324,8.7221,1480,2926.83
13999,2.3104,3.8738,10.3262,1455,2926.83
14004,-0.8248,0.7518,12.4056,1447,2926.83
14009,-4.2617,-1.1684,11.9542,1449,2926.83
14014,-2.0734,2.4732,8.6706,1485,2926.97
14019,2.1284,3.893,10.2532,1451,2926.97
14024,-0.2035,1.0558,12.1733,1446,2926.97
14029,-3.8331,-1.4892,12.1865,1439,2926.97
14034,-2.8144,2.3188,8.8681,1465,2926.97
14039,2.0231,3.7936,10.1143,1453,2926.97
14044,0.5567,1.4246,11.9195,1449,2926.97
14049,-3.3255,-1.5993,12.4199,1453,2926.97
14054,-3.5686,2.1284,8.9818,1485,2926.97
14059,1.901,3.6691,9.9922,1447,2926.97
14064,1.4162,1.8232,11.7424,1455,2926.97
14069,-2.879,-1.6041,12.5935,1445,2926.97
14074,-4.2138,1.8771,9.341,1451,2926.97
14079,1.7657,3.5362,9.7755,1465,2926.83
14084,2.0913,2.2805,11.5281,1455,2926.83
14089,-2.4313,-1.4964,12.6665,1446,2926.83
14094,-4.7226,1.5383,9.6403,1459,2926.83
14099,1.5179,3.3938,9.5888,1463,2927.11
14104,2.5798,2.648,11.321,1448,2927.11
14109,-2.0135,-1.2294,12.6833,1451,2927.11
14114,-5.0601,1.2043,10.1047,1451,2927.11
14119,1.2139,3.2633,9.3278,1463,2927.11
14124,2.8276,3.0754,11.0768,1450,2927.11
14129,-1.6939,-0.7925,12.7024,1449,2927.11
14134,-5.1691,0.7542,10.4507,1447,2927.11
14139,0.7434,3.1149,9.1147,1463,2927.4
14144,2.8874,3.3962,10.8493,1453,2927.4
14149,-0.2394,1.1253,12.2164,1447,2927.4
14154,-5.1619,0.2274,10.8733,1446,2927.4
14159,0.1939,2.909,8.8992,1467,2927.54
14164,2.7593,3.6476,10.6602,1450,2927.54
14169,-1.3982,0.0,12.7048,1440,2927.54
14174,-4.9368,-0.2693,11.2504,1455,2927.54
14179,-0.4106,2.7593,8.6179,1479,2927.4
14184,2.5809,3.8403,10.574,1449,2927.4
14189,-1.2246,0.3879,12.4846,1450,2927.4
14194,-4.6352,-0.7398,11.5999,1445,2927.4
14199,-1.1301,2.6647,8.6012,1483,2927.4
14204,2.326,3.9265,10.4782,1455,2927.4
14209,-0.911,0.6871,12.3134,1449,2927.4
14214,-4.2976,-1.136,11.8896,1451,2927.4
14219,-1.9273,2.5043,8.5916,1485,2927.4
14224,2.0973,3.9121,10.4148,1453,2927.4
14229,-0.3579,1.0068,12.159,1450,2927.4
14234,-3.9145,-1.4509,12.1578,1449,2927.4
14239,-2.7713,2.3188,8.7628,1482,2927.11
14244,1.9644,3.7888,10.2268,1452,2927.11
14249,0.3938,1.3791,11.9985,1449,2927.11
14254,-3.4309,-1.6149,12.4008,1455,2927.11
14259,-3.5147,2.0889,9.0261,1465,2927.4
14264,1.9393,3.6883,10.0018,1448,2927.4
14269,1.2713,1.7885,11.795,1453,2927.4
14274,-2.8994,-1.6436,12.4834,1440,2927.4
14279,-4.2102,1.8998,9.25,1450,2927.4
14284,1.8232,3.5626,9.8653,1467,2927.54
14289,2.0686,2.1871,11.5987,1451,2927.54
14294,-2.4074,-1.5335,12.6737,1448,2927.54
14299,-4.6591,1.5945,9.5481,1460,2927.54
14304,1.5993,3.4105,9.6115,1461,2927.83
14309,2.6049,2.6013,11.3234,1448,2927.83
14314,-2.0901,-1.239,12.7695,1451,2927.83
14319,-5.0386,1.2426,9.9886,1451,2927.83
14324,1.2522,3.2465,9.2907,1465,2927.97
14329,2.8299,3.0215,11.0875,1447,2927.97
14334,-1.8268,-0.8583,12.791,1445,2927.97
14339,-5.1894,0.8056,10.3585,1450,2927.97
14344,0.8428,3.0622,9.1231,1456,2928.4
14349,2.9257,3.3698,10.9223,1453,2928.4
14354,-1.5945,-0.4824,12.7479,1445,2928.4
14359,-5.1619,0.3376,10.8242,1451,2928.4
14364,0.3579,2.9568,8.8849,1467,2928.4
14369,2.7593,3.65,10.7715,1448,2928.4
14374,-1.4281,-0.0575,12.6234,1440,2928.4
14379,-4.9728,-0.1389,11.1761,1461,2928.4
14384,-0.3196,2.8323,8.7843,1478,2928.83
14389,2.5857,3.808,10.5919,1451,2928.83
14394,-1.2378,0.3567,12.5372,1451,2928.83
14399,-4.7848,-0.6237,11.5293,1449,2928.83
14404,-0.9732,2.7246,8.6718,1485,2928.97
14409,2.399,3.8846,10.3872,1453,11787.82
14414,-0.9397,0.6704,12.4391,1449,11787.82
14419,-4.4676,-1.0319,11.807,1449,11787.82
14424,-1.7609,2.5558,8.691,1478,3897.12
14429,2.15,3.8762,10.2328,1448,3897.12
14434,-0.4992,0.9661,12.2691,1449,3897.12
14439,-4.0199,-1.3958,12.0632,1451,3897.12
14444,-2.5642,2.3607,8.7113,1464,2928.83
14449,2.0351,3.8271,10.1502,1452,2928.83
14454,0.2322,1.233,12.0787,1446,2928.83
14459,-3.5542,-1.6173,12.378,1455,2928.83
14464,-3.2932,2.1823,8.831,1463,2928.97
14469,1.9046,3.6571,10.094,1446,2928.97
14474,1.0762,1.6101,11.7974,1455,2928.97
14479,-3.122,-1.6101,12.5037,1445,2928.97
14484,-3.9325,2.0207,9.1171,1461,2929.26
14489,1.8244,3.6081,9.8497,1449,2929.26
14494,1.7849,2.071,11.6298,1451,2929.26
14499,-2.6348,-1.5526,12.6689,1449,2929.26
14504,-4.5203,1.7705,9.4607,1454,2929.26
14509,1.7035,3.4884,9.6295,1459,2929.4
14514,2.4349,2.4301,11.4156,1453,2929.4
14519,-2.235,-1.3348,12.7156,1443,2929.4
14524,-4.95,1.4042,9.8438,1453,2929.4
14529,1.421,3.3363,9.4535,1459,2929.69
14534,2.7725,2.8527,11.1558,1449,2929.69
14539,-1.8866,-1.0989,12.6761,1447,2929.69
14544,-5.1631,0.9852,10.2161,1449,2929.69
14549,1.0187,3.1843,9.177,1456,2929.97
14554,2.9149,3.1831,10.9619,1455,2929.97
14559,-1.5886,-0.6357,12.706,1449,2929.97
14564,-5.211,0.5638,10.6482,1449,2929.97
14569,0.565,3.0933,9.001,1467,2929.97
14574,2.8276,3.5291,10.7392,1451,2929.97
14579,-1.4772,-0.1784,12.7575,1446,2929.97
14584,-5.1679,0.0575,11.0648,1459,2929.97
14589,-0.0108,2.8551,8.7376,1455,2930.26
14594,2.7306,3.7589,10.6159,1451,2930.26
14599,-1.3671,0.1448,12.6342,1449,2930.26
14604,-4.8758,-0.3771,11.3796,1453,2930.26
14609,-0.5938,2.7845,8.6431,1485,2930.4
14614,2.5654,3.9313,10.5357,1449,2930.4
14619,-1.1432,0.4657,12.4834,1453,2930.4
14624,-4.604,-0.8332,11.7376,1450,2930.4
14629,-1.2989,2.5809,8.5425,1483,2930.4
14634,2.3188,3.9049,10.4196,1455,2930.4
14639,-0.7422,0.7985,12.2727,1449,2930.4
14644,-4.2102,-1.2486,11.9686,1447,2930.4
14649,-2.0626,2.4157,8.6299,1485,2930.4
14654,2.1272,3.8954,10.337,1449,2930.4
14659,-0.1413,1.0918,12.0764,1449,2930.4
14664,-3.808,-1.5107,12.1649,1455,2930.4
14669,-2.8587,2.326,8.7999,1483,2930.69
14674,1.9561,3.7673,10.2328,1451,2930.69
14679,0.6009,1.421,11.9818,1460,2930.69
14684,-3.3926,-1.6257,12.3912,1453,2930.69
14689,-3.614,2.1201,9.0513,1491,2931.12
14694,1.9213,3.6943,9.9467,1448,2931.12
14699,1.4126,1.7945,11.8166,1455,2931.12
14704,-2.9054,-1.6592,12.5588,1448,2931.12
14709,-4.2521,1.9058,9.2847,1447,2931.12
14714,1.7777,3.5638,9.8258,1463,2931.26
14719,2.132,2.1955,11.6155,1451,2931.26
14724,-2.4337,-1.5107,12.7348,1449,2931.26
14729,-4.7501,1.6316,9.5708,1455,2931.26
14734,1.5838,3.4608,9.5481,1461,2931.55
14739,2.6552,2.636,11.2839,1448,2931.55
14744,-2.0913,-1.227,12.7922,1453,2931.55
14749,-5.0985,1.2462,9.9754,1450,2931.55
14754,1.2677,3.2429,9.244,1463,2931.41
14759,2.9173,2.9844,11.1402,1449,2931.41
14764,-1.8076,-0.9206,12.8233,1448,2931.41
14769,-5.199,0.8152,10.3202,1451,2931.41
14774,0.9194,3.0706,9.0297,1461,2931.26
14779,2.9509,3.3196,10.9678,1455,2931.26
14784,-1.6089,-0.5507,12.7635,1449,2931.26
14789,-5.211,0.3974,10.7368,1447,2931.26
14794,0.4214,2.9928,8.928,1469,2931.26
14799,2.8264,3.6176,10.7751,1451,2931.26
14804,-1.5107,-0.0934,12.718,1444,2931.26
14809,-5.1008,-0.0215,11.139,1453,2931.26
14814,-0.1532,2.885,8.8155,1477,2930.98
14819,2.6312,3.7936,10.5824,1451,2930.98
14824,-1.2629,0.255,12.651,1445,2930.98
14829,-4.8578,-0.5387,11.4646,1449,2930.98
14834,-0.8535,2.733,8.7245,1483,2930.98
14839,2.4469,3.8642,10.3298,1460,2930.98
14844,-0.9792,0.5734,12.5109,1451,2930.98
14849,-4.5322,-0.9481,11.7855,1448,2930.98
14854,-1.5766,2.5546,8.6407,1480,2931.12
14859,2.2553,3.8774,10.2843,1454,2931.12
14864,-0.5555,0.8475,12.3744,1447,2931.12
14869,-4.1001,-1.3036,12.0584,1448,2931.12
14874,-2.3403,2.3284,8.6586,1478,2931.12
14879,2.0973,3.8319,10.2053,1453,2931.12
14884,0.0359,1.1528,12.0955,1449,2931.12
14889,-3.7385,-1.5886,12.3361,1455,2931.12
14894,-3.1005,2.247,8.8645,1467,2930.55
14899,1.9656,3.7565,10.0844,1447,2930.55
14904,0.7626,1.5383,11.9507,1455,2930.55
14909,-3.2932,-1.6161,12.5109,1447,2930.55
14914,-3.7649,2.0542,9.0285,1467,2931.26
14919,1.8938,3.6955,9.9647,1451,2931.26
14924,1.5778,1.9118,11.7472,1455,2931.26
14929,-2.8455,-1.5957,12.6342,1449,2931.26
14934,-4.3527,1.8364,9.3158,1449,2931.26
14939,1.7573,3.5374,9.7432,1463,2931.41
14944,2.2218,2.2996,11.5436,1447,2931.41
14949,-2.3679,-1.4473,12.6486,1447,2931.41
14954,-4.8351,1.5203,9.7157,1459,2931.41
14959,1.5598,3.3806,9.5253,1464,2931.41
14964,2.4708,3.8223,10.5189,1449,2931.41
14969,-1.9668,-1.1863,12.7096,1449,2931.41
14974,-5.0841,1.1444,10.0712,1447,2931.41
14979,1.2342,3.2453,9.2787,1465,2931.41
14984,2.897,3.0394,11.0875,1453,2931.41
14989,-1.7011,-0.8655,12.7288,1443,2931.41
14994,-5.2529,0.6979,10.4854,1448,2931.41
14999,0.7374,3.1029,9.0752,1467,2931.12
15004,2.8659,3.4369,10.817,1451,2931.12
15009,-1.5718,-0.3843,12.815,1447,2931.12
15014,-5.2541,0.3208,10.8709,1451,2931.12
15019,0.2825,2.9556,8.8442,1468,2930.98
15024,2.7761,3.6571,10.6997,1449,2930.98
15029,-1.4365,-0.0275,12.73,1442,2930.98
15034,-5.029,-0.1772,11.2516,1453,2930.98
15039,-0.334,2.8108,8.7173,1463,2930.83
15044,2.6384,3.863,10.6255,1448,2930.83
15049,-1.2414,0.3484,12.5324,1449,2930.83
15054,-4.7118,-0.6369,11.5676,1447,2930.83
15059,-0.9852,2.709,8.576,1481,2930.98
15064,2.4732,3.9409,10.4399,1453,2930.98
15069,-0.9732,0.6237,12.2739,1444,2930.98
15074,-4.3766,-1.1001,11.8369,1449,2930.98
15079,-1.737,2.4852,8.5844,1487,2930.69
15084,2.1679,3.869,10.404,1449,2930.69
15089,-0.4441,0.9517,12.159,1449,2930.69
15094,-3.9995,-1.4042,12.1027,1433,2930.69
15099,-2.5283,2.3523,8.6646,1464,2930.55
15104,2.0291,3.8211,10.2532,1451,2930.55
15109,0.2203,1.2617,12.1063,1447,2930.55
15114,-3.6152,-1.6089,12.3397,1453,2930.55
15119,-3.322,2.1787,8.9004,1465,2930.12
15124,1.9321,3.7254,9.985,1448,2930.12
15129,1.0319,1.6436,11.9219,1459,2930.12
15134,-3.1328,-1.634,12.5073,1445,2930.12
15139,-4.0007,1.986,9.1303,1451,2930.12
15144,1.8902,3.6667,9.918,1467,2930.26
15149,1.8711,2.0303,11.7088,1448,2930.26
15154,-2.6288,-1.5431,12.6593,1451,2930.26
15159,-4.5298,1.7526,9.4068,1459,2930.26
15164,1.7059,3.5279,9.645,1461,2930.12
15169,2.4972,2.4074,11.4024,1449,2930.12
15174,-2.2326,-1.3156,12.7994,1449,2930.12
15179,-4.9225,1.3647,9.7887,1459,2930.12
15184,1.4114,3.3339,9.4188,1463,2929.97
15189,2.8216,2.7869,11.2156,1447,2929.97
15194,-1.9273,-1.0726,12.8305,1449,2929.97
15199,-5.1691,0.9481,10.1574,1449,2929.97
15204,1.0714,3.1639,9.1889,1461,2930.26
15209,2.8874,3.2106,11.0217,1455,2930.26
15214,-1.7071,-0.6728,12.7862,1449,2930.26
15219,-5.2457,0.5507,10.6003,1447,2930.26
15224,0.571,3.0466,8.995,1469,2930.26
15229,2.8467,3.5279,10.8601,1450,2930.26
15234,-1.5203,-0.2011,12.6821,1443,2930.26
15239,-5.1571,0.158,11.0121,1455,2930.26
15244,0.0371,2.9401,8.8717,1479,2930.26
15249,2.6707,3.7577,10.6434,1447,2930.26
15254,-1.3252,0.1556,12.6174,1453,2930.26
15259,-4.9488,-0.3328,11.4096,1452,2930.26
15264,-0.589,2.788,8.734,1481,2930.26
15269,2.5199,3.8415,10.416,1453,2930.26
15274,-1.1109,0.4992,12.4989,1452,2930.26
15279,-4.6448,-0.8212,11.7196,1439,2930.26
15284,-1.3479,2.6205,8.6706,1471,2930.26
15289,2.3284,3.8547,10.3226,1455,2930.26
15294,-0.7302,0.7853,12.4331,1447,2930.26
15299,-4.2353,-1.2402,11.9531,1450,2930.26
15304,-2.0865,2.4122,8.6431,1469,2930.26
15309,2.1656,3.8235,10.2939,1447,2930.26
15314,-0.1724,1.008,12.1506,1447,2930.26
15319,-3.8607,-1.4712,12.208,1455,2930.26
15324,-2.8371,2.32,8.7592,1469,2930.55
15329,1.9752,3.8068,10.088,1449,2930.55
15334,0.5088,1.4473,11.9291,1455,2930.55
15339,-3.486,-1.6125,12.4738,1449,2930.55
15344,-3.5733,2.1368,8.9196,1486,2930.55
15349,1.9225,3.723,9.9814,1449,2930.55
15354,1.3408,1.804,11.8262,1455,2930.55
15359,-2.9963,-1.6197,12.5959,1447,2930.55
15364,-4.2174,1.9249,9.2332,1447,2930.55
15369,1.8052,3.5614,9.833,1463,2930.55
15374,2.1141,2.1955,11.6191,1449,2930.55
15379,-2.4864,-1.4952,12.5971,1447,2930.55
15384,-4.7238,1.6137,9.6163,1459,2930.55
15389,1.6053,3.4249,9.6223,1464,2930.4
15394,2.6348,2.5762,11.3617,1444,2930.4
15399,-2.0722,-1.2977,12.6438,1449,2930.4
15404,-5.0625,1.1875,9.9647,1446,2930.4
15409,1.2929,3.231,9.341,1455,2930.55
15414,2.873,2.9317,11.1378,1454,2930.55
15419,-1.7561,-0.893,12.7395,1444,2930.55
15424,-5.2265,0.8033,10.4016,1448,2930.55
15429,0.8607,3.1053,9.1913,1471,2930.4
15434,2.8802,3.3124,10.8673,1455,2930.4
15439,-1.6245,-0.4752,12.8174,1449,2930.4
15444,-5.2517,0.3807,10.7763,1451,2930.4
15449,0.3531,2.9808,8.9579,1467,2930.55
15454,2.8323,3.6308,10.7356,1449,2930.55
15459,-1.5036,-0.0575,12.724,1445,2930.55
15464,-5.0865,-0.1006,11.1354,1455,2930.55
15469,-0.1915,2.8264,8.7508,1468,2930.69
15474,2.6635,3.8367,10.647,1449,2930.69
15479,-1.3372,0.2729,12.5684,1453,2930.69
15484,-4.7992,-0.5435,11.5149,1451,2930.69
15489,-0.8392,2.7019,8.5892,1481,2930.98
15494,2.5091,3.9049,10.5405,1459,2930.98
15499,-1.0092,0.5339,12.39,1445,2930.98
15504,-4.4867,-0.9661,11.7902,1449,2930.98
15509,-1.5299,2.5127,8.5892,1485,2931.12
15514,2.2996,3.8882,10.4016,1453,2931.12
15519,-0.5674,0.8559,12.226,1447,2931.12
15524,-4.1408,-1.3024,12.0752,1451,2931.12
15529,-2.3846,2.3798,8.6826,1490,2931.41
15534,2.0602,3.8116,10.2735,1451,2931.41
15539,0.0646,1.2055,12.129,1449,2931.41
15544,-3.735,-1.5993,12.3014,1453,2931.41
15549,-3.1029,2.2362,8.8538,1484,2931.55
15554,1.9489,3.7433,10.0652,1447,2931.55
15559,0.8607,1.567,12.0177,1455,2931.55
15564,-3.2932,-1.6436,12.4367,1445,2931.55
15569,-3.8463,2.0865,9.092,1451,2931.55
15574,1.8938,3.6691,9.9838,1467,2931.83
15579,1.6676,1.9357,11.7675,1447,2931.83
15584,-2.7809,-1.5502,12.627,1449,2931.83
15589,-4.3515,1.8124,9.335,1459,2931.83
15594,1.8447,3.4884,9.6774,1459,2931.55
15599,2.9724,3.1268,11.0349,1448,2931.55
15604,-2.399,-1.4102,12.7156,1451,2931.55
15609,-4.81,1.5239,9.6426,1459,2931.55
15614,0.7063,3.0849,9.0393,1462,2931.98
15619,2.8659,3.4453,10.9355,1451,2931.98
15624,-1.5718,-0.3424,12.7395,1449,2931.98
15629,-5.2074,0.1664,10.8314,1449,2931.98
15634,0.1867,2.885,8.8071,1463,2931.98
15639,2.7402,3.7122,10.756,1455,2931.98
15644,-1.4808,0.0287,12.6139,1451,2931.98
15649,-5.0518,-0.2263,11.2767,1449,2931.98
15654,-0.4597,2.8072,8.7388,1467,2932.41
15659,2.5893,3.8559,10.5656,1452,2932.41
15664,-1.2594,0.4214,12.4738,1447,2932.41
15669,-4.7537,-0.6788,11.6107,1455,2932.41
15674,-1.1061,2.6205,8.6419,1465,2932.69
15679,2.4086,3.8547,10.3633,1452,2932.69
15684,-0.8284,0.7039,12.3888,1447,2932.69
15689,-4.4496,-1.0738,11.8812,1455,2932.69
15694,-1.8375,2.5319,8.6682,1480,2932.98
15699,2.2362,3.8511,10.228,1451,2932.98
15704,-0.3819,0.9756,12.3026,1452,2932.98
15709,-4.0199,-1.421,12.0931,1449,2932.98
15714,-2.5929,2.332,8.7185,1491,2933.12
15719,2.071,3.796,10.1526,1455,2933.12
15724,0.3256,1.2641,12.1266,1445,2933.12
15729,-3.6093,-1.6005,12.3565,1449,2933.12
15734,-3.2801,2.1799,8.8969,1485,2933.12
15739,1.9213,3.6883,10.0281,1450,2933.12
15744,1.0151,1.6041,11.8525,1451,2933.12
15749,-3.2178,-1.6723,12.548,1453,2933.12
15754,-3.9624,1.9896,9.0752,1483,2933.12
15759,1.8423,3.5805,9.8294,1454,2933.12
15764,1.7502,2.0039,11.7531,1448,2933.12
15769,-2.8168,-1.5383,12.6534,1453,2933.12
15774,-4.458,1.7897,9.396,1480,2933.12
15779,1.7226,3.4979,9.6462,1447,2933.12
15784,2.4062,2.381,11.564,1459,2933.12
15789,-2.3667,-1.3587,12.7503,1445,2933.12
15794,-4.8878,1.4413,9.7755,1451,2933.12
15799,1.4832,3.3531,9.4355,1465,2933.27
15804,2.7725,2.806,11.2982,1447,2933.27
15809,-1.986,-1.1025,12.7024,1447,2933.27
15814,-5.1475,1.0594,10.0556,1455,2933.27
15819,1.1564,3.1939,9.2476,1459,2933.41
15824,2.6815,3.6775,10.6386,1451,2933.41
15829,-1.7166,-0.7566,12.7431,1451,2933.41
15834,-5.2708,0.6752,10.5237,1460,2933.41
15839,0.7398,3.0394,9.0465,1463,2933.7
15844,2.8503,3.4141,10.805,1447,2933.7
15849,-1.5467,-0.3519,12.7886,1451,2933.7
15854,-5.2601,0.2227,10.9068,1449,2933.7
15859,0.1963,2.9341,8.8801,1459,2933.7
15864,2.7414,3.6452,10.6949,1455,2933.7
15869,-1.4305,0.0311,12.7443,1447,2933.7
15874,-5.0182,-0.2418,11.2156,1451,2933.7
15879,-0.3986,2.7821,8.6766,1469,2933.99
15884,2.6145,3.8128,10.5704,1453,2933.99
15889,-1.2163,0.3172,12.5444,1447,2933.99
15894,-4.7884,-0.6129,11.5843,1461,2933.99
15899,-1.0139,2.7054,8.5509,1455,2933.99
15904,2.4696,3.9409,10.4722,1453,2933.99
15909,-0.9373,0.6393,12.3433,1447,2933.99
15914,-4.4496,-1.0056,11.8321,1453,2933.99
15919,-1.6712,2.4804,8.5677,1486,2933.7
15924,2.2817,3.8918,10.3872,1451,2933.7
15929,-0.4537,0.8703,12.2308,1448,2933.7
15934,-4.0809,-1.3479,12.0847,1449,2933.7
15939,-2.4505,2.3679,8.7137,1480,2933.84
15944,2.0877,3.8247,10.2627,1455,2933.84
15949,0.1544,1.2151,12.0345,1447,2933.84
15954,-3.6871,-1.5766,12.2571,1450,2933.84
15959,-3.2106,2.2027,8.8071,1481,2933.55
15964,1.9489,3.7493,10.0616,1452,2933.55
15969,0.9661,1.5826,11.9112,1449,2933.55
15974,-3.2693,-1.6448,12.4678,1455,2933.55
15979,-3.9109,2.0351,9.0992,1465,2933.55
15984,1.8447,3.6452,9.8509,1451,2933.55
15989,1.7334,1.9357,11.7352,1447,2933.55
15994,-2.897,-1.579,12.5959,1453,2933.55
15999,-4.4388,1.8076,9.3314,1461,2933.7
16004,1.7394,3.4943,9.6989,1447,2933.7
16009,2.3727,2.3272,11.5113,1455,2933.7
16014,-2.4253,-1.3815,12.8233,1446,2933.7
16019,-4.8782,1.5706,9.6606,1453,2933.7
16024,1.5407,3.3722,9.4475,1465,2933.27
16029,2.7234,2.7078,11.2887,1445,2933.27
16034,-2.0961,-1.1648,12.7467,1449,2933.27
16039,-5.108,1.1073,9.9778,1461,2933.27
16044,1.1768,3.1831,9.2308,1459,2933.12
16049,2.9125,3.0358,11.1893,1451,2933.12
16054,-1.804,-0.8092,12.7563,1451,2933.12
16059,-5.2194,0.7697,10.3513,1455,2933.12
16064,0.8308,3.0574,9.0297,1463,2933.27
16069,2.8718,3.3782,10.9822,1447,2933.27
16074,-1.6281,-0.4357,12.7084,1453,2933.27
16079,-5.2241,0.2646,10.8457,1449,2933.27
16084,0.2586,2.9137,8.9124,1459,2933.12
16089,2.7569,3.6045,10.7643,1455,2933.12
16094,-1.4222,-0.0395,12.6581,1447,2933.12
16099,-5.1104,-0.1197,11.2216,1455,2933.12
16104,-0.3376,2.8503,8.7927,1468,2933.27
16109,2.6001,3.7505,10.5117,1449,2933.27
16114,-1.2043,0.2885,12.5672,1447,2933.27
16119,-4.8375,-0.5519,11.5508,1453,2933.27
16124,-0.9469,2.7043,8.7029,1466,2933.41
16129,2.4421,3.8882,10.3525,1449,2933.41
16134,-0.9182,0.6309,12.5444,1445,2933.41
16139,-4.5167,-1.0175,11.8357,1460,2933.41
16144,-1.6939,2.5893,8.6287,1480,2932.98
16149,2.2769,3.8894,10.3166,1449,2932.98
16154,-0.4705,0.8871,12.2739,1450,2932.98
16159,-4.1336,-1.3348,12.0081,1449,2932.98
16164,-2.3894,2.3846,8.6514,1469,2933.41
16169,2.1225,3.796,10.1897,1455,2933.41
16174,0.1425,1.1756,12.0967,1447,2933.41
16179,-3.7469,-1.5215,12.3122,1450,2933.41
16184,-3.1053,2.2075,8.8011,1481,2933.55
16189,1.9405,3.699,10.0497,1447,2933.55
16194,0.8571,1.5119,11.9279,1447,2933.55
16199,-3.3016,-1.646,12.5037,1459,2933.55
16204,-3.7625,2.0614,9.0237,1463,2933.55
16209,1.8902,3.644,9.9431,1451,2933.55
16214,1.5814,1.889,11.7483,1449,2933.55
16219,-2.909,-1.6185,12.548,1455,2933.55
16224,-4.3503,1.8914,9.3398,1469,2933.55
16229,1.7861,3.5446,9.7408,1447,2933.55
16234,2.2446,2.3044,11.6083,1455,2933.55
16239,-2.4277,-1.4389,12.6737,1447,2933.55
16244,-4.786,1.579,9.645,1451,2933.55
16249,1.5957,3.4297,9.5325,1467,2934.7
16254,2.7258,2.6923,11.3557,1449,2934.7
16259,-2.0566,-1.2198,12.7276,1446,2934.7
16264,-5.1044,1.2282,10.0449,1459,2934.7
16269,1.2546,3.2848,9.2895,1459,2934.42
16274,2.885,2.9856,11.0875,1451,2934.42
16279,-1.7753,-0.8499,12.8329,1449,2934.42
16284,-5.3056,0.8284,10.3382,1458,2934.42
16289,0.8523,3.0873,9.0393,1465,2934.7
16294,2.9173,3.3375,10.9176,1450,2934.7
16299,-1.6364,-0.4884,12.8293,1448,2934.7
16304,-5.2804,0.401,10.6985,1448,2934.7
16309,0.407,2.9389,8.8454,1463,2934.7
16314,2.8718,3.6093,10.8122,1459,2934.7
16319,-1.5215,-0.1221,12.7048,1443,2934.7
16324,-5.1092,-0.0383,11.1282,1451,2934.7
16329,-0.1329,2.8323,8.6598,1470,2934.85
16334,2.7246,3.7864,10.6698,1451,2934.85
16339,-1.3563,0.2227,12.6067,1445,2934.85
16344,-4.8997,-0.4525,11.4024,1453,2934.85
16349,-0.7278,2.7402,8.5712,1464,2934.99
16354,2.5833,3.9169,10.5704,1453,2934.99
16359,-1.0499,0.5291,12.4211,1447,2934.99
16364,-4.6029,-0.9026,11.7041,1455,2934.99
16369,-1.4126,2.563,8.6347,1461,2935.13
16374,2.3212,3.9301,10.3681,1435,2935.13
16379,-0.5938,0.7997,12.2823,1451,2935.13
16384,-4.2832,-1.2318,11.959,1448,2935.13
16389,-2.1703,2.4349,8.6407,1481,2934.99
16394,2.1715,3.8176,10.1813,1455,2934.99
16399,-0.012,1.0846,12.214,1447,2934.99
16404,-3.875,-1.5646,12.2356,1451,2934.99
16409,-2.9449,2.2865,8.7807,1481,2935.13
16414,2.0004,3.79,10.0916,1455,2935.13
16419,0.7039,1.4186,12.0488,1447,2935.13
16424,-3.486,-1.6328,12.4068,1448,2935.13
16429,-3.6152,2.1524,8.9627,1459,2935.56
16434,1.9429,3.6643,9.9132,1455,2935.56
16439,1.4042,1.7466,11.7591,1445,2935.56
16444,-3.1005,-1.6316,12.645,1455,2935.56
16449,-4.1683,1.9525,9.2033,1463,2935.56
16454,1.828,3.6045,9.748,1448,2935.56
16459,2.065,2.156,11.6669,1459,2935.56
16464,-2.6492,-1.5036,12.7288,1439,2935.56
16469,-4.6196,1.6771,9.4547,1461,2935.85
16474,1.6747,3.4093,9.5481,1451,2935.85
16479,2.5367,2.5163,11.4934,1455,2935.85
16484,-2.2984,-1.2917,12.809,1450,2935.85
16489,-4.9835,1.3767,9.7911,1451,2935.85
16494,1.4102,3.3184,9.3697,1462,2935.85
16499,2.8778,2.8683,11.2599,1451,2935.85
16504,-1.9285,-1.0439,12.7144,1447,2935.85
16509,-5.1894,0.984,10.2268,1459,2935.85
16514,1.0798,3.1999,9.2117,1459,2935.71
16519,2.9018,3.1591,11.0385,1449,2935.71
16524,-1.6747,-0.6991,12.73,1449,2935.71
16529,-5.3103,0.5962,10.5884,1445,2935.71
16534,0.6273,3.0119,9.0046,1463,2935.56
16539,2.9018,3.4692,10.7464,1453,2935.56
16544,-1.5275,-0.2789,12.6893,1447,2935.56
16549,-5.266,0.1724,11.0193,1449,2935.56
16554,0.0874,2.9353,8.8705,1462,2935.42
16559,2.788,3.699,10.6434,1452,2935.42
16564,-1.4006,0.0814,12.7802,1447,2935.42
16569,-5.0015,-0.2921,11.2659,1451,2935.42
16574,-0.431,2.8084,8.6503,1465,2935.28
16579,2.6432,3.8547,10.5249,1452,2935.28
16584,-1.2067,0.3974,12.5983,1439,2935.28
16589,-4.7369,-0.6907,11.6119,1461,2935.28
16594,-1.0594,2.6683,8.5461,1477,2935.28
16599,2.4169,3.9241,10.3573,1453,2935.28
16604,-0.8894,0.6105,12.299,1451,2935.28
16609,-4.4197,-1.0977,11.8681,1451,2935.28
16614,-1.828,2.49,8.5533,1481,2934.85
16619,2.2625,3.8786,10.3382,1455,2934.85
16624,-0.3508,0.9278,12.2152,1453,2934.85
16629,-4.0941,-1.3934,12.1278,1451,2934.85
16634,-2.5307,2.381,8.6371,1478,2934.7
16639,2.0638,3.8199,10.222,1459,2934.7
16644,0.2334,1.2103,12.074,1445,2934.7
16649,-3.6595,-1.6173,12.323,1448,2934.7
16654,-3.2717,2.2254,8.8633,1465,2933.84
16659,1.974,3.7685,10.0712,1452,2933.84
16664,0.9828,1.6185,11.971,1444,2933.84
16669,-3.2453,-1.6831,12.4894,1463,2933.84
16674,-3.9265,2.0542,9.1147,1471,2934.56
16679,1.9297,3.6296,9.8581,1452,2934.56
16684,1.8316,1.9728,11.7723,1459,2934.56
16689,-2.812,-1.573,12.6414,1451,2934.56
16694,-4.452,1.8304,9.4248,1480,2933.99
16699,1.7813,3.5374,9.6259,1447,2933.99
16704,2.3966,2.3523,11.5353,1454,2933.99
16709,-2.3643,-1.391,12.7802,1450,2933.99
16714,-4.8291,1.5083,9.675,1448,2933.99
16719,1.5071,3.3507,9.3745,1467,2933.7
16724,2.7461,2.7318,11.2887,1448,2933.7
16729,-2.0806,-1.1372,12.8569,1447,2933.7
16734,-5.1332,1.1181,10.1083,1461,2933.7
16739,1.1564,3.1831,9.2344,1456,2934.27
16744,2.9042,3.1352,11.1725,1447,2934.27
16749,-1.8148,-0.8045,12.7348,1451,2934.27
16754,-5.2708,0.6859,10.4136,1449,2934.27
16759,0.8248,3.0502,8.9256,1461,2934.42
16764,2.9102,3.4357,11.0038,1451,2934.42
16769,-1.6688,-0.4477,12.7563,1449,2934.42
16774,-5.2553,0.3424,10.8182,1448,2934.42
16779,0.31,2.9724,8.8071,1461,2934.7
16784,2.812,3.705,10.7488,1451,2934.7
16789,-1.47,-0.0634,12.6498,1447,2934.7
16794,-5.12,-0.0994,11.1845,1452,2934.7
16799,-0.255,2.8683,8.7927,1468,2934.99
16804,2.6456,3.8176,10.574,1449,2934.99
16809,-1.2414,0.267,12.5684,1443,2934.99
16814,-4.8219,-0.5914,11.5029,1454,2934.99
16819,-0.8918,2.7222,8.6371,1477,2934.99
16824,2.4457,3.8834,10.343,1451,2934.99
16829,-0.8835,0.577,12.4846,1451,2934.99
16834,-4.4939,-1.0211,11.8441,1453,2934.99
16839,-1.6101,2.5414,8.6,1479,2935.42
16844,2.2553,3.8451,10.2975,1450,2935.42
16849,-0.4956,0.8428,12.3397,1445,2935.42
16854,-4.1791,-1.3563,12.0368,1451,2935.42
16859,-2.3391,2.4026,8.6287,1483,2935.71
16864,2.1823,3.887,10.2041,1455,2935.71
16869,0.0694,1.1205,12.1613,1447,2935.71
16874,-3.875,-1.5239,12.3325,1449,2935.71
16879,-3.0251,2.2996,8.7664,1483,2935.85
16884,2.047,3.8176,10.0724,1447,2935.85
16889,0.7482,1.4724,11.965,1451,2935.85
16894,-3.4393,-1.6149,12.487,1455,2935.85
16899,-3.6799,2.1261,9.001,1485,2936.14
16904,1.9716,3.7182,9.9539,1453,2936.14
16909,1.4605,1.834,11.789,1449,2936.14
16914,-3.0203,-1.6017,12.6222,1455,2936.14
16919,-4.2425,1.919,9.2596,1485,2936.14
16924,1.8567,3.5829,9.7648,1447,2936.14
16929,2.1548,2.1608,11.5843,1459,2936.14
16934,-2.5666,-1.5455,12.6857,1447,2936.14
16939,-4.6783,1.6412,9.5636,1452,2936.14
16944,1.6376,3.4345,9.5996,1463,2936.14
16949,2.6073,2.5618,11.4239,1446,2936.14
16954,-2.1859,-1.3647,12.7623,1447,2936.14
16959,-5.0709,1.3084,9.9276,1459,2936.14
16964,1.3815,3.2944,9.3242,1459,2936.28
16969,2.885,2.9042,11.1761,1451,2936.28
16974,-1.9357,-1.0104,12.8281,1449,2936.28
16979,-5.2912,0.9361,10.3346,1455,2936.28
16984,0.9936,3.1699,9.1554,1459,2936.43
16989,2.9616,3.2908,11.0097,1449,2936.43
16994,-1.7238,-0.5578,12.8473,1449,2936.43
16999,-5.3319,0.5124,10.6255,1449,2936.43
17004,0.5806,3.0047,8.8813,1459,2936.28
17009,2.9149,3.5614,10.8541,1455,2936.28
17014,-1.5718,-0.2035,12.8281,1439,2936.28
17019,-5.1787,0.1269,11.0516,1449,2936.28
17024,0.103,2.9604,8.7125,1485,2935.56
17029,2.806,3.7745,10.7021,1453,2935.56
17034,-1.4186,0.1269,12.5887,1448,2935.56
17039,-4.9225,-0.3687,11.3557,1452,2935.56
17044,-0.4705,2.7569,8.606,1469,2934.99
17049,2.6408,3.8666,10.58,1451,2934.99
17054,-1.1313,0.3663,12.4522,1447,2934.99
17059,-4.6783,-0.7913,11.6179,1459,2934.99
17064,-1.1779,2.6193,8.6191,1461,2934.85
17069,2.3846,3.8858,10.3956,1449,2934.85
17074,-0.7673,0.6847,12.3756,1451,2934.85
17079,-4.3922,-1.1779,11.91,1449,2934.85
17084,-1.9525,2.49,8.6491,1480,2934.42
17089,2.1608,3.8235,10.2496,1455,2934.42
17094,-0.2801,0.9984,12.2763,1445,2934.42
17099,-4.0737,-1.4485,12.1278,1449,2934.42
17104,-2.7078,2.3547,8.7233,1483,2934.13
17109,2.0889,3.8056,10.0772,1453,2934.13
17114,0.3938,1.3288,12.141,1447,2934.13
17119,-3.632,-1.6113,12.3924,1449,2934.13
17124,-3.3447,2.2087,8.9519,1467,2934.13
17129,2.0135,3.7517,9.9958,1452,2934.13
17134,1.1756,1.6783,11.9435,1445,2934.13
17139,-3.1184,-1.6281,12.56,1453,2934.13
17144,-3.9947,2.0159,9.1123,1461,2933.99
17149,1.9201,3.5901,9.7564,1447,2933.99
17154,1.9585,2.059,11.6669,1459,2933.99
17159,-2.7749,-1.5766,12.7802,1449,2933.99
17164,-4.5298,1.7825,9.4008,1463,2934.56
17169,1.725,3.4225,9.5421,1449,2934.56
17174,2.4445,2.4193,11.5101,1451,2934.56
17179,-2.3894,-1.4293,12.7419,1449,2934.56
17184,-4.9081,1.3827,9.7241,1451,2934.56
17189,1.47,3.316,9.4008,1461,2934.7
17194,2.7725,2.8012,11.4048,1449,2934.7
17199,-2.077,-1.1313,12.7276,1446,2934.7
17204,-5.1631,1.1049,10.1347,1451,2934.7
17209,1.1349,3.1927,9.2273,1461,2935.13
17214,2.903,3.1388,11.0744,1448,2935.13
17219,-1.7957,-0.7362,12.7515,1449,2935.13
17224,-5.2684,0.7111,10.5093,1448,2935.13
17229,0.7374,3.1544,9.086,1464,2935.42
17234,2.9509,3.4752,10.8649,1453,2935.42
17239,-1.5263,-0.3352,12.7443,1445,2935.42
17244,-5.2301,0.2969,10.8757,1451,2935.42
17249,0.2346,2.982,8.825,1468,2935.56
17254,2.8647,3.6536,10.5872,1455,2935.56
17259,-1.3575,0.0048,12.7707,1439,2935.56
17264,-5.0937,-0.1736,11.218,1449,2935.56
17269,-0.3531,2.788,8.7113,1465,2935.85
17274,2.727,3.8104,10.5153,1451,2935.85
17279,-1.1887,0.2705,12.615,1445,2935.85
17284,-4.8052,-0.6716,11.5867,1461,2935.85
17289,-0.9828,2.6408,8.5916,1455,2936.0
17294,2.4732,3.8511,10.4279,1452,2936.0
17299,-0.9146,0.559,12.4068,1452,2936.0
17304,-4.5478,-1.0283,11.8441,1453,2936.0
17309,-1.6496,2.5391,8.5377,1479,2935.85
17314,2.2625,3.9121,10.343,1455,2935.85
17319,-0.5531,0.8859,12.2428,1453,2935.85
17324,-4.2222,-1.2809,12.1278,1450,2935.85
17329,-2.3403,2.4074,8.6514,1483,2936.0
17334,2.1548,3.8978,10.2699,1459,2936.0
17339,0.079,1.1875,12.1494,1449,2936.0
17344,-3.8403,-1.4784,12.2954,1447,2936.0
17349,-3.0454,2.3284,8.7963,1467,2935.71
17354,2.0506,3.8044,10.1143,1452,2935.71
17359,0.814,1.5239,11.9698,1447,2935.71
17364,-3.3674,-1.6209,12.4151,1455,2935.71
17369,-3.6895,2.1141,9.0058,1465,2935.42
17374,1.9824,3.6811,9.8845,1451,2935.42
17379,1.6089,1.8375,11.8166,1455,2935.42
17384,-2.9173,-1.6352,12.5708,1455,2935.42
17389,-4.3167,1.816,9.2536,1482,2935.56
17394,1.8016,3.5518,9.6762,1449,2935.56
17399,2.2601,2.2146,11.582,1459,2935.56
17404,-2.4983,-1.5287,12.6641,1445,2935.56
17409,-4.7956,1.5886,9.566,1448,2935.56
17414,1.5526,3.3806,9.5313,1469,2935.71
17419,2.6612,3.8654,10.5632,1454,2935.71
17424,-2.2314,-1.2522,12.8042,1439,2935.71
17429,-5.1392,1.3048,9.93,1460,2935.71
17434,1.2881,3.2872,9.2703,1461,2936.14
17439,2.9173,3.0035,11.2144,1449,2936.14
17444,-1.9441,-0.9242,12.8437,1454,2936.14
17449,-5.2337,0.9278,10.3094,1453,2936.14
17454,0.9505,3.1759,9.0573,1465,2936.28
17459,2.9916,3.3411,11.0421,1449,2936.28
17464,-1.7107,-0.516,12.8138,1445,2936.28
17469,-5.2445,0.5124,10.6614,1449,2936.28
17474,0.5375,3.0179,8.8992,1461,2936.71
17479,2.9592,3.5398,10.8481,1461,2936.71
17484,-1.4557,-0.1867,12.7156,1447,2936.71
17489,-5.1332,0.0467,10.9942,1449,2936.71
17494,0.0611,2.8802,8.7412,1469,2936.71
17499,2.7569,3.7158,10.58,1449,2936.71
17504,-1.2749,0.1317,12.5911,1447,2936.71
17509,-4.9572,-0.4202,11.3078,1459,2936.71
17514,-0.6225,2.7569,8.6814,1462,2936.71
17519,2.5426,3.7673,10.4579,1451,2936.71
17524,-1.0702,0.413,12.5947,1445,2936.71
17529,-4.7812,-0.8188,11.661,1456,2936.71
17534,-1.3216,2.6504,8.6455,1483,2936.86
17539,2.3571,3.8391,10.3477,1451,11673.15
17544,-0.7673,0.7135,12.4606,1449,11673.15
17549,-4.4281,-1.1744,11.9291,1445,11673.15
17554,-1.9249,2.5211,8.5748,1481,3923.36
17559,2.235,3.9409,10.228,1455,3923.36
17564,-0.2957,1.0283,12.2451,1447,3923.36
17569,-4.0582,-1.391,12.2344,1451,3923.36
17574,-2.6085,2.3343,8.691,1484,2936.43
17579,2.1775,3.8834,10.1394,1455,2936.43
17584,0.4202,1.3228,12.0177,1448,2936.43
17589,-3.6583,-1.5407,12.4235,1452,2936.43
17594,-3.2693,2.2374,8.8657,1485,2936.43
17599,2.0387,3.7469,10.0461,1451,2936.43
17604,1.1001,1.6316,11.9471,1446,2936.43
17609,-3.2274,-1.6819,12.5181,1455,2936.43
17614,-3.9014,1.9752,9.0716,1484,2936.43
17619,1.889,3.6069,9.8845,1448,2936.43
17624,1.8148,1.9573,11.7232,1455,2936.43
17629,-2.8467,-1.6652,12.651,1445,2936.43
17634,-4.458,1.7968,9.3877,1464,2936.86
17639,1.7466,3.4752,9.6486,1455,2936.86
17644,2.375,2.4014,11.546,1453,2936.86
17649,-2.4349,-1.4916,12.6845,1449,2936.86
17654,-4.9321,1.482,9.7288,1451,2936.86
17659,1.555,3.383,9.5229,1459,2937.0
17664,2.7414,2.7306,11.3868,1451,2937.0
17669,-2.1129,-1.1396,12.8042,1446,2937.0
17674,-5.138,1.1708,10.0724,1454,2937.0
17679,1.2641,3.2836,9.2356,1463,2937.29
17684,2.9844,3.0706,11.0504,1449,2937.29
17689,-1.8352,-0.7901,12.8461,1451,2937.29
17694,-5.2648,0.8404,10.3896,1447,2937.29
17699,0.8811,3.1161,8.9723,1463,2937.58
17704,3.0059,3.3351,10.9307,1455,2937.58
17709,-1.6269,-0.4322,12.8305,1443,2937.58
17714,-5.2122,0.3531,10.7907,1451,2937.58
17719,0.4214,2.9616,8.7891,1466,2937.43
17724,2.9401,3.5961,10.8338,1453,2937.43
17729,-1.47,-0.1532,12.7419,1447,2937.43
17734,-5.1092,-0.0982,11.1139,1449,2937.43
17739,-0.1257,2.8503,8.6227,1469,2937.43
17744,2.6947,3.7541,10.6698,1449,2937.43
17749,-1.3551,0.17,12.5672,1445,2937.43
17754,-4.9752,-0.5291,11.376,1455,2937.43
17759,-0.729,2.7162,8.5234,1477,2937.58
17764,2.4924,3.8894,10.5429,1453,2937.58
17769,-1.0977,0.4992,12.4295,1449,2937.58
17774,-4.725,-0.8882,11.7543,1451,2937.58
17779,-1.3958,2.5798,8.6,1480,2937.58
17784,2.3619,3.8702,10.3358,1448,2937.58
17789,-0.6249,0.8033,12.3481,1451,2937.58
17794,-4.3742,-1.2067,11.9279,1451,2937.58
17799,-2.1009,2.4972,8.6119,1481,2937.72
17804,2.2362,3.9037,10.2711,1449,2937.72
17809,-0.1532,1.0702,12.3014,1448,2937.72
17814,-3.9875,-1.4736,12.2571,1455,2937.72
17819,-2.7725,2.3224,8.7496,1487,2937.72
17824,2.1632,3.8379,10.0712,1449,2937.72
17829,0.5614,1.3551,12.0584,1449,2937.72
17834,-3.5494,-1.6245,12.3924,1455,2937.72
17839,-3.4297,2.1919,8.91,1481,2937.58
17844,2.0207,3.699,9.9886,1451,2937.58
17849,1.2785,1.6735,11.8728,1449,2937.58
17854,-3.1807,-1.6747,12.6258,1455,2937.58
17859,-4.0342,1.9369,9.0345,1491,2938.3
17864,1.8639,3.5446,9.7875,1445,2938.3
17869,1.883,2.0399,11.7364,1459,2938.3
17874,-2.8335,-1.5945,12.7431,1446,2938.3
17879,-4.555,1.7466,9.3733,1449,2938.3
17884,1.6843,3.4596,9.5936,1463,2937.58
17889,2.4002,2.4193,11.5389,1447,2937.58
17894,-2.4289,-1.4353,12.7659,1447,2937.58
17899,-4.9297,1.4736,9.7241,1455,2937.58
17904,1.5455,3.3555,9.4679,1455,2937.58
17909,2.7629,2.788,11.3473,1446,2937.58
17914,-2.0889,-1.1325,12.7767,1449,2937.58
17919,-5.1344,1.1396,10.0987,1459,2937.58
17924,1.2641,3.3016,9.2548,1458,2937.43
17929,2.9664,3.1017,11.0456,1447,2937.43
17934,-1.7502,-0.7997,12.7874,1450,2937.43
17939,-5.2589,0.7578,10.4291,1447,2937.43
17944,0.82,3.0873,9.0501,1461,2937.29
17949,2.9784,3.3686,10.8613,1453,2937.29
17954,-1.5766,-0.395,12.8389,1444,2937.29
17959,-5.2972,0.3005,10.8074,1451,2937.29
17964,0.3555,2.9676,8.8645,1467,2937.29
17969,2.8359,3.6045,10.7392,1455,2937.29
17974,-1.4581,-0.0611,12.8126,1447,2937.29
17979,-5.1344,-0.1867,11.1558,1451,2937.29
17984,-0.1844,2.812,8.7041,1465,2936.86
17989,2.6635,3.7816,10.6446,1440,2936.86
17994,-1.3024,0.2119,12.5911,1446,2936.86
17999,-4.9141,-0.5291,11.4958,1460,2936.86
18004,-0.7937,2.6971,8.5796,1480,2936.71
18009,2.5019,3.8846,10.4782,1451,2936.71
18014,-1.0511,0.5088,12.3996,1451,2936.71
18019,-4.6112,-0.9301,11.825,1449,2936.71
18024,-1.482,2.569,8.606,1484,2936.86
18029,2.3655,3.9253,10.416,1460,2936.86
18034,-0.6285,0.814,12.3421,1449,2936.86
18039,-4.3,-1.257,12.0189,1453,2936.86
18044,-2.1691,2.4134,8.6239,1483,2936.86
18049,2.2709,3.8978,10.3046,1459,2936.86
18054,-0.0084,1.1157,12.1925,1445,2936.86
18059,-3.9121,-1.5323,12.2547,1448,2936.86
18071,-2.8299,2.3032,8.7245,1477,2936.71
18075,0.674,1.3946,12.0548,1447,2936.71
18079,-3.5039,-1.6795,12.3553,1456,2936.71
18084,-3.5506,2.1272,8.9639,1467,2936.57
18089,1.9992,3.7062,9.979,1454,2936.57
18094,1.4018,1.7741,11.8381,1451,2936.57
18099,-3.0933,-1.6664,12.5959,1455,2936.57
18104,-4.1515,1.9166,9.1913,1479,2936.71
18109,1.8567,3.5482,9.7863,1445,2936.71
18114,2.0099,2.0973,11.649,1459,2936.71
18119,-2.7366,-1.5694,12.7264,1448,2936.71
18124,-4.6424,1.6819,9.5325,1453,2936.71
18129,1.6891,3.4285,9.5589,1467,2936.43
18134,2.5462,2.5295,11.479,1449,2936.43
18139,-2.3595,-1.2893,12.8425,1451,2936.43
18144,-5.0003,1.4186,9.8138,1459,2936.43
18149,1.4581,3.3411,9.3242,1459,2936.57
18154,2.8611,2.8922,11.3126,1452,2936.57
18159,-2.1081,-1.0642,12.7958,1451,2936.57
18164,-5.1727,1.0475,10.1754,1459,2936.57
18169,1.1516,3.1891,9.1542,1465,2936.43
18174,2.976,3.1939,11.145,1449,2936.43
18179,-1.7514,-0.6919,12.7479,1453,2936.43
18184,-5.2002,0.5926,10.5261,1450,2936.43
18189,0.7003,3.043,9.0058,1463,2936.57
18194,2.9161,3.4441,10.805,1455,2936.57
18199,-1.5203,-0.3364,12.6725,1446,2936.57
18204,-5.2481,0.1748,10.8912,1451,2936.57
18209,0.1939,2.9568,8.8562,1469,2937.15
18214,2.7653,3.6559,10.6554,1449,2937.15
18219,-1.397,0.0347,12.6749,1447,2937.15
18224,-5.1272,-0.2813,11.2456,1453,2937.15
18229,-0.3962,2.7749,8.7125,1468,2937.29
18234,2.6085,3.8283,10.4543,1452,2937.29
18239,-1.2067,0.3627,12.6941,1447,2937.29
18244,-4.8806,-0.6716,11.5796,1456,2937.29
18249,-1.0139,2.6504,8.5665,1471,2937.29
18254,2.4948,3.9337,10.422,1451,2937.29
18259,-0.9541,0.6033,12.487,1454,2937.29
18264,-4.5382,-0.9996,11.8429,1448,2937.29
18269,-1.658,2.5235,8.5329,1477,2937.29
18274,2.3523,3.9349,10.3741,1455,2937.29
18279,-0.4968,0.9254,12.3912,1449,2937.29
18284,-4.1635,-1.2785,12.1075,1451,2937.29
18289,-2.3355,2.3786,8.5665,1491,2936.57
18294,2.2039,3.8535,10.2412,1455,2936.57
18299,0.0227,1.1947,12.0943,1449,2936.57
18304,-3.7685,-1.5167,12.3301,1447,2936.57
18309,-3.0203,2.2266,8.7939,1465,2935.71
18314,2.0614,3.79,10.137,1451,2935.71
18319,0.7757,1.5083,11.9183,1449,2935.71
18324,-3.4117,-1.6759,12.3696,1459,2935.71
18329,-3.6907,2.0746,8.9567,1485,2936.86
18334,1.9381,3.6368,9.9491,1450,2936.86
18339,1.5143,1.8723,11.7759,1459,2936.86
18344,-3.0263,-1.67,12.5743,1452,2936.86
18349,-4.2844,1.8352,9.3051,1485,2936.0
18354,1.7897,3.5506,9.7911,1451,2936.0
18359,2.1811,2.217,11.5927,1459,2936.0
18364,-2.5953,-1.4808,12.6569,1449,2936.0
18369,-4.7274,1.6029,9.6007,1449,2936.0
18374,1.6269,3.3938,9.566,1464,2935.56
18379,2.6312,2.5989,11.3725,1455,2935.56
18384,-2.2398,-1.2103,12.8233,1447,2935.56
18389,-5.0745,1.3024,9.894,1459,2935.56
18394,1.3455,3.2908,9.2787,1461,2934.99
18399,2.9245,2.982,11.2013,1447,2934.99
18404,-1.9429,-0.8847,12.8593,1452,2934.99
18409,-5.2086,0.9194,10.2651,1449,2934.99
18414,0.9984,3.1364,9.1016,1464,2934.99
18419,2.9676,3.3148,11.072,1455,2934.99
18424,-1.6616,-0.5507,12.7779,1449,2934.99
18429,-5.2158,0.4214,10.6985,1452,2934.99
18434,0.5614,2.9832,8.8633,1462,2934.42
18439,2.9054,3.5841,10.8529,1459,2934.42
18444,-1.5371,-0.1975,12.7132,1447,2934.42
18449,-5.1499,-0.0156,11.0564,1453,2934.42
18454,-0.0024,2.8048,8.7029,1468,2933.7
18459,2.6863,3.7254,10.72,1453,2933.7
18464,-1.3276,0.1628,12.6031,1447,2933.7
18469,-4.9835,-0.4322,11.3294,1460,2933.7
18474,-0.6788,2.733,8.6682,1481,2933.27
18479,2.5091,3.8678,10.4555,1453,2933.27
18484,-1.1037,0.5555,12.5277,1450,2933.27
18489,-4.7058,-0.8691,11.7268,1451,2933.27
18494,-1.4198,2.5893,8.6407,1484,2932.84
18499,2.3607,3.9097,10.3406,1453,2932.84
18504,-0.7482,0.7961,12.4235,1451,2932.84
18509,-4.2521,-1.2067,11.9531,1453,2932.84
18514,-2.1296,2.3906,8.6227,1482,2932.69
18519,2.229,3.8918,10.2448,1461,2932.69
18524,-0.1556,1.1564,12.2487,1449,2932.69
18529,-3.9025,-1.4521,12.2499,1451,2932.69
18534,-2.7976,2.2565,8.679,1471,2932.84
18539,2.0877,3.7912,10.082,1455,2932.84
18544,0.5638,1.4305,12.0333,1450,2932.84
18549,-3.474,-1.6376,12.4439,1461,2932.84
18554,-3.5015,2.071,8.8921,1469,2932.69
18559,1.9441,3.6308,9.9311,1451,2932.69
18564,1.3192,1.8136,11.9052,1449,2932.69
18569,-3.0574,-1.6484,12.5588,1451,2932.69
18574,-4.1096,1.8459,9.1913,1477,2932.55
18579,1.8256,3.4824,9.7288,1448,2932.55
18584,2.0051,2.241,11.7507,1455,2932.55
18589,-2.6528,-1.5706,12.6689,1452,2932.55
18594,-4.6148,1.6496,9.5397,1446,2932.55
18599,1.652,3.4046,9.6211,1467,2932.41
18604,2.4744,2.6252,11.6071,1454,2932.41
18609,-2.2494,-1.2713,12.6821,1447,2932.41
18614,-4.9105,1.2977,9.8916,1459,2932.41
18619,1.397,3.3064,9.3506,1463,2932.55
18624,2.8527,2.9676,11.2336,1448,2932.55
18629,-1.8627,-0.9266,12.7731,1451,2932.55
18634,-5.187,0.8966,10.2568,1449,2932.55
18639,1.0056,3.152,9.1135,1463,2932.84
18644,2.9461,3.2693,10.9595,1451,2932.84
18649,-1.6221,-0.4956,12.7599,1445,2932.84
18654,-5.2577,0.431,10.6183,1451,2932.84
18659,0.5171,2.964,8.8454,1463,2932.98
18664,2.9137,3.5087,10.835,1453,2932.98
18669,-1.5191,-0.182,12.8341,1451,2932.98
18674,-5.1296,-0.0599,11.0768,1449,2932.98
18679,-0.0479,2.7988,8.7269,1469,2933.12
18684,2.7414,3.7517,10.6207,1453,2933.12
18689,-1.3743,0.1927,12.6569,1439,2933.12
18694,-4.9608,-0.4597,11.3689,1459,2933.12
18699,-0.6393,2.7066,8.6012,1469,2932.41
18704,2.5522,3.9061,10.568,1452,2932.41
18709,-1.2127,0.5279,12.542,1459,2932.41
18714,-4.6148,-0.8092,11.6646,1453,2932.41
18719,-1.3372,2.575,8.515,1484,2933.27
18724,2.3798,3.9014,10.4734,1459,2933.27
18729,-0.8045,0.8487,12.4295,1453,2933.27
18734,-4.2796,-1.2091,11.9483,1453,2933.27
18739,-2.0339,2.4481,8.5892,1480,2932.98
18744,2.2386,3.8427,10.258,1459,2932.98
18749,-0.1856,1.1253,12.2978,1447,2932.98
18754,-3.8738,-1.4976,12.129,1451,2932.98
18759,-2.8096,2.241,8.7005,1484,2932.26
18764,2.1045,3.7733,10.0688,1454,2932.26
18769,0.5195,1.4653,12.1733,1449,2932.26
18774,-3.4429,-1.6915,12.3924,1460,2932.26
18779,-3.5422,2.0853,8.8992,1483,2932.98
18784,1.962,3.6093,9.8928,1451,2932.98
18789,1.3228,1.7729,11.9854,1459,2932.98
18794,-3.0239,-1.6843,12.5289,1451,2932.98
18799,-4.1934,1.883,9.1626,1486,2932.55
18804,1.8004,3.4884,9.7552,1448,2932.55
18809,1.9992,2.2087,11.7603,1455,2932.55
18814,-2.6588,-1.5143,12.7958,1451,2932.55
18819,-4.5921,1.6293,9.481,1443,2932.55
18824,1.6197,3.4333,9.4535,1467,2932.41
18829,2.5391,2.654,11.5772,1453,2932.41
18834,-2.2589,-1.2546,12.7467,1448,2932.41
18839,-4.9321,1.3001,9.8162,1463,2932.41
18844,1.4305,3.2549,9.2775,1462,2932.84
18849,2.8898,2.9796,11.3832,1445,2932.84
18854,-1.9716,-0.9242,12.7707,1446,2932.84
18859,-5.1511,0.9325,10.2185,1447,2932.84
18864,1.0235,3.14,9.0992,1465,2932.69
18869,2.9281,3.2693,11.0911,1450,2932.69
18874,-1.6376,-0.571,12.7036,1446,2932.69
18879,-5.1727,0.4178,10.5931,1451,2932.69
18884,0.4729,2.9604,8.9483,1465,2932.55
18889,2.8108,3.5147,10.8781,1449,2932.55
18894,-1.4365,-0.1664,12.6689,1450,2932.55
18899,-5.1787,-0.006,11.0073,1450,2932.55
18904,-0.0359,2.8192,8.6993,1466,2932.55
18909,2.6803,3.723,10.5812,1447,2932.55
18914,-1.3719,0.2406,12.712,1445,2932.55
18919,-4.9704,-0.4405,11.4191,1461,2932.55
18924,-0.6931,2.7378,8.6167,1477,2932.69
18929,2.4828,3.8654,10.5046,1452,2932.69
18934,-1.1803,0.5698,12.6007,1452,2932.69
18939,-4.6244,-0.8679,11.6705,1443,2932.69
18944,-1.3443,2.6025,8.5473,1480,2932.55
18949,2.3966,3.9301,10.3693,1451,2932.55
18954,-0.7183,0.8583,12.4367,1450,2932.55
18959,-4.2725,-1.2163,12.0309,1448,2932.55
18964,-2.0614,2.405,8.5856,1487,2932.69
18969,2.2362,3.8678,10.2639,1451,2932.69
18974,-0.1688,1.1265,12.2535,1448,2932.69
18979,-3.9002,-1.4533,12.2212,1454,2932.69
18984,-2.7761,2.2278,8.6299,1460,2932.41
18989,2.1021,3.7397,10.1311,1454,2932.41
18994,0.4788,1.4712,12.0704,1448,2932.41
18999,-3.4512,-1.6951,12.4211,1459,2932.41
19004,-3.4764,2.071,8.9064,1464,2932.69
19009,1.9668,3.6428,10.0102,1445,2932.69
19014,1.2893,1.8172,11.8932,1453,2932.69
19019,-3.0299,-1.6616,12.4906,1449,2932.69
19024,-4.1324,1.8998,9.1806,1465,2932.69
19029,1.8352,3.535,9.7695,1448,2932.69
19034,1.9609,2.2242,11.8106,1459,2932.69
19039,-2.6121,-1.5395,12.6354,1451,2932.69
19044,-4.6507,1.6149,9.5337,1449,2932.69
19049,1.6472,3.4165,9.5684,1465,2932.55
19054,2.5833,2.6372,11.5101,1455,2932.55
19059,-2.2027,-1.2366,12.7431,1447,2932.55
19064,-5.0015,1.2977,9.9036,1459,2932.55
19069,1.3946,3.2465,9.2548,1459,2932.98
19074,2.8994,2.988,11.321,1449,2932.98
19079,-1.883,-0.9254,12.8269,1452,2932.98
19084,-5.1703,0.8643,10.2065,1449,2932.98
19089,1.0427,3.0969,9.001,1463,2932.98
19094,2.9928,3.3327,11.1091,1453,2932.98
19099,-1.6855,-0.5614,12.8102,1445,2932.98
19104,-5.1751,0.431,10.6626,1449,2932.98
19109,0.5626,2.9532,8.8155,1464,2933.41
19114,2.8623,3.5733,10.9619,1453,2933.41
19119,-1.5766,-0.1951,12.7383,1451,2933.41
19124,-5.1152,-0.0287,10.9391,1453,2933.41
19129,0.0263,2.8132,8.6933,1466,2933.12
19134,2.721,3.808,10.7895,1452,2933.12
19139,-1.4581,0.1975,12.6569,1445,2933.12
19144,-4.9464,-0.4609,11.3952,1455,2933.12
19149,-0.6225,2.7306,8.6479,1491,2933.12
19154,2.5295,3.8714,10.5249,1453,2933.12
19159,-1.1576,0.5531,12.5205,1451,2933.12
19164,-4.6603,-0.8511,11.7041,1449,2933.12
19169,-1.3467,2.5809,8.5868,1479,2932.98
19174,2.3954,3.9085,10.3406,1449,2932.98
19179,-0.7302,0.8356,12.5109,1451,2932.98
19184,-4.306,-1.1827,11.9124,1455,2932.98
19189,-2.0758,2.4301,8.5485,1485,2933.12
19194,2.2781,3.8379,10.2077,1460,2933.12
19199,-0.1676,1.1444,12.3625,1450,2933.12
19204,-3.8654,-1.5239,12.1709,1451,2933.12
19209,-2.7629,2.3152,8.7173,1459,2933.27
19214,2.0842,3.723,10.0317,1455,2933.27
19219,0.5088,1.4246,12.1099,1447,2933.27
19224,-3.5207,-1.6364,12.4355,1455,2933.27
19229,-3.4836,2.0865,8.8717,1463,2933.7
19234,1.9405,3.614,9.8976,1451,2933.7
19239,1.2151,1.8076,12.0033,1456,2933.7
19244,-3.1244,-1.6448,12.621,1445,2933.7
19249,-4.1276,1.8591,9.1734,1467,2933.7
19254,1.8579,3.5135,9.7073,1451,2933.7
19259,1.9345,2.2386,11.789,1455,2933.7
19264,-2.7138,-1.5311,12.6785,1451,2933.7
19269,-4.6124,1.6652,9.4894,1449,2933.7
19274,1.6688,3.4524,9.5397,1469,2933.84
19279,2.5055,2.6324,11.582,1459,2933.84
19284,-2.2697,-1.2821,12.6917,1444,2933.84
19289,-4.938,1.3455,9.8234,1458,2933.84
19294,1.4293,3.3172,9.317,1463,2933.84
19299,2.8192,2.964,11.3006,1451,2933.84
19304,-1.8974,-0.9637,12.7336,1451,2933.84
19309,-5.0925,0.9577,10.2089,1451,2933.84
19314,1.0882,3.134,9.1051,1467,2934.27
19319,2.976,3.2394,11.1043,1453,2934.27
19324,-1.6927,-0.5866,12.7419,1447,2934.27
19329,-5.2625,0.4788,10.5034,1451,2934.27
19334,0.6189,2.9856,8.8143,1467,2934.13
19339,2.8802,3.5578,10.9535,1449,2934.13
19344,-1.6125,-0.17,12.8569,1451,2934.13
19349,-5.2002,0.0204,10.9666,1450,2934.13
19354,0.0862,2.7988,8.6479,1468,2934.42
19359,2.7749,3.7541,10.7571,1451,2934.42
19364,-1.4593,0.1652,12.7012,1445,2934.42
19369,-4.968,-0.3723,11.3342,1449,2934.42
19374,-0.5004,2.7557,8.5653,1481,2934.27
19379,2.6492,3.9373,10.647,1453,2934.27
19384,-1.2498,0.5028,12.6522,1451,2934.27
19389,-4.6591,-0.7614,11.6095,1447,2934.27
19394,-1.1552,2.575,8.442,1484,2934.13
19399,2.4924,3.9552,10.4794,1449,2934.13
19404,-0.9146,0.7494,12.4702,1453,2934.13
19409,-4.2868,-1.1349,11.9399,1451,2934.13
19414,-1.8926,2.3846,8.4958,1490,2933.84
19419,2.2996,3.8942,10.3346,1461,2933.84
19424,-0.3663,1.0762,12.3804,1451,2933.84
19429,-3.9768,-1.4964,12.0991,1445,2933.84
19434,-2.5881,2.2218,8.5868,1465,2933.84
19439,2.1093,3.7206,10.1622,1455,2933.84
19444,0.2837,1.3779,12.2308,1447,2933.84
19449,-3.5781,-1.6376,12.3337,1458,2933.84
19454,-3.3339,2.1249,8.734,1470,2933.7
19459,1.9932,3.6536,10.0521,1448,2933.7
19464,1.0379,1.7597,12.1123,1461,2933.7
19469,-3.1591,-1.6544,12.5672,1447,2933.7
19474,-3.9804,1.962,9.1063,1490,2934.27
19479,1.8783,3.5291,9.7312,1449,2934.27
19484,1.8004,2.1296,11.8764,1455,2934.27
19489,-2.739,-1.5287,12.7144,1451,2934.27
19494,-4.4867,1.7035,9.335,1452,2934.27
19499,1.7609,3.4441,9.5074,1465,2934.27
19504,2.4098,2.5438,11.6825,1455,2934.27
19509,-2.3786,-1.2917,12.7731,1447,2934.27
19514,-4.8267,1.3886,9.6259,1460,2934.27
19519,1.5239,3.3028,9.2548,1461,2934.42
19524,2.8156,2.8946,11.4778,1449,2934.42
19529,-2.0746,-1.0127,12.8186,1450,2934.42
19534,-5.1164,1.008,10.0449,1448,2934.42
19539,1.1851,3.1496,9.1123,1465,2934.42
19544,2.9102,3.1915,11.1893,1453,2934.42
19549,-1.834,-0.6776,12.8054,1447,2934.42
19554,-5.2002,0.6093,10.4339,1453,2934.42
19559,0.7207,2.9928,8.9471,1461,2933.99
19564,2.8766,3.4836,10.9499,1454,2933.99
19569,-1.6532,-0.3089,12.8497,1449,2933.99
19574,-5.2062,0.1999,10.9032,1453,2933.99
19579,0.2179,2.8503,8.7041,1469,2934.13
19584,2.7701,3.6799,10.7332,1451,2934.13
19589,-1.5083,0.0898,12.7539,1445,2934.13
19594,-5.0542,-0.2825,11.1881,1455,2934.13
19599,-0.3496,2.7162,8.5437,1487,2934.42
19604,2.6348,3.8726,10.6303,1453,2934.42
19609,-1.3467,0.4238,12.7455,1451,2934.42
19614,-4.7465,-0.7027,11.564,1453,2934.42
19619,-1.0295,2.6169,8.4264,1480,2934.42
19624,2.5283,3.9444,10.3908,1453,2934.42
19629,-1.0391,0.7159,12.5875,1454,2934.42
19634,-4.4436,-1.0367,11.8549,1453,2934.42
19639,-1.7214,2.5007,8.4623,1481,2934.27
19644,2.3367,3.887,10.337,1453,2934.27
19649,-0.5183,0.9529,12.4223,1448,2934.27
19654,-4.0378,-1.3958,12.0656,1445,2934.27
19659,-2.4146,2.3056,8.491,1483,2933.99
19664,2.1787,3.8152,10.2173,1455,2933.99
19669,0.0539,1.2773,12.2296,1450,2933.99
19674,-3.6895,-1.5921,12.2823,1456,2933.99
19679,-3.1591,2.1859,8.7245,1472,2933.55
19684,2.0243,3.7074,10.0952,1449,2933.55
19689,0.8511,1.6544,12.0931,1455,2933.55
19694,-3.3004,-1.6759,12.408,1454,2933.55
19699,-3.8092,1.9776,8.9244,1467,2933.55
19704,1.9369,3.5913,9.8785,1449,2933.55
19709,1.6269,2.0291,11.9064,1459,2933.55
19714,-2.8479,-1.6233,12.6079,1452,2933.55
19719,-4.3802,1.8208,9.2955,1449,2933.55
19724,1.8028,3.4931,9.6115,1464,2933.41
19729,2.2781,2.4062,11.6418,1453,2933.41
19734,-2.4409,-1.4054,12.7503,1448,2933.41
19739,-4.8052,1.4724,9.6031,1459,2933.41
19744,1.5634,3.2944,9.3314,1463,2933.99
19749,2.7509,2.8228,11.491,1448,2933.99
19754,-2.1368,-1.0977,12.8497,1449,2933.99
19759,-5.0386,1.1265,9.9599,1451,2933.99
19764,1.2737,3.1448,9.0764,1465,2933.55
19769,2.9401,3.1735,11.242,1451,2933.55
19774,-1.8866,-0.7733,12.8138,1449,2933.55
19779,-5.1942,0.6548,10.3489,1451,2933.55
19784,0.808,3.0095,8.9028,1459,2933.41
19789,2.8934,3.4644,11.1199,1455,2933.41
19794,-1.7107,-0.3508,12.815,1453,2933.41
19799,-5.1799,0.2717,10.7464,1449,2933.41
19804,0.3136,2.8635,8.6682,1465,2933.41
19809,2.7964,3.6859,10.8637,1449,2933.41
19814,-1.5311,0.0251,12.7611,1448,2933.41
19819,-5.0985,-0.1616,11.1725,1460,2933.41
19824,-0.2921,2.7725,8.6347,1477,2933.7
19829,2.6372,3.8427,10.647,1455,2933.7
19834,-1.3264,0.3879,12.6761,1451,2933.7
19839,-4.7681,-0.6189,11.4838,1461,2933.7
19844,-0.8703,2.6408,8.5317,1492,2933.99
19849,2.5055,3.9061,10.4507,1451,2933.99
19854,-1.0295,0.6548,12.6139,1451,2933.99
19859,-4.5059,-1.0678,11.8453,1451,2933.99
19864,-1.579,2.466,8.4898,1483,2934.42
19869,2.3583,3.8798,10.3298,1461,2934.42
19874,-0.5938,0.9445,12.39,1451,2934.42
19879,-4.1527,-1.3467,12.0608,1449,2934.42
19884,-2.3331,2.3774,8.4886,1467,2934.99
19889,2.1428,3.8235,10.1754,1455,2934.99
19894,-0.0036,1.2186,12.2954,1449,2934.99
19899,-3.8008,-1.5299,12.2763,1457,2934.99
19904,-3.0358,2.2194,8.6598,1485,2934.99
19909,2.065,3.7074,9.9491,1453,2934.99
19914,0.7147,1.567,12.1194,1453,2934.99
19919,-3.3854,-1.6712,12.4594,1455,2934.99
19924,-3.6871,2.0243,8.8597,1485,2935.13
19929,1.9525,3.6416,9.9647,1447,2935.13
19934,1.4389,1.9237,11.977,1464,2935.13
19939,-2.9437,-1.6281,12.5911,1448,2935.13
19944,-4.2066,1.8495,9.1351,1448,2935.13
19949,1.8459,3.5207,9.6893,1468,2934.99
19954,2.1201,2.3092,11.734,1453,2934.99
19959,-2.5498,-1.4593,12.6569,1449,2934.99
19964,-4.695,1.567,9.487,1461,2934.99
19969,1.646,3.3962,9.487,1463,2935.28
19974,2.6013,2.7174,11.5221,1453,2935.28
19979,-2.1763,-1.2306,12.7647,1451,2935.28
19984,-5.0398,1.2522,9.8964,1453,2935.28
19989,1.3491,3.2058,9.2057,1463,2935.28
19994,2.9042,3.055,11.2635,1451,2935.28
19999,-1.9273,-0.899,12.9359,1449,2935.28
20004,-5.2241,0.8416,10.2532,1459,2935.28
20009,0.9708,3.0622,8.9172,1461,2935.42
20014,2.9712,3.3686,11.1618,1459,2935.42
20019,-1.7358,-0.504,12.8593,1449,2935.42
20024,-5.2313,0.4082,10.5704,1451,2935.42
20029,0.5124,2.903,8.685,1471,2935.56
20034,2.909,3.6129,11.0193,1451,2935.56
20039,-1.5766,-0.1341,12.8485,1447,2935.56
20044,-5.0877,-0.0168,11.0038,1450,2935.56
20049,-0.0479,2.8036,8.5605,1463,2935.42
20054,2.7916,3.7649,10.7188,1455,2935.42
20059,-1.4449,0.1903,12.7563,1448,2935.42
20064,-4.9333,-0.4286,11.2994,1454,2935.42
20069,-0.6393,2.7354,8.5246,1482,2935.56
20074,2.5965,3.8978,10.5728,1455,2935.56
20079,-1.1756,0.5183,12.6749,1451,2935.56
20084,-4.6076,-0.8392,11.6059,1449,2935.56
20089,-1.2773,2.5714,8.4348,1484,2935.56
20094,2.405,3.8858,10.3681,1455,2935.56
20099,-0.7901,0.844,12.4798,1448,2935.56
20104,-4.3132,-1.1971,11.9531,1453,2935.56
20109,-1.9668,2.4038,8.497,1487,2935.28
20114,2.2793,3.8583,10.2484,1451,2935.28
20119,-0.2598,1.1049,12.3313,1450,2935.28
20124,-3.96,-1.5203,12.1613,1449,2935.28
20129,-2.721,2.2721,8.5916,1479,2935.56
20134,2.1308,3.7433,10.0796,1453,2935.56
20139,0.4226,1.4317,12.2152,1451,2935.56
20144,-3.5626,-1.6328,12.4247,1459,2935.56
20149,-3.4321,2.1763,8.7867,1470,2935.13
20154,1.992,3.65,9.8653,1449,2935.13
20159,1.1217,1.7705,12.0548,1453,2935.13
20164,-3.1615,-1.6556,12.5923,1445,2935.13
20169,-3.9792,1.9501,9.0405,1451,2935.13
20174,1.9154,3.5494,9.7252,1464,2936.0
20179,1.8423,2.1679,11.9495,1451,2936.0
20184,-2.733,-1.5622,12.7012,1451,2936.0
20189,-4.4891,1.7274,9.3434,1453,2936.0
20194,1.7813,3.4536,9.5397,1462,2935.56
20199,2.4086,2.5043,11.6322,1452,2935.56
20204,-2.3547,-1.4102,12.6881,1447,2935.56
20209,-4.8842,1.3671,9.669,1460,2935.56
20214,1.4868,3.3363,9.3338,1463,2935.71
20219,2.7294,2.8347,11.4179,1447,2935.71
20224,-2.0099,-1.075,12.7886,1449,2935.71
20229,-5.1164,1.0379,9.997,1450,2935.71
20234,1.1648,3.146,8.5796,1464,2935.42
20239,2.9185,3.1999,11.163,1451,2935.42
20244,-1.8435,-0.7027,12.8401,1445,2935.42
20249,-5.2361,0.6524,10.4627,1449,2935.42
20254,0.7458,3.0239,8.8777,1461,2935.28
20259,2.9353,3.48,10.9654,1455,2935.28
20264,-1.664,-0.3089,12.8688,1449,2935.28
20269,-5.2062,0.2634,10.8481,1453,2935.28
20274,0.2454,2.8862,8.6227,1467,2935.13
20279,2.873,3.7781,10.8661,1451,2935.13
20284,-1.5455,0.1041,12.8221,1445,2935.13
20289,-5.0314,-0.2083,11.1797,1461,2935.13
20294,-0.3112,2.7701,8.4779,1485,2935.13
20299,2.7054,3.887,10.6805,1453,2935.13
20304,-1.3767,0.3855,12.6174,1451,2935.13
20309,-4.7453,-0.6369,11.4287,1450,2935.13
20314,-0.9409,2.6384,8.4288,1484,2934.13
20319,2.5283,3.9253,10.5512,1451,2934.13
20324,-1.0475,0.7254,12.6007,1449,2934.13
20329,-4.4532,-1.0523,11.7017,1452,2934.13
20334,-1.67,2.4972,8.4563,1486,2934.13
20339,2.2996,3.9014,10.3729,1459,2934.13
20344,-0.5662,0.9816,12.4175,1451,2934.13
20349,-4.0582,-1.4605,12.0273,1449,2934.13
20354,-2.4337,2.2877,8.5784,1461,2933.99
20359,2.1775,3.8259,10.2412,1454,2933.99
20364,0.1317,1.2749,12.2655,1449,2933.99
20369,-3.7026,-1.5957,12.2751,1460,2933.99
20374,-3.1532,2.2146,8.6634,1463,2933.55
20379,2.0686,3.7781,10.0233,1451,2933.55
20384,0.8248,1.6496,12.147,1460,2933.55
20389,-3.3028,-1.6221,12.5516,1449,2933.55
20394,-3.7757,2.0518,8.9747,1465,2933.7
20399,1.9249,3.6476,9.8222,1449,2933.7
20404,1.5371,2.0411,11.8968,1455,2933.7
20409,-2.8503,-1.5814,12.7108,1453,2933.7
20414,-4.2808,1.8316,9.1698,1451,2933.7
20419,1.8136,3.4907,9.4715,1463,2933.7
20424,2.2745,2.4217,11.795,1455,2933.7
20429,-2.5187,-1.4234,12.7479,1447,2933.7
20434,-4.7513,1.5,9.5756,1459,2933.7
20439,1.6077,3.3255,9.3673,1461,2933.55
20444,2.7174,2.7497,11.5305,1449,2933.55
20449,-2.0997,-1.1791,12.7755,1449,2933.55
20454,-5.053,1.1013,9.9407,1448,2933.55
20459,1.2426,3.1639,9.1482,1465,2933.7
20464,2.8491,3.1089,11.2444,1452,2933.7
20469,-1.8172,-0.8224,12.8329,1440,2933.7
20474,-5.2134,0.7219,10.3477,1452,2933.7
20479,0.8188,3.0598,8.9507,1468,2933.12
20484,2.9329,3.3627,10.9595,1453,2933.12
20489,-1.658,-0.3903,12.8509,1451,2933.12
20494,-5.2086,0.34,10.7631,1451,2933.12
20499,0.3531,2.9556,8.7508,1467,2932.84
20504,2.8204,3.6703,10.7967,1453,2932.84
20509,-1.5682,0.0156,12.8652,1449,2932.84
20514,-5.0182,-0.1532,11.1534,1459,2932.84
20519,-0.2298,2.7869,8.5389,1483,2932.69
20524,2.6911,3.8379,10.6793,1455,2932.69
20529,-1.3551,0.3436,12.7192,1451,2932.69
20534,-4.7549,-0.6153,11.5125,1451,2932.69
20539,-0.8368,2.6635,8.5006,1483,2932.84
20544,2.5187,3.9037,10.5536,1454,2932.84
20549,-1.0678,0.6369,12.536,1451,2932.84
20554,-4.476,-1.0463,11.7867,1453,2932.84
20559,-1.5945,2.4445,8.4048,1485,2933.27
20564,2.3248,3.8379,10.337,1456,2933.27
20569,-0.6835,0.8835,12.3756,1449,2933.27
20574,-4.13,-1.4102,12.0512,1449,2933.27
20579,-2.3236,2.3667,8.5329,1462,2933.12
20584,2.1691,3.8571,10.2819,1459,2933.12
20589,-0.0096,1.2653,12.3098,1447,2933.12
20594,-3.7649,-1.6257,12.2559,1455,2933.12
20599,-3.0969,2.1632,8.7041,1469,2933.27
20604,2.0782,3.7637,10.0628,1448,2933.27
20609,0.7207,1.5838,12.1314,1451,2933.27
20614,-3.3279,-1.6592,12.4283,1447,2933.27
20619,-3.7086,2.0207,8.9064,1465,2933.55
20624,2.0004,3.6799,9.821,1449,2933.55
20629,1.5562,1.9644,11.9471,1455,2933.55
20634,-2.8659,-1.5874,12.6127,1451,2933.55
20639,-4.2844,1.8387,9.2332,1453,2933.55
20644,1.8328,3.5279,9.6319,1463,2933.27
20649,2.2015,2.3643,11.7029,1451,2933.27
20654,-2.5055,-1.4329,12.7443,1448,2933.27
20659,-4.7118,1.5203,9.5289,1459,2933.27
20664,1.6065,3.3016,9.3314,1461,2932.98
20669,2.636,2.6995,11.4634,1449,2932.98
20674,-2.1763,-1.2282,12.8628,1449,2932.98
20679,-4.9955,1.1061,9.9407,1448,2932.98
20684,1.2833,3.134,9.1087,1463,2932.84
20689,2.8994,3.0921,11.3784,1451,2932.84
20694,-1.9381,-0.8404,12.809,1439,2932.84
20699,-5.187,0.7745,10.2843,1453,2932.84
20704,0.8942,3.0275,8.8909,1467,2932.98
20709,2.8922,3.4117,11.1426,1449,2932.98
20714,-1.7526,-0.4166,12.8509,1449,2932.98
20719,-5.2265,0.3484,10.7847,1452,2932.98
20724,0.4345,2.9485,8.7759,1467,2932.98
20729,2.8671,3.65,10.8876,1453,2932.98
20734,-1.5455,-0.0371,12.7635,1443,2932.98
20739,-5.0398,-0.1185,11.0564,1459,2932.98
20744,-0.176,2.8467,8.6143,1483,2933.55
20749,2.715,3.7984,10.6231,1450,2933.55
20754,-1.3276,0.3555,12.7802,1446,2933.55
20759,-4.8303,-0.6009,11.4634,1449,2933.55
20764,-0.7925,2.6803,8.4958,1483,2933.84
20769,2.5606,3.8583,10.4495,1460,2933.84
20774,-1.057,0.6129,12.6522,1447,2933.84
20779,-4.5143,-1.0259,11.7424,1452,2933.84
20784,-1.5586,2.466,8.3845,1481,2933.99
20789,2.2829,3.8918,10.4052,1454,2933.99
20794,-0.6596,0.8679,12.4391,1450,2933.99
20799,-4.1827,-1.3755,12.1302,1452,2933.99
20804,-2.2697,2.3655,8.5078,1455,2933.7
20809,2.162,3.8068,10.1789,1455,2933.7
20814,-0.103,1.2019,12.299,1449,2933.7
20819,-3.8008,-1.5455,12.3541,1461,2933.7
20824,-2.976,2.2757,8.6646,1461,2934.42
20829,2.065,3.808,10.1203,1447,2934.42
20834,0.5854,1.6161,12.2056,1458,2934.42
20839,-3.4034,-1.6029,12.4546,1447,2934.42
20844,-3.6212,2.0638,8.8502,1465,2934.27
20849,1.9632,3.6931,9.8426,1448,2934.27
20854,1.3791,1.9261,11.9566,1453,2934.27
20859,-2.9377,-1.6305,12.5827,1451,2934.27
20864,-4.203,1.8244,9.1686,1449,2934.27
20869,1.8783,3.5781,9.7288,1463,2933.84
20874,2.1201,2.3248,11.716,1450,2933.84
20879,-2.5091,-1.506,12.6306,1449,2933.84
20884,-4.7034,1.5718,9.4966,1460,2933.84
20889,1.6412,3.3531,9.4128,1465,2933.7
20894,2.5941,2.642,11.5149,1449,2933.7
20899,-2.2075,-1.2737,12.8269,1451,2933.7
20904,-5.035,1.1971,9.8713,1447,2933.7
20909,1.3252,3.1651,9.1303,1463,2933.99
20914,2.8479,3.0227,11.3174,1451,2933.99
20919,-1.9549,-0.9146,12.876,1445,2933.99
20924,-5.1822,0.8164,10.2328,1452,2933.99
20929,0.9469,3.0646,8.9388,1467,2933.84
20934,2.9425,3.4261,11.1725,1453,2933.84
20939,-1.7597,-0.4729,12.8521,1449,2933.84
20944,-5.187,0.4381,10.6374,1447,2933.84
20949,0.5267,2.9592,8.7305,1469,2934.13
20954,2.9173,3.6871,10.9523,1453,2934.13
20959,-1.5981,-0.1101,12.7898,1445,2934.13
20964,-5.0434,0.0,11.0181,1471,2934.13
20969,-0.0036,2.8431,8.5688,1477,2933.99
20974,2.7713,3.7972,10.7464,1452,2933.99
20979,-1.4126,0.2777,12.7336,1451,2933.99
20984,-4.81,-0.4752,11.3342,1449,2933.99
20989,-0.6823,2.6612,8.4934,1481,2934.27
20994,2.5606,3.8319,10.4986,1449,2934.27
20999,-0.0551,1.2031,12.3445,1451,2934.27
21004,-4.6316,-0.9361,11.6729,1453,2934.27
21009,-3.0382,2.1979,8.6981,1484,2934.42
21014,2.3511,3.8678,10.3058,1461,2934.42
21019,0.6536,1.5778,12.2128,1449,2934.42
21024,-3.3902,-1.6927,12.378,1451,2934.42
21029,-3.6799,2.077,8.9064,1465,2934.56
21034,1.9525,3.6811,9.8964,1459,2934.56
21039,1.4257,1.9501,11.9997,1448,2934.56
21044,-2.9305,-1.6113,12.7132,1459,2934.56
21049,-4.2222,1.913,9.1877,1485,2934.7
21054,1.8256,3.5326,9.6007,1451,2934.7
21059,2.1548,2.3511,11.8082,1455,2934.7
21064,-2.5558,-1.4246,12.7647,1451,2934.7
21069,-4.6902,1.5467,9.487,1489,2934.56
21074,1.6795,3.3471,9.3769,1447,2934.56
21079,2.6097,2.6959,11.6047,1456,2934.56
21084,-2.2374,-1.2246,12.821,1451,2934.56
21089,-4.974,1.1791,9.8689,1451,2934.56
21094,1.3934,3.1795,9.1482,1463,2934.56
21099,2.8898,3.0047,11.3353,1459,2934.56
21104,-1.9668,-0.9218,12.8341,1445,2934.56
21109,-5.1727,0.8128,10.2951,1462,2934.56
21114,0.9876,3.0945,8.9435,1461,2934.7
21119,2.9173,3.3615,11.1306,1453,2934.7
21124,-1.7585,-0.5447,12.8425,1450,2934.7
21129,-5.1966,0.4669,10.6757,1453,2934.7
21134,0.5447,2.9413,8.7915,1465,2934.85
21139,2.8671,3.614,10.8637,1447,2934.85
21144,-1.585,-0.0982,12.8042,1448,2934.85
21149,-5.1032,0.0443,11.0169,1451,2934.85
21154,-0.0539,2.8587,8.6503,1459,2934.85
21159,2.7258,3.7816,10.6446,1459,2934.85
21164,-1.4413,0.255,12.7611,1455,2934.85
21169,-4.8674,-0.4166,11.3246,1450,2934.85
21174,-0.6045,2.7174,8.4491,1469,2934.99
21179,2.6552,3.8918,10.5465,1451,2934.99
21184,-1.1887,0.504,12.6354,1445,2934.99
21189,-4.6196,-0.893,11.6681,1456,2934.99
21194,-1.3001,2.5474,8.4084,1469,2934.7
21199,2.4505,3.8978,10.4363,1453,2934.7
21204,-0.8511,0.7829,12.4463,1445,2934.7
21209,-4.2581,-1.2318,11.9722,1451,2934.7
21214,-2.0195,2.375,8.4036,1481,2934.27
21219,2.223,3.8475,10.3406,1451,2934.27
21224,-0.3196,1.0906,12.3062,1453,2934.27
21229,-3.9241,-1.4772,12.1913,1451,2934.27
21234,-2.7294,2.2721,8.6227,1481,2933.55
21239,2.0602,3.8128,10.2412,1459,2933.55
21244,0.3687,1.4808,12.1578,1445,2933.55
21249,-3.48,-1.6364,12.3672,1449,2933.55
21254,-3.4393,2.1177,8.8286,1464,2933.41
21259,2.0075,3.7589,10.0413,1451,2933.41
21264,1.1935,1.8507,12.0752,1451,2933.41
21269,-3.067,-1.6556,12.5684,1459,2933.41
21274,-4.0929,1.9321,9.1279,1469,2933.27
21279,1.9225,3.6009,9.7839,1453,2933.27
21284,1.9992,2.2434,11.789,1449,2933.27
21289,-2.6516,-1.5335,12.6713,1452,2933.27
21294,-4.5777,1.6676,9.414,1469,2932.98
21299,1.7238,3.4261,9.4715,1451,2932.98
21304,2.5127,2.563,11.6286,1455,2932.98
21309,-2.2769,-1.3204,12.7743,1454,2932.98
21314,-4.9368,1.2797,9.7181,1450,2932.98
21319,1.4401,3.1795,9.2033,1467,2933.12
21324,2.8347,2.9544,11.406,1455,2933.12
21329,-2.0518,-0.9936,12.8868,1447,2933.12
21334,-5.1655,0.9026,10.1538,1460,2933.12
21339,1.0415,3.0897,8.9878,1463,2933.12
21344,2.8934,3.3363,11.2288,1449,2933.12
21349,-1.8495,-0.5662,12.8042,1451,2933.12
21354,-5.2098,0.486,10.5357,1449,2933.12
21359,0.5974,2.97,8.8262,1463,2933.12
21364,2.9042,3.5853,10.9954,1453,2933.12
21369,-1.6676,-0.2035,12.8126,1448,2933.12
21374,-5.0817,0.0958,10.9642,1452,2933.12
21379,0.0766,2.8323,8.6383,1460,2933.12
21384,2.7749,3.729,10.7045,1459,2933.12
21389,-1.4641,0.182,12.7096,1449,2933.12
21394,-4.9344,-0.3675,11.2946,1451,2933.12
21399,-0.565,2.7234,8.5198,1469,2933.12
21404,2.6001,3.8499,10.5225,1448,2933.12
21409,-1.1636,0.4932,12.6773,1447,2933.12
21414,-4.6352,-0.8404,11.625,1459,2933.12
21419,-1.2653,2.5402,8.3941,1480,2933.41
21424,2.3834,3.8259,10.4495,1453,2933.41
21429,-0.844,0.7685,12.56,1448,2933.41
21434,-4.3431,-1.245,11.9124,1447,2933.41
21439,-1.9357,2.4565,8.5114,1487,2933.41
21444,2.2015,3.8391,10.2891,1451,2933.41
21449,-0.3998,1.063,12.3529,1455,2933.41
21454,-3.9887,-1.4664,12.1398,1453,2933.41
21459,-2.7234,2.3092,8.5688,1479,2933.27
21464,2.1021,3.7757,10.1275,1456,2933.27
21469,0.3268,1.4688,12.3014,1449,2933.27
21474,-3.5602,-1.5622,12.4582,1449,2933.27
21479,-3.3806,2.1691,8.8155,1468,2933.12
21484,1.986,3.711,9.985,1455,2933.12
21489,1.1396,1.81,12.0548,1449,2933.12
21494,-3.1508,-1.6209,12.5588,1460,2933.12
21499,-3.9959,1.9321,9.0441,1460,2932.98
21504,1.8998,3.5817,9.7815,1451,2932.98
21509,1.8699,2.1596,11.7974,1453,2932.98
21514,-2.6372,-1.5526,12.6677,1455,2932.98
21519,-4.4819,1.6688,9.3518,1463,2932.84
21524,1.7131,3.4237,9.5589,1450,2932.84
21529,2.4588,2.5391,11.5736,1459,2932.84
21534,-2.2805,-1.4126,12.6965,1447,2932.84
21539,-4.889,1.3132,9.7983,1447,2932.84
21544,1.4126,3.2382,9.3206,1463,2932.69
21549,2.7833,2.8443,11.4251,1454,2932.69
21554,-2.0135,-1.008,12.8233,1447,2932.69
21559,-5.1463,1.0068,10.1969,1455,2932.69
21564,1.063,3.1077,9.0142,1459,2931.41
21569,2.9317,3.2465,11.1797,1451,2931.41
21574,-1.7885,-0.5914,12.87,1445,2931.41
21579,-5.1547,0.5531,10.5896,1449,2931.41
21584,0.6117,2.9808,8.8011,1467,2929.83
21589,2.9066,3.5362,11.0205,1449,2929.83
21594,-1.5802,-0.1329,12.7886,1447,2929.83
21599,-5.0398,0.0922,10.9152,1453,2929.83
21604,0.0455,2.8862,8.576,1465,2928.83
21609,2.7821,3.8056,10.7356,1455,2928.83
21614,-1.5048,0.1891,12.645,1448,2928.83
21619,-4.7704,-0.4058,11.3138,1451,2928.83
21624,-0.6357,2.6719,8.5042,1468,2928.26
21629,2.5558,3.869,10.635,1447,2928.26
21634,-1.2402,0.5303,12.5253,1445,2928.26
21639,-4.5023,-0.9062,11.6382,1461,2928.26
21644,-1.397,2.5115,8.5281,1483,2928.11
21649,2.3331,3.8559,10.4746,1453,2928.11
21654,-0.8392,0.8404,12.4283,1447,2928.11
21659,-4.2473,-1.2941,11.965,1448,2928.11
21664,-2.1967,2.393,8.5688,1481,2928.11
21669,2.1033,3.8343,10.2615,1449,2928.11
21674,-0.1915,1.2103,12.2918,1449,2928.11
21679,-3.8092,-1.5467,12.2487,1451,2928.11
21684,-2.9497,2.2781,8.7197,1487,2928.4
21689,2.0399,3.7577,10.1598,1454,2928.4
21694,0.7063,1.5706,12.0811,1449,2928.4
21699,-3.3315,-1.634,12.4247,1451,2928.4
21704,-3.6631,2.0494,8.9196,1463,2928.26
21709,1.9944,3.6248,9.8653,1455,2928.26
21714,1.5,1.9465,11.8932,1452,2928.26
21719,-2.8527,-1.5467,12.6139,1455,2928.26
21724,-4.2497,1.7825,9.2404,1487,2928.4
21729,1.8591,3.4572,9.6067,1451,2928.4
21734,2.2254,2.3643,11.7364,1461,2928.4
21739,-2.3882,-1.4305,12.712,1448,2928.4
21744,-4.7166,1.4377,9.5672,1451,2928.4
21749,1.579,3.2741,9.3841,1467,2928.4
21754,2.6803,2.7497,11.4958,1455,2928.4
21759,-2.0794,-1.1612,12.7743,1447,2928.4
21764,-5.0218,1.1109,9.9838,1460,2928.4
21769,1.2067,3.2082,9.2249,1462,2928.26
21774,2.8335,3.1436,11.218,1449,2928.26
21779,-1.8471,-0.7195,12.7731,1449,2928.26
21784,-5.1332,0.7147,10.4136,1455,2928.26
21789,0.7554,3.049,9.0082,1464,2928.26
21794,2.8886,3.4572,10.9068,1451,2928.26
21799,-1.5778,-0.3124,12.8102,1448,2928.26
21804,-5.1356,0.2801,10.8601,1451,2928.26
21809,0.2143,2.897,8.7352,1463,2928.4
21814,2.8048,3.6679,10.7105,1459,2928.4
21819,-1.4772,0.0874,12.7455,1451,2928.4
21824,-4.9321,-0.2658,11.2132,1440,2928.4
21829,-0.4058,2.7438,8.5401,1470,2928.4
21834,2.6444,3.8295,10.6506,1452,2928.4
21839,-1.2869,0.4549,12.6965,1447,2928.4
21844,-4.6376,-0.7542,11.5628,1461,2928.4
21849,-1.1372,2.5821,8.4611,1471,2928.11
21854,2.3786,3.869,10.4567,1453,2928.11
21859,-0.9565,0.7781,12.4714,1449,2928.11
21864,-4.3084,-1.136,11.8992,1449,2928.11
21869,-1.9441,2.4193,8.5317,1480,2928.4
21874,2.1584,3.7984,10.3334,1451,2928.4
21879,-0.419,1.1013,12.3062,1451,2928.4
21884,-3.9337,-1.4509,12.1362,1453,2928.4
21889,-2.7461,2.314,8.6227,1485,2928.26
21894,2.0578,3.7517,10.1801,1459,2928.26
21899,0.3472,1.4593,12.1637,1449,2928.26
21904,-3.4548,-1.6448,12.293,1451,2928.26
21909,-3.4536,2.1201,8.8202,1468,2928.4
21914,1.9752,3.7002,10.0712,1459,2928.4
21919,1.2151,1.8459,11.9447,1448,2928.4
21924,-2.9688,-1.6125,12.4463,1459,2928.4
21929,-4.057,1.8687,9.1339,1481,2928.54
21934,1.9082,3.5506,9.7959,1447,2928.54
21939,1.9956,2.2158,11.7483,1459,2928.54
21944,-2.5355,-1.5036,12.6115,1447,2928.54
21949,-4.6112,1.5742,9.4894,1451,2928.54
21954,1.6472,3.3974,9.5205,1467,2928.54
21959,2.5462,2.6073,11.4862,1449,2928.54
21964,-2.162,-1.2402,12.7348,1449,2928.54
21969,-4.9931,1.2175,9.9383,1459,2928.54
21974,1.33,3.1987,9.1854,1459,2928.83
21979,2.8515,3.0203,11.3234,1449,2928.83
21984,-1.9417,-0.911,12.785,1447,2928.83
21989,-5.1427,0.8056,10.2783,1459,2928.83
21994,0.9517,3.0358,8.9148,1465,2928.69
21999,2.891,3.4081,11.1366,1449,2928.69
22004,-1.6975,-0.419,12.7683,1452,2928.69
22009,-5.1152,0.3879,10.7356,1451,2928.69
22014,0.4489,2.9485,8.7676,1461,2928.69
22019,2.8335,3.6224,10.9164,1458,2928.69
22024,-1.5634,-0.0551,12.6785,1451,2928.69
22029,-4.9871,-0.1137,11.0756,1453,2928.69
22034,-0.1891,2.7833,8.6012,1468,2928.83
22039,2.6731,3.8128,10.6865,1453,2928.83
22044,-1.397,0.3663,12.6258,1447,2928.83
22049,-4.7369,-0.5602,11.4946,1453,2928.83
22054,-0.8715,2.6264,8.5042,1479,2929.12
22059,2.4505,3.8822,10.4878,1451,2929.12
22064,-1.1109,0.6632,12.5408,1447,2929.12
22069,-4.4221,-1.0307,11.7495,1453,2929.12
22074,-1.6173,2.4588,8.4958,1483,2928.97
22079,2.2733,3.808,10.4172,1449,2928.97
22084,-0.5842,0.9816,12.4403,1453,2928.97
22089,-4.0989,-1.3743,12.1063,1447,2928.97
22094,-2.411,2.3559,8.5653,1482,2929.12
22099,2.1117,3.814,10.2687,1460,2929.12
22104,0.0096,1.2857,12.2032,1445,2929.12
22109,-3.6488,-1.6005,12.3469,1447,2929.12
22114,-3.1843,2.1871,8.7759,1480,2928.97
22119,1.9884,3.7314,9.9766,1454,2928.97
22124,0.8918,1.6903,12.0704,1451,2928.97
22129,-3.2609,-1.6173,12.5181,1459,2928.97
22134,-3.8044,1.9956,9.0333,1483,2929.12
22139,1.8854,3.5865,9.8581,1449,2929.12
22144,1.6723,2.0602,11.8094,1446,2929.12
22149,-2.7258,-1.5706,12.615,1453,2929.12
22154,-4.3874,1.7107,9.3194,1481,2929.26
22159,1.749,3.4189,9.6223,1449,2929.26
22164,2.332,2.4948,11.5808,1451,2929.26
22169,-2.296,-1.3779,12.7192,1450,2929.26
22174,-4.8435,1.397,9.7348,1449,2929.26
22179,1.4868,3.2908,9.4212,1459,2929.12
22184,2.7294,2.8264,11.3114,1449,2929.12
22189,-1.9644,-1.063,12.7862,1448,2929.12
22194,-5.12,0.9613,10.1335,1461,2929.12
22199,1.1061,3.134,9.1626,1463,2928.97
22204,2.8754,3.1807,11.0899,1447,2928.97
22209,-1.7669,-0.6249,12.7886,1449,2928.97
22214,-5.1858,0.6081,10.5249,1446,2928.97
22219,0.6213,2.9808,8.843,1463,2929.12
22224,2.8659,3.5338,10.902,1452,2929.12
22229,-1.6316,-0.2298,12.8485,1446,2929.12
22234,-5.0996,0.0563,11.0026,1451,2929.12
22239,0.0575,2.8599,8.667,1470,2929.12
22244,2.739,3.7637,10.7871,1453,2929.12
22249,-1.47,0.1891,12.6988,1449,2929.12
22254,-4.8782,-0.3771,11.3186,1451,2929.12
22259,-0.5555,2.7066,8.5341,1461,2929.12
22264,2.563,3.8666,10.6374,1453,2929.12
22269,-1.2845,0.492,12.56,1446,2929.12
22274,-4.5538,-0.8428,11.6346,1454,2929.12
22279,-1.2797,2.5486,8.4443,1483,2929.26
22284,2.3272,3.8738,10.4543,1451,2929.26
22289,-0.9134,0.8667,12.457,1455,2929.26
22294,-4.221,-1.2438,11.9195,1451,2929.26
22299,-2.0554,2.3834,8.5054,1482,2929.54
22304,2.1596,3.8283,10.3477,1453,2929.54
22309,-0.2646,1.1636,12.3613,1447,2929.54
22314,-3.8152,-1.5071,12.1242,1451,2929.54
22319,-2.8599,2.2362,8.6407,1484,2929.54
22324,2.0602,3.7517,10.1227,1453,2929.54
22329,0.5183,1.5239,12.1518,1451,2929.54
22334,-3.3722,-1.6819,12.3649,1452,2929.54
22339,-3.5805,2.083,8.9064,1481,2929.26
22344,1.9429,3.6966,9.9539,1455,2929.26
22349,1.336,1.8747,11.9327,1451,2929.26
22354,-2.9113,-1.6316,12.5372,1455,2929.26
22359,-4.1911,1.8495,9.1387,1463,2930.26
22364,1.822,3.5398,9.7025,1449,2930.26
22369,2.0865,2.2984,11.6849,1461,2930.26
22374,-2.5223,-1.4497,12.706,1449,2930.26
22379,-4.6555,1.555,9.5277,1448,2930.26
22384,1.6293,3.31,9.4475,1463,2930.69
22389,2.6731,2.6767,11.546,1455,2930.69
22394,-2.162,-1.2258,12.7276,1447,2930.69
22399,-4.9775,1.1827,9.8904,1461,2930.69
22404,1.3084,3.1795,9.098,1459,2930.98
22409,2.8994,3.0562,11.3461,1452,2930.98
22414,-1.8639,-0.82,12.797,1451,2930.98
22419,-5.1475,0.7913,10.2855,1453,2930.98
22424,0.9062,3.0227,8.9232,1467,2931.12
22429,2.9197,3.3531,11.0696,1451,2931.12
22434,-1.6951,-0.4214,12.7755,1447,2931.12
22439,-5.2206,0.3496,10.7272,1453,2931.12
22444,0.4142,2.97,8.7819,1462,2931.41
22449,2.8371,3.6045,10.8804,1459,2931.41
22454,-1.561,-0.0431,12.8281,1448,2931.41
22459,-5.0841,-0.1233,11.1725,1451,2931.41
22464,-0.1867,2.8287,8.6048,1469,2931.12
22469,2.6707,3.7601,10.5991,1453,2931.12
22474,-1.3958,0.3484,12.7252,1446,2931.12
22479,-4.7956,-0.5638,11.5017,1459,2931.12
22484,-0.8703,2.6875,8.5222,1479,2930.98
22489,2.5067,3.8511,10.568,1452,2930.98
22494,-1.0642,0.6404,12.5923,1449,2930.98
22499,-4.4472,-1.0271,11.746,1451,2930.98
22504,-1.5718,2.4852,8.3713,1481,2930.98
22509,2.3379,3.8702,10.3968,1449,2930.98
22514,-0.7003,0.9206,12.39,1452,2930.98
22519,-4.0845,-1.3408,12.1159,1458,2930.98
22524,-2.302,2.3379,8.5305,1481,2930.83
22529,2.1524,3.8128,10.2268,1460,2930.83
22534,-0.0455,1.2653,12.2032,1451,2930.83
22539,-3.699,-1.585,12.2894,1451,2930.83
22544,-3.0574,2.1955,8.7173,1481,2931.26
22549,2.0542,3.6919,10.0736,1454,2931.26
22554,0.7398,1.6197,12.068,1451,2931.26
22559,-3.2705,-1.6688,12.4187,1456,2931.26
22564,-3.7182,1.9932,8.9088,1479,2931.26
22569,1.9441,3.644,9.9084,1447,2931.26
22574,1.555,2.0435,11.8968,1455,2931.26
22579,-2.7761,-1.5862,12.5863,1455,2931.26
22584,-4.3383,1.7633,9.2847,1490,2931.26
22589,1.8328,3.5003,9.6379,1451,2931.26
22594,2.3032,2.4289,11.7232,1469,2931.26
22599,-2.3415,-1.3922,12.6617,1453,2931.26
22604,-4.7848,1.4796,9.6127,1449,2931.26
22609,1.5682,3.3722,9.3889,1467,2931.26
22614,2.7102,2.8048,11.382,1454,2931.26
22619,-2.0339,-1.1241,12.8042,1449,2931.26
22624,-5.0733,1.057,10.009,1460,2931.26
22629,1.2151,3.1807,9.0896,1460,2931.55
22634,2.9221,3.1352,11.2228,1450,2931.55
22639,-1.81,-0.7542,12.8425,1453,2931.55
22644,-5.1978,0.6357,10.3537,1450,2931.55
22649,0.8045,3.0478,8.8597,1464,2931.55
22654,2.9329,3.5051,11.0492,1453,2931.55
22659,-1.7166,-0.3436,12.8317,1437,2931.55
22664,-5.1643,0.2023,10.8505,1454,2931.55
22669,0.2921,2.903,8.6898,1467,2931.98
22674,2.8419,3.7122,10.823,1451,2931.98
22679,-1.5826,0.067,12.7252,1451,2931.98
22684,-4.962,-0.1844,11.1989,1451,2931.98
22689,-0.3172,2.7581,8.5269,1465,2931.98
22694,2.6288,3.8439,10.6913,1456,2931.98
22699,-1.3563,0.4369,12.7156,1449,2931.98
22704,-4.7764,-0.6656,11.5879,1459,2931.98
22709,-0.9673,2.6312,8.4994,1481,2932.41
22714,2.4828,3.8583,10.3848,1451,2932.41
22719,-1.0199,0.7649,12.5851,1449,2932.41
22724,-4.4724,-1.0882,11.795,1447,2932.41
22729,-1.7083,2.472,8.4779,1485,2932.55
22734,2.2781,3.875,10.325,1451,2932.55
22739,-0.5171,1.0319,12.4654,1451,2932.55
22744,-4.027,-1.421,12.0476,1453,2932.55
22749,-2.4816,2.2793,8.5473,1482,2932.41
22754,2.1141,3.7541,10.1969,1460,2932.41
22759,0.1496,1.3252,12.208,1449,2932.41
22764,-3.6524,-1.6197,12.2811,1451,2932.41
22769,-3.1783,2.1727,8.7975,1466,2932.69
22774,2.0195,3.7433,10.058,1455,2932.69
22779,0.8535,1.7095,12.0452,1447,2932.69
22784,-3.2226,-1.6101,12.566,1459,2932.69
22789,-3.875,1.9357,8.9004,1465,2932.12
22794,1.9513,3.6057,9.8414,1449,2932.12
22799,1.6735,2.1093,11.9147,1456,2932.12
22804,-2.8479,-1.5634,12.6953,1449,2932.12
22809,-4.367,1.7538,9.3278,1461,2931.41
22814,1.7873,3.4405,9.596,1452,2931.41
22819,2.3272,2.4469,11.6753,1456,2931.41
22824,-2.3739,-1.3791,12.6857,1451,2931.41
22829,-4.7692,1.4461,9.6606,1459,2931.41
22834,1.5119,3.2872,9.3817,1461,2931.55
22839,2.7378,2.8,11.3701,1453,2931.55
22844,-1.9908,-1.1001,12.7204,1449,2931.55
22849,-5.0913,1.0606,10.0975,1460,2931.55
22854,1.1396,3.1627,9.1387,1461,2931.41
22859,2.8982,3.1771,11.1438,1449,2931.41
22864,-1.7621,-0.7159,12.7563,1451,2931.41
22869,-5.1954,0.6069,10.4722,1451,2931.41
22874,0.7183,2.9951,8.819,1461,2930.83
22879,2.8862,3.4441,10.9511,1451,2930.83
22884,-1.6783,-0.2322,12.8832,1443,2930.83
22889,-5.1344,0.1712,10.9128,1453,2930.83
22894,0.1975,2.9209,8.673,1471,2930.83
22899,2.7737,3.7517,10.7835,1451,2930.83
22904,-1.6137,0.1341,12.7407,1449,2930.83
22909,-4.9368,-0.2765,11.2767,1453,2930.83
22914,-0.419,2.7761,8.5114,1467,2930.69
22919,2.6396,3.899,10.641,1447,2930.69
22924,-1.3815,0.4549,12.6402,1443,2930.69
22929,-4.6543,-0.7602,11.582,1455,2930.69
22934,-1.1001,2.5331,8.4384,1465,2930.98
22939,2.4517,3.96,10.5213,1449,2930.98
22944,-1.0092,0.7721,12.5265,1447,2930.98
22949,-4.2581,-1.1528,11.8561,1453,2930.98
22954,-1.8172,2.4134,8.4611,1485,2930.26
22959,2.2302,3.7924,10.3585,1451,2930.26
22964,-0.4226,1.087,12.3613,1449,2930.26
22969,-3.9241,-1.4892,12.1159,1453,2930.26
22974,-2.6252,2.2769,8.6287,1479,2929.97
22979,2.0818,3.7912,10.1969,1452,2929.97
22984,0.2861,1.4509,12.2535,1453,2929.97
22989,-3.5003,-1.6041,12.3301,1451,2929.97
22994,-3.4093,2.1045,8.8023,1477,2928.97
22999,1.9908,3.6703,9.9671,1455,2928.97
23004,1.1325,1.8172,12.0596,1451,2928.97
23009,-3.0478,-1.6364,12.5001,1455,2928.97
23014,-4.0282,1.9261,9.1087,1467,2930.26
23019,1.8759,3.5733,9.7324,1446,2930.26
23024,1.9513,2.1907,11.8142,1468,2930.26
23029,-2.6276,-1.4976,12.6857,1449,2930.26
23034,-4.5562,1.6089,9.4164,1451,2930.26
23039,1.6688,3.3698,9.4858,1467,2929.26
23044,2.5091,2.5977,11.6238,1453,2929.26
23049,-2.2134,-1.2534,12.8018,1448,2929.26
23054,-4.9057,1.2342,9.7683,1465,2929.26
23059,1.409,3.2262,9.2548,1461,2929.54
23064,2.8072,2.9975,11.3389,1461,2929.54
23069,-1.9393,-0.9218,12.803,1454,2929.54
23074,-5.1703,0.8559,10.1694,1453,2929.54
23079,0.9876,3.061,9.0477,1463,2929.54
23084,2.8778,3.2968,11.1247,1449,2929.54
23089,-1.7561,-0.5303,12.7946,1448,2929.54
23094,-5.1894,0.4884,10.7009,1438,2929.54
23099,0.5136,2.9832,8.8861,1461,2929.54
23104,2.8024,3.6129,10.8769,1455,2929.54
23109,-1.5766,-0.0742,12.7982,1448,2929.54
23114,-5.0913,-0.0084,11.1115,1452,2929.54
23119,-0.1053,2.8371,8.6431,1470,2929.4
23124,2.7078,3.8235,10.6255,1451,2929.4
23129,-1.4317,0.3077,12.7192,1445,2929.4
23134,-4.8088,-0.4956,11.4132,1459,2929.4
23139,-0.7661,2.6923,8.5629,1459,2929.83
23144,2.5654,3.887,10.507,1453,2929.83
23149,-1.1588,0.6345,12.6426,1448,2929.83
23154,-4.4712,-1.0092,11.7124,1447,2929.83
23159,-1.4629,2.5007,8.4707,1481,2929.83
23164,2.3355,3.8738,10.3693,1451,2929.83
23169,-0.7159,0.9242,12.4187,1451,2929.83
23174,-4.1025,-1.3084,12.0548,1452,2929.83
23179,-2.2984,2.3379,8.5341,1484,2930.12
23184,2.1476,3.8283,10.1885,1459,2930.12
23189,-0.0838,1.2689,12.2416,1449,2930.12
23194,-3.7637,-1.5502,12.2691,1451,2930.12
23199,-3.0299,2.2374,8.673,1465,2929.83
23204,2.0255,3.7445,10.1323,1459,2929.83
23209,0.668,1.5933,12.1254,1449,2929.83
23214,-3.2813,-1.6388,12.4235,1461,2929.83
23219,-3.6883,2.0219,8.8957,1469,2930.4
23224,1.9261,3.6236,9.9647,1449,2930.4
23229,1.5071,2.0063,11.9088,1459,2930.4
23234,-2.8395,-1.5802,12.5971,1443,2930.4
23239,-4.2916,1.8112,9.2847,1463,2929.26
23244,1.8112,3.4848,9.7097,1454,2929.26
23249,2.2541,2.3822,11.6657,1453,2929.26
23254,-2.4265,-1.409,12.6737,1449,2929.26
23259,-4.7573,1.4305,9.5948,1453,2929.26
23264,1.5574,3.3315,9.408,1463,2930.83
23269,2.7031,2.7833,11.4551,1451,2930.83
23274,-2.0638,-1.1337,12.7994,1447,2930.83
23279,-5.0242,1.0894,10.0078,1448,2930.83
23284,1.1887,3.1711,9.0872,1463,2929.97
23289,2.8934,3.1113,11.248,1449,2929.97
23294,-1.8531,-0.7458,12.8186,1449,2929.97
23299,-5.2074,0.6512,10.4208,1449,2929.97
23304,0.759,3.0239,8.9376,1463,2929.97
23309,2.8802,3.486,11.0337,1451,2929.97
23314,-1.719,-0.322,12.8054,1433,2929.97
23319,-5.1511,0.2227,10.8218,1453,2929.97
23324,0.2358,2.8766,8.685,1471,2930.12
23329,2.8084,3.7505,10.8685,1449,2930.12
23334,-1.5897,0.0922,12.7455,1447,2930.12
23339,-4.9584,-0.2574,11.2073,1453,2930.12
23344,-0.3795,2.7605,8.5665,1465,2930.12
23349,2.5881,3.8978,10.6458,1453,2930.12
23354,-1.3934,0.4453,12.5887,1445,2930.12
23359,-4.6328,-0.7027,11.5484,1455,2930.12
23364,-1.1073,2.5594,8.4874,1482,2930.26
23369,2.4325,3.8822,10.4375,1451,2930.26
23374,-0.9804,0.7506,12.4427,1453,2930.26
23379,-4.3886,-1.1121,11.8812,1453,2930.26
23384,-1.8747,2.4253,8.5329,1487,2930.55
23389,2.2242,3.8571,10.2939,1455,2930.55
23394,-0.4489,1.0642,12.4235,1450,2930.55
23399,-4.0235,-1.4784,12.0716,1449,2930.55
23404,-2.5881,2.2697,8.5748,1467,2930.69
23409,2.0997,3.7278,10.161,1452,2930.69
23414,0.2502,1.3755,12.1889,1451,2930.69
23419,-3.559,-1.6101,12.3601,1451,2930.69
23424,-3.3399,2.2039,8.8071,1485,2930.83
23429,1.9692,3.6583,9.9587,1452,2930.83
23434,1.087,1.7693,12.0716,1452,2930.83
23439,-3.122,-1.6532,12.5061,1453,2930.83
23444,-3.9385,1.962,9.0249,1461,2930.83
23449,1.8998,3.5183,9.7109,1448,2930.83
23454,1.8806,2.1691,11.88,1461,2930.83
23459,-2.6839,-1.4844,12.6905,1447,2930.83
23464,-4.4855,1.6807,9.3434,1448,2930.83
23469,1.7154,3.389,9.5193,1465,2931.12
23474,2.4421,2.5223,11.57,1455,2931.12
23479,-2.2805,-1.2965,12.7383,1447,2931.12
23484,-4.8698,1.3515,9.7229,1461,2931.12
23489,1.4425,3.2836,9.3122,1463,2931.41
23494,2.7797,2.9018,11.3725,1449,2931.41
23499,-1.9405,-1.0307,12.7443,1451,2931.41
23504,-5.1499,0.9888,10.1251,1452,2931.41
23509,1.0523,3.1125,9.1375,1466,2931.41
23514,2.8874,3.2262,11.1031,1453,2931.41
23519,-1.7358,-0.6045,12.7982,1447,2931.41
23524,-5.1834,0.5399,10.5919,1449,2931.41
23529,0.5974,2.97,8.8921,1464,2931.26
23534,2.879,3.5195,10.9008,1459,2931.26
23539,-1.5897,-0.1604,12.8078,1449,2931.26
23544,-5.1547,0.0862,10.9535,1451,2931.26
23549,0.0491,2.8587,8.6395,1470,2931.26
23554,2.8,3.7733,10.7464,1451,2931.26
23559,-1.4796,0.1616,12.7395,1445,2931.26
23564,-4.8961,-0.3747,11.3497,1455,2931.26
23569,-0.5531,2.7007,8.5258,1479,2931.69
23574,2.6073,3.8583,10.5512,1455,2931.69
23579,-1.2594,0.5064,12.6091,1449,2931.69
23584,-4.5598,-0.8392,11.6478,1453,2931.69
23589,-1.2665,2.5738,8.4551,1482,2931.83
23594,2.3906,3.863,10.4387,1451,2931.83
23599,-0.8775,0.8188,12.4463,1453,2931.83
23604,-4.2389,-1.2426,11.9315,1453,2931.83
23609,-2.0016,2.4349,8.4707,1487,2932.69
23614,2.2158,3.8511,10.2903,1461,2932.69
23619,-0.3508,1.0846,12.3553,1445,2932.69
23624,-3.8942,-1.4724,12.159,1450,2932.69
23629,-2.7557,2.2625,8.5712,1482,2932.69
23634,2.1165,3.8128,10.228,1455,2932.69
23639,0.4142,1.4581,12.2607,1450,2932.69
23644,-3.4752,-1.6424,12.3589,1459,2932.69
23649,-3.4453,2.0818,8.7939,1483,2932.84
23654,1.98,3.6787,9.9898,1451,2932.84
23659,1.257,1.8304,12.0728,1455,2932.84
23664,-3.0634,-1.6723,12.5037,1452,2932.84
23669,-4.0654,1.9441,9.0884,1487,2932.69
23674,1.8723,3.553,9.7839,1449,2932.69
23679,1.9668,2.2146,11.8381,1455,2932.69
23684,-2.6384,-1.5071,12.7,1448,2932.69
23689,-4.5885,1.6616,9.3458,1451,2932.69
23694,1.6759,3.3495,9.4355,1465,2932.69
23699,2.5486,2.5941,11.5927,1455,2932.69
23704,-2.2913,-1.3024,12.7791,1444,2932.69
23709,-4.9608,1.2941,9.8043,1461,2932.69
23714,1.4078,3.1663,9.2225,1460,2932.98
23719,2.8407,2.9317,11.3916,1449,2932.98
23724,-2.0111,-0.9517,12.7886,1451,2932.98
23729,-5.1415,0.9266,10.088,1449,2932.98
23734,1.0391,3.0981,9.001,1464,2932.69
23739,2.9425,3.298,11.2456,1439,2932.69
23744,-1.8088,-0.5291,12.8904,1449,2932.69
23749,-5.2158,0.5447,10.574,1451,2932.69
23754,0.5746,2.9736,8.8298,1461,2932.55
23759,2.885,3.5662,10.9463,1462,2932.55
23764,-1.6484,-0.1437,12.8054,1449,2932.55
23769,-5.1032,0.0826,10.9259,1451,2932.55
23774,0.0239,2.8455,8.7113,1469,2932.26
23779,2.7605,3.7661,10.738,1453,2932.26
23784,-1.4413,0.2095,12.8353,1445,2932.26
23789,-4.8914,-0.3328,11.3437,1455,2932.26
23794,-0.6021,2.7031,8.491,1464,2932.12
23799,2.6013,3.8463,10.5093,1451,2932.12
23804,-1.2067,0.5363,12.6031,1454,2932.12
23809,-4.6076,-0.8092,11.6562,1449,2932.12
23814,-1.2749,2.5642,8.4575,1480,2932.12
23819,2.3942,3.881,10.4782,1451,2932.12
23824,-0.9038,0.8128,12.5289,1451,2932.12
23829,-4.2485,-1.2115,11.9267,1453,2932.12
23834,-2.0063,2.4301,8.5114,1481,2931.98
23839,2.211,3.8511,10.2376,1455,2931.98
23844,-0.2909,1.1157,12.3493,1449,2931.98
23849,-3.8642,-1.4928,12.202,1451,2931.98
23854,-2.8132,2.2805,8.6467,1462,2932.12
23859,2.0949,3.7409,10.1131,1453,2932.12
23864,0.4657,1.4676,12.1901,1448,2932.12
23869,-3.4919,-1.5945,12.3349,1460,2932.12
23874,-3.4632,2.0518,8.8083,1461,2932.26
23879,2.0051,3.6883,9.9874,1449,2932.26
23884,1.2558,1.8364,12.0428,1453,2932.26
23889,-2.9963,-1.6017,12.5324,1447,2932.26
23894,-4.0965,1.8878,9.1435,1464,2932.41
23899,1.8699,3.5542,9.7396,1449,2932.41
23904,2.0087,2.1931,11.7472,1454,2932.41
23909,-2.5714,-1.5275,12.6522,1447,2932.41
23914,-4.6172,1.6005,9.4164,1448,2932.41
23919,1.646,3.3938,9.5553,1461,2932.26
23924,2.5199,2.6121,11.5784,1455,2932.26
23929,-2.2398,-1.2773,12.8186,1447,2932.26
23934,-4.9464,1.3611,9.8019,1455,2932.26
23939,1.3671,3.2358,9.2476,1459,2932.26
23944,2.8228,2.9221,11.2743,1451,2932.26
23949,-1.9357,-0.9266,12.815,1448,2932.26
23954,-5.1475,0.9194,10.2244,1449,2932.26
23959,0.9673,3.0754,8.9998,1464,2931.98
23964,2.9113,3.2765,11.1606,1451,2931.98
23969,-1.749,-0.4764,12.8162,1445,2931.98
23974,-3.1711,-1.6448,12.4546,1450,2931.98
23979,0.5722,2.9329,8.734,1467,2931.98
23984,2.9329,3.5937,10.9283,1455,2931.98
23989,-1.6125,-0.1209,12.8461,1450,2931.98
23994,-5.114,0.0299,11.0744,1451,2931.98
23999,-0.0263,2.8635,8.6167,1464,2931.98
24004,2.7174,3.7517,10.7691,1452,2931.98
24009,-1.4485,0.2095,12.6953,1443,2931.98
24014,-4.8554,-0.4465,11.2982,1459,2931.98
24019,-0.7063,2.7019,8.5138,1463,2931.83
24024,2.5809,3.875,10.5943,1451,2931.83
24029,-1.221,0.583,12.6067,1453,2931.83
24034,-4.5885,-0.8847,11.6909,1451,2931.83
24039,-1.3862,2.5307,8.4815,1468,2932.26
24044,2.3535,3.8475,10.3896,1455,2932.26
24049,-0.8416,0.8511,12.4594,1455,2932.26
24054,-4.2294,-1.2617,11.9542,1448,2932.26
24059,-2.1476,2.4038,8.5293,1485,2932.12
24064,2.2003,3.8738,10.2759,1455,2932.12
24069,-0.1676,1.1516,12.3601,1449,2932.12
24074,-3.8355,-1.5083,12.2224,1449,2932.12
24079,-2.8862,2.2577,8.5784,1487,2931.83
24084,2.0746,3.784,10.0724,1455,2931.83
24089,0.5411,1.5024,12.1482,1449,2931.83
24094,-3.3914,-1.6448,12.4487,1458,2931.83
24099,-3.5123,2.1117,8.8909,1485,2931.98
24104,1.9644,3.6524,9.9084,1448,2931.98
24109,1.336,1.907,11.9914,1461,2931.98
24114,-2.9916,-1.5742,12.6222,1447,2931.98
24119,-4.1324,1.8783,9.153,1449,2932.26
24124,1.8423,3.4357,9.6474,1463,2932.26
24129,2.0207,2.2601,11.8345,1449,2932.26
24134,-2.6049,-1.5227,12.712,1449,2932.26
24139,-4.6244,1.6125,9.5038,1459,2932.26
24144,1.6891,3.3818,9.4679,1460,2931.98
24149,2.5486,2.6576,11.5604,1453,2931.98
24154,-2.1847,-1.2258,12.7419,1449,2931.98
24159,-4.9392,1.2522,9.8378,1459,2931.98
24164,1.3479,3.1687,9.2799,1459,2932.41
24169,2.8311,3.0155,11.2946,1450,2932.41
24174,-1.9046,-0.8835,12.797,1449,2932.41
24179,-5.2074,0.8787,10.2137,1449,2932.41
24184,0.9445,3.1352,9.0321,1463,2932.41
24189,2.9245,3.2968,11.0923,1451,2932.41
24194,-1.7095,-0.4908,12.8138,1445,2932.41
24199,-5.2026,0.425,10.6422,1451,2932.41
24204,0.4549,2.9592,8.7951,1469,2931.98
24209,2.8383,3.5817,10.8505,1451,2931.98
24214,-1.5921,-0.0718,12.8652,1448,2931.98
24219,-5.0697,0.0156,11.0576,1455,2931.98
24224,-0.1161,2.7869,8.6167,1467,2931.69
24229,2.7306,3.7852,10.7081,1453,2931.69
24234,-1.4222,0.3292,12.7084,1446,2931.69
24239,-4.8171,-0.492,11.4455,1456,2931.69
24244,-0.7338,2.6875,8.4934,1470,2931.69
24249,2.5391,3.8475,10.5812,1453,2931.69
24254,-1.1839,0.5794,12.5827,1449,2931.69
24259,-4.5095,-0.9086,11.6885,1452,2931.69
24264,-1.4461,2.575,8.4862,1483,2931.41
24269,2.3463,3.8894,10.41,1453,2931.41
24274,-0.7721,0.8739,12.4894,1447,2931.41
24279,-4.2018,-1.3144,11.9602,1451,2931.41
24284,-2.229,2.3415,8.4994,1479,2931.26
24289,2.1715,3.8391,10.2292,1451,2931.26
24294,-0.1281,1.166,12.3014,1447,2931.26
24299,-3.7757,-1.5371,12.1817,1451,2931.26
24304,-2.9437,2.2338,8.6598,1493,2931.26
24309,2.0782,3.7362,10.1478,1455,2931.26
24314,0.6273,1.5191,12.141,1449,2931.26
24319,-3.304,-1.6544,12.4331,1455,2931.26
24324,-3.6296,2.0291,8.9232,1491,2931.69
24329,1.968,3.6524,9.9395,1449,2931.69
24334,1.4449,1.9178,11.965,1461,2931.69
24339,-2.891,-1.6173,12.5971,1448,2931.69
24344,-4.2473,1.8639,9.1638,1453,2931.69
24349,1.828,3.5207,9.6989,1466,2931.83
24354,2.1679,2.3056,11.7053,1454,2931.83
24359,-2.4888,-1.4545,12.785,1450,2931.83
24364,-4.6723,1.5562,9.5038,1463,2931.83
24369,1.6077,3.3327,9.3793,1463,2932.12
24374,2.6707,2.7174,11.5365,1455,2932.12
24379,-2.1201,-1.1959,12.7898,1451,2932.12
24384,-4.9931,1.2139,9.8869,1455,2932.12
24389,1.2881,3.1699,9.159,1464,2932.12
24394,2.9173,3.0335,11.3617,1449,2932.12
24399,-1.9058,-0.8308,12.7731,1453,2932.12
24404,-5.1942,0.7769,10.3118,1450,2932.12
24409,0.8775,3.0035,8.9004,1459,2932.12
24414,2.9844,3.3615,11.0708,1459,2932.12
24419,-1.6879,-0.4214,12.791,1449,2932.12
24424,-5.1679,0.3089,10.7248,1451,2932.12
24429,0.3567,2.9113,8.7412,1470,2931.83
24434,2.8371,3.6536,10.8828,1452,2931.83
24439,-1.5299,0.0108,12.7479,1445,2931.83
24444,-5.0937,-0.0802,11.078,1453,2931.83
24449,-0.2227,2.7928,8.6107,1480,2931.98
24454,2.7054,3.8032,10.7045,1453,2931.98
24459,-1.3886,0.3496,12.712,1447,2931.98
24464,-4.7848,-0.5519,11.4359,1460,2931.98
24469,-0.8559,2.6528,8.4551,1483,2931.83
24474,2.5235,3.8487,10.4986,1451,2931.83
24479,-1.0618,0.6369,12.5552,1453,2931.83
24484,-4.4616,-0.9936,11.7747,1452,2931.83
24489,-1.6029,2.4864,8.4132,1481,2931.83
24494,2.3463,3.8762,10.4447,1459,2931.83
24499,-0.595,0.8966,12.4032,1449,2931.83
24504,-4.148,-1.3934,12.0464,1448,2931.83
24509,-2.3308,2.332,8.503,1486,2931.69
24514,2.1823,3.8092,10.2544,1453,2931.69
24519,0.0132,1.2366,12.2224,1451,2931.69
24524,-3.7314,-1.5538,12.3134,1459,2931.69
24529,-3.0598,2.223,8.7065,1485,2931.55
24534,2.0818,3.699,10.0114,1451,2931.55
24539,0.7649,1.6125,12.123,1453,2931.55
24544,-3.3052,-1.6269,12.5265,1455,2931.55
24549,-3.6919,2.0722,8.9052,1477,2931.12
24554,1.9632,3.6392,9.7779,1447,2931.12
24559,1.5694,1.9944,11.904,1459,2931.12
24564,-2.8323,-1.5514,12.6174,1449,2931.12
24569,-4.2701,1.8064,9.2356,1449,2931.12
24574,1.7825,3.4943,9.6199,1465,2931.69
24579,2.2613,2.393,11.6502,1455,2931.69
24584,-2.3691,-1.3922,12.6905,1449,2931.69
24589,-4.7489,1.5203,9.5708,1463,2931.69
24594,1.5862,3.3208,9.3937,1461,2931.12
24599,2.6863,2.721,11.4156,1451,2931.12
24604,-2.0554,-1.1612,12.7731,1451,2931.12
24609,-5.0446,1.1013,10.0054,1449,2931.12
24614,1.2534,3.1723,9.1842,1461,2930.83
24619,2.8826,3.0897,11.1749,1452,2930.83
24624,-1.8172,-0.7781,12.8509,1449,2930.83
24629,-5.1739,0.6524,10.3729,1454,2930.83
24634,0.7865,3.0131,8.9304,1459,2930.4
24639,2.8659,3.4836,11.0002,1455,2930.4
24644,-1.6508,-0.3328,12.8557,1449,2930.4
24649,-5.2086,0.2562,10.8242,1451,2930.4
24654,0.2741,2.879,8.7424,1466,2930.55
24659,2.8299,3.7086,10.8445,1453,2930.55
24664,-1.549,0.0539,12.7455,1447,2930.55
24669,-4.9955,-0.1891,11.23,1459,2930.55
24674,-0.2957,2.7701,8.5365,1479,2930.69
24679,2.6504,3.8618,10.671,1452,2930.69
24684,-1.3491,0.4046,12.6713,1449,2930.69
24689,-4.6771,-0.68,11.5173,1449,2930.69
24694,-1.0223,2.6528,8.4408,1484,2930.83
24699,2.4852,3.8702,10.5117,1451,2930.83
24704,-0.9816,0.7566,12.5277,1453,2930.83
24709,-4.3898,-1.1396,11.8058,1449,2930.83
24714,-1.7645,2.4229,8.4743,1486,2930.98
24719,2.2757,3.8906,10.3753,1455,2930.98
24724,-0.492,1.0247,12.4115,1455,2930.98
24729,-4.0019,-1.4533,12.0512,1449,2930.98
24734,-2.5786,2.32,8.5964,1463,2930.55
24739,2.1632,3.8044,10.2627,1453,2930.55
24744,0.2298,1.3467,12.2368,1447,2930.55
24749,-3.5889,-1.5969,12.3493,1455,2930.55
24754,-3.3088,2.1871,8.7747,1462,2931.26
24759,2.0183,3.7302,10.0329,1450,2931.26
24764,1.0211,1.7358,12.0476,1455,2931.26
24769,-3.1448,-1.6137,12.5432,1449,2931.26
24774,-3.9253,1.9585,9.0082,1465,2930.83
24779,1.9273,3.6392,9.7935,1451,2930.83
24784,1.7753,2.1536,11.8681,1455,2930.83
24789,-2.7186,-1.5024,12.706,1447,2930.83
24794,-4.4712,1.6987,9.3829,1461,2930.83
24799,1.7358,3.4081,9.5301,1460,2930.55
24804,2.4337,2.5259,11.6071,1451,2930.55
24809,-2.3272,-1.3372,12.73,1445,2930.55
24814,-4.8315,1.3743,9.6534,1459,2930.55
24819,1.4605,3.2034,9.2548,1455,2930.83
24824,2.8108,2.8431,11.4718,1451,2930.83
24829,-1.9788,-1.057,12.8078,1451,2930.83
24834,-5.1152,0.9325,10.1239,1450,2930.83
24839,1.0977,3.1041,9.0393,1454,2930.55
24844,2.8814,3.2214,11.1414,1453,2930.55
24849,-1.7645,-0.6524,12.7958,1446,2930.55
24854,-5.1727,0.5399,10.4794,1448,2930.55
24859,0.6033,3.0347,8.9004,1470,2930.55
24864,2.8264,3.5099,10.9415,1450,2930.55
24869,-1.6185,-0.1867,12.7862,1449,2930.55
24874,-5.1583,0.1496,10.9176,1451,2930.55
24879,0.0754,2.9197,8.6921,1461,2930.55
24884,2.709,3.7445,10.7033,1453,2930.55
24889,-1.4856,0.2227,12.809,1440,2930.55
24894,-4.9057,-0.3699,11.3509,1455,2930.55
24899,-0.6009,2.7102,8.4934,1483,2930.83
24904,2.5618,3.8726,10.5991,1449,2930.83
24909,-1.1887,0.5243,12.615,1455,2930.83
24914,-4.5777,-0.8499,11.6107,1451,2930.83
24919,-1.2725,2.5426,8.412,1469,2931.12
24924,2.4289,3.8966,10.4471,1451,2931.12
24929,-0.8523,0.7961,12.4977,1455,2931.12
24934,-4.2329,-1.221,11.9794,1449,2931.12
24939,-2.0159,2.4146,8.4779,1482,2931.12
24944,2.2254,3.8511,10.3513,1449,2931.12
24949,-0.3124,1.1097,12.2619,1449,2931.12
24954,-3.8894,-1.5263,12.1913,1452,2931.12
24959,-2.7952,2.235,8.6419,1467,2931.26
24964,2.0686,3.7625,10.1933,1453,2931.26
24969,0.3903,1.4772,12.1913,1451,2931.26
24974,-3.4895,-1.6688,12.3577,1455,2931.26
24979,-3.5159,2.1332,8.8442,1463,2930.83
24984,2.0051,3.6655,9.9707,1448,2930.83
24989,1.2103,1.889,12.0033,1461,2930.83
24994,-3.0143,-1.5646,12.5289,1447,2930.83
24999,-4.1108,1.9106,9.1351,1451,2930.83
25004,1.8783,3.5686,9.7636,1465,2930.69
25009,2.0159,2.2338,11.7831,1463,2930.69
25014,-2.4948,-1.488,12.6294,1446,2930.69
25019,-4.5969,1.5766,9.4344,1461,2930.69
25024,1.6855,3.3579,9.4631,1461,2931.12
25029,2.5642,2.5714,11.4886,1449,2931.12
25034,-2.2254,-1.2462,12.8066,1443,2931.12
25039,-4.9775,1.2318,9.8821,1458,2931.12
25044,1.3587,3.2226,9.238,1463,2930.69
25049,2.8096,2.9736,11.3078,1449,2930.69
25062,-1.9201,-0.9385,12.8497,1467,2930.83
25065,0.9086,3.0299,8.9423,1449,2930.83
25070,2.8671,3.3303,11.1821,1450,2930.83
25075,-1.8064,-0.5124,12.8904,1443,2930.83
25080,-5.2182,0.4477,10.6973,1451,2930.83
25085,0.4788,2.9652,8.7364,1467,2930.83
25090,2.824,3.6571,10.963,1453,2930.83
25095,-1.6424,-0.067,12.7527,1449,2930.83
25100,-5.0649,-0.0503,11.0289,1465,2930.83
25105,-0.0587,2.8276,8.6095,1467,2931.12
25110,2.7019,3.8295,10.7344,1450,2931.12
25115,-1.403,0.3364,12.7312,1445,2931.12
25120,-4.8183,-0.48,11.4,1460,2931.12
25125,-0.7458,2.6815,8.4934,1461,2931.26
25130,2.5426,3.875,10.5034,1449,2931.26
25135,-1.087,0.5806,12.6402,1449,2931.26
25140,-4.5155,-1.0283,11.6981,1449,2931.26
25145,-1.5167,2.5103,8.4647,1481,2931.41
25150,2.332,3.8068,10.3549,1449,2931.41
25155,-0.6835,0.8978,12.5073,1447,2931.41
25160,-4.1851,-1.3168,11.9794,1450,2931.41
25165,-2.314,2.3595,8.5509,1483,2931.55
25170,2.1632,3.8235,10.2568,1449,2931.55
25175,-0.0383,1.1839,12.2739,1451,2931.55
25180,-3.7804,-1.5048,12.2918,1437,2931.55
25185,-3.0179,2.2482,8.6826,1485,2931.98
25190,2.0423,3.7745,10.0712,1460,2931.98
25195,0.6991,1.5395,12.1147,1451,2931.98
25200,-3.3902,-1.5886,12.4403,1453,2931.98
25205,-3.6631,2.0722,8.8837,1483,2931.83
25210,1.962,3.6129,9.8557,1449,2931.83
25215,1.4988,1.9752,12.0033,1453,2931.83
25220,-2.9113,-1.5754,12.6498,1440,2931.83
25225,-4.2473,1.822,9.1961,2238,2930.83
25230,1.828,3.4979,9.5816,1461,2930.83
25235,2.1895,2.3248,11.7555,1451,2930.83
25240,-2.484,-1.4377,12.6581,1449,2930.83
25245,-4.6675,1.5646,9.5074,1465,2930.83
25250,1.5802,3.3435,9.4224,1453,2933.12
25255,2.6228,2.6803,11.5448,1451,2933.12
25260,-2.0949,-1.2246,12.7767,1439,2933.12
25265,-5.0075,1.2007,9.9144,1456,2933.12
25270,1.2857,3.1687,9.1674,1456,2932.12
25275,2.8467,2.9999,11.2312,1451,2932.12
25280,-1.8447,-0.8487,12.7826,1451,2932.12
25285,-5.1966,0.7901,10.3382,1451,2932.12
25290,0.8667,3.0897,8.983,1463,2931.98
25295,2.8838,3.3974,11.0636,1448,2931.98
25300,-1.7214,-0.3615,12.8964,1447,2931.98
25305,-5.1882,0.3615,10.7045,1453,2931.98
25310,0.3579,2.9425,8.7352,1467,2932.26
25315,2.8216,3.6308,10.8852,1451,2932.26
25320,-1.555,0.0012,12.8401,1447,2932.26
25325,-5.0314,-0.1053,11.1187,1449,2932.26
25330,-0.2083,2.7952,8.5617,1465,2932.55
25335,2.7222,3.8128,10.6889,1450,2932.55
25340,-1.3755,0.3029,12.6833,1448,2932.55
25345,-4.7585,-0.5938,11.4551,1460,2932.55
25350,-0.8092,2.6145,8.3977,1485,2932.55
25355,2.5678,3.8571,10.5884,1447,2932.55
25360,-1.0834,0.5926,12.5073,1451,2932.55
25365,-4.47,-0.9888,11.7843,1451,2932.55
25370,-1.567,2.4588,8.4611,1484,2932.69
25375,2.3116,3.875,10.4591,1454,2932.69
25380,-0.6871,0.8559,12.39,1447,2932.69
25385,-4.1444,-1.3707,11.9878,1451,2932.69
25390,-2.3463,2.332,8.5042,1485,2932.69
25395,2.1476,3.8104,10.228,1453,2932.69
25400,-0.0347,1.2546,12.3433,1443,2932.69
25405,-3.7876,-1.5658,12.2775,1451,2932.69
25410,-3.0598,2.2182,8.7137,1487,2933.12
25415,2.0686,3.7613,10.0365,1453,2933.12
25420,0.7757,1.6185,12.1542,1449,2933.12
25425,-3.3076,-1.6496,12.4894,1456,2933.12
25430,-3.6978,2.0602,8.9627,1486,2933.27
25435,1.9561,3.6595,9.8605,1450,2933.27
25440,1.5969,1.9321,11.9483,1456,2933.27
25445,-2.9281,-1.579,12.6426,1449,2933.27
25450,-4.282,1.8316,9.1447,1451,2933.27
25455,1.8352,3.4848,9.6127,1463,2933.7
25460,2.2625,2.2924,11.7208,1449,2933.7
25465,-2.5319,-1.4413,12.7623,1450,2933.7
25470,-4.6855,1.482,9.517,1455,2933.7
25475,1.6101,3.3088,9.3529,1455,2934.13
25480,2.7102,2.6839,11.5436,1449,2934.13
25485,-2.1907,-1.1851,12.8018,1445,2934.13
25490,-4.9967,1.154,9.8462,1455,2934.13
25495,1.2737,3.1723,9.1255,1465,2933.99
25500,2.8862,3.0406,11.3677,1449,2933.99
25505,-1.9321,-0.8475,12.8796,1454,2933.99
25510,-5.1703,0.8224,10.3082,1449,2933.99
25515,0.9062,3.1101,8.9783,1461,2933.84
25520,2.9269,3.3854,11.1247,1452,2933.84
25525,-1.6903,-0.4429,12.8138,1445,2933.84
25530,-5.1858,0.4262,10.7548,1453,2933.84
25535,0.4058,2.9676,8.7867,1468,2934.13
25540,2.8898,3.5913,10.835,1451,2934.13
25545,-1.5443,-0.0347,12.8569,1447,2934.13
25550,-5.0566,-0.0299,11.0456,1453,2934.13
25555,-0.1329,2.8802,8.5868,1465,2934.27
25560,2.7402,3.7577,10.5824,1451,2934.27
25565,-1.3874,0.2969,12.791,1439,2934.27
25570,-4.8614,-0.5327,11.4072,1465,2934.27
25575,-0.7889,2.6444,8.4827,1492,2934.27
25580,2.563,3.8535,10.4866,1448,2934.27
25585,-1.1325,0.5746,12.6174,1449,2934.27
25590,-4.531,-0.9697,11.6861,1448,2934.27
25595,-1.4748,2.4948,8.3857,1479,2934.42
25600,2.3786,3.8523,10.3729,1449,2934.42
25605,-0.6907,0.8464,12.4858,1449,2934.42
25610,-4.227,-1.2809,12.0129,1451,2934.42
25615,-2.1871,2.3715,8.4827,1483,2934.27
25620,2.162,3.863,10.2568,1452,2934.27
25625,-0.1784,1.1648,12.3589,1449,2934.27
25630,-3.8295,-1.5179,12.2535,1449,2934.27
25635,-2.8898,2.2541,8.588,1469,2934.42
25640,2.0949,3.8152,10.1418,1454,2934.42
25645,0.5495,1.5215,12.1697,1447,2934.42
25650,-3.4632,-1.5826,12.4151,1459,2934.42
25655,-3.5015,2.1261,8.8609,1483,2934.7
25660,2.0399,3.6847,9.918,1448,2934.7
25665,1.3551,1.8543,12.0153,1451,2934.7
25670,-3.0059,-1.6472,12.5528,1447,2934.7
25675,-4.13,1.8615,9.1243,1463,2934.56
25680,1.8986,3.5769,9.6905,1447,2934.56
25685,2.1057,2.2146,11.8609,1452,2934.56
25690,-2.5917,-1.5191,12.6665,1448,2934.56
25695,-4.6208,1.6113,9.3757,1450,2934.56
25700,1.6951,3.3758,9.3889,1459,2934.7
25705,2.6157,2.551,11.5472,1451,2934.7
25710,-2.247,-1.2953,12.8138,1447,2934.7
25715,-5.0051,1.2977,9.7612,1461,2934.7
25720,1.3216,3.2298,9.2033,1469,2934.85
25725,2.8718,2.9413,11.4634,1449,2934.85
25730,-1.9644,-0.9086,12.8892,1451,2934.85
25735,-5.1679,0.9146,10.1514,1449,2934.85
25740,1.0175,3.1292,8.928,1453,2933.55
25745,2.958,3.3088,11.2384,1451,2933.55
25750,-1.7693,-0.5076,12.8545,1445,2933.55
25755,-5.1715,0.5303,10.5824,1449,2933.55
25760,0.5638,2.9963,8.7736,1469,2932.26
25765,2.9257,3.614,11.0421,1452,2932.26
25770,-1.6233,-0.1281,12.7587,1446,2932.26
25775,-5.0494,0.0922,10.9367,1450,2932.26
25780,0.0515,2.8407,8.6131,1466,2931.98
25785,2.7617,3.7589,10.7607,1453,2931.98
25790,-1.4269,0.1939,12.6965,1445,2931.98
25795,-4.8542,-0.4106,11.327,1453,2931.98
25800,-0.6381,2.7342,8.5293,1483,2931.69
25805,2.5151,3.7972,10.4722,1449,2931.69
25810,-1.1672,0.5447,12.5552,1451,2931.69
25815,-4.6376,-0.8871,11.6669,1450,2931.69
25820,-1.3803,2.5642,8.436,1483,2931.69
25825,2.3535,3.8116,10.404,1451,2931.69
25830,-0.7901,0.8009,12.548,1445,2931.69
25835,-4.2904,-1.2833,11.9279,1451,2931.69
25840,-2.1093,2.4146,8.5258,1483,2931.41
25845,2.1703,3.8654,10.2747,1451,2931.41
25850,-0.2143,1.1636,12.3804,1447,2931.41
25855,-3.8499,-1.4712,12.1769,1449,2931.41
25860,-2.8192,2.2996,8.6143,1461,2931.41
25865,2.1081,3.796,10.1442,1450,2931.41
25870,0.5112,1.4712,12.1817,1447,2931.41
25875,-3.4608,-1.6173,12.4774,1460,2931.41
25880,-3.5183,2.0842,8.764,1466,2931.41
25885,2.0339,3.6931,9.8892,1445,2931.41
25890,1.3012,1.8232,12.0273,1455,2931.41
25895,-3.0071,-1.6352,12.6294,1433,2931.41
25900,-4.1288,1.8495,9.1123,1447,2931.41
25905,1.8854,3.5614,9.7217,1461,2931.41
25910,2.0339,2.2278,11.7543,1449,2931.41
25915,-2.5283,-1.5419,12.6941,1445,2931.41
25920,-4.6292,1.5502,9.4236,1455,2931.41
25925,1.6137,3.3854,9.5086,1459,2931.41
25930,2.5558,2.6097,11.5233,1451,2931.41
25935,-2.1691,-1.2953,12.7264,1445,2931.41
25940,-4.9572,1.2103,9.8785,1453,2931.41
25945,1.3467,3.2178,9.1794,1465,2930.98
25950,2.8276,2.9939,11.3198,1449,2930.98
25955,-1.8651,-0.8882,12.736,1450,2930.98
25960,-5.1954,0.8523,10.2723,1445,2930.98
25965,0.9613,3.1029,8.9723,1453,2930.98
25970,2.9305,3.3662,11.0445,1452,2930.98
25975,-1.6939,-0.4429,12.8593,1448,2930.98
25980,-5.1966,0.4334,10.6458,1449,2930.98
25985,0.4764,2.988,8.7484,1471,2931.12
25990,2.9137,3.62,10.884,1447,2931.12
25995,-1.5658,-0.012,12.8174,1447,2931.12
26000,-4.9907,-0.0479,11.0516,1451,2931.12
26005,-0.0814,2.8503,8.5844,1477,2931.41
26010,2.7485,3.7816,10.7272,1453,2931.41
26015,-1.3874,0.2717,12.6821,1445,2931.41
26020,-4.7692,-0.51,11.394,1449,2931.41
26025,-0.7614,2.6647,8.3941,1486,2931.41
26030,2.5379,3.8798,10.574,1451,2931.41
26035,-1.1097,0.5938,12.56,1454,2931.41
26040,-4.5131,-0.9744,11.6849,1451,2931.41
26045,-1.494,2.496,8.4491,1487,2931.69
26050,2.3152,3.8882,10.4148,1457,2931.69
26055,-0.6943,0.9026,12.4666,1449,2931.69
26060,-4.1635,-1.3096,12.0081,1448,2931.69
26065,-2.3188,2.326,8.5629,1492,2931.83
26070,2.1847,3.8176,10.246,1451,2931.83
26075,-0.073,1.2103,12.2619,1447,2931.83
26080,-3.8367,-1.5538,12.2583,1453,2931.83
26085,-3.0023,2.2386,8.7604,1482,2931.83
26090,2.047,3.7792,10.0808,1451,2931.83
26095,0.7709,1.5754,12.1817,1451,2931.83
26100,-3.3136,-1.6388,12.4475,1453,2931.83
26105,-3.6883,2.0578,8.928,1485,2932.12
26110,2.0267,3.644,9.8186,1449,2932.12
26115,1.573,1.9285,11.9519,1461,2932.12
26120,-2.8766,-1.5838,12.6414,1449,2932.12
26125,-4.2365,1.8435,9.2057,1447,2932.12
26130,1.8088,3.5111,9.5565,1467,2932.12
26135,2.223,2.3487,11.7926,1455,2932.12
26140,-2.5031,-1.4425,12.7443,1445,2932.12
26145,-4.7262,1.4736,9.4894,1455,2932.12
26150,1.5874,3.3088,9.3553,1459,2931.83
26155,2.6468,2.7043,11.5975,1450,2931.83
26160,-2.1943,-1.1672,12.7814,1447,2931.83
26165,-5.0111,1.1576,9.8857,1453,2931.83
26170,1.2186,3.1663,9.1291,1462,2931.26
26175,2.9137,3.0945,11.3102,1450,2931.26
26180,-1.8962,-0.7889,12.8425,1449,2931.26
26185,-5.1667,0.759,10.3226,1451,2931.26
26190,0.8583,3.0837,9.007,1461,2931.12
26195,2.9497,3.4058,11.0516,1453,2931.12
26200,-1.6652,-0.3998,12.7814,1453,2931.12
26205,-5.1344,0.3663,10.7715,1452,2931.12
26210,0.3436,2.9556,8.7448,1469,2931.12
26215,2.8096,3.7062,10.7691,1451,2931.12
26220,-1.5,0.0263,12.7407,1445,2931.12
26225,-4.9692,-0.1712,11.1881,1455,2931.12
26230,-0.2693,2.7976,8.5796,1479,2931.55
26235,2.6133,3.7781,10.5776,1449,2931.55
26240,-1.3216,0.3579,12.6725,1447,2931.55
26245,-4.7274,-0.6608,11.4251,1455,2931.55
26250,-0.9254,2.6013,8.3989,1485,2931.55
26255,2.4672,3.8547,10.5153,1449,2931.55
26260,-1.0259,0.6297,12.5923,1451,2931.55
26265,-4.4532,-1.0379,11.8022,1450,2931.55
26270,-1.6783,2.4612,8.4575,1464,2931.83
26275,2.2936,3.8487,10.3358,1459,2931.83
26280,-0.6129,0.9649,12.378,1447,2931.83
26285,-4.1336,-1.3635,12.0464,1447,2931.83
26290,-2.4062,2.3296,8.5401,1471,2931.83
26295,2.1584,3.8355,10.2161,1453,2931.83
26300,0.0503,1.2905,12.2846,1449,2931.83
26305,-3.6619,-1.5634,12.3529,1459,2931.83
26310,-3.0897,2.1464,8.6538,1483,2932.26
26315,2.0925,3.7781,10.0916,1449,2932.26
26320,0.8368,1.6101,12.0883,1452,2932.26
26325,-3.2525,-1.6424,12.4834,1447,2932.26
26330,-3.7637,1.9824,8.9842,1487,2931.83
26335,2.0016,3.6787,9.9,1449,2931.83
26340,1.6316,2.0554,11.8812,1455,2931.83
26345,-2.7737,-1.6245,12.6318,1451,2931.83
26350,-4.3024,1.7777,9.2344,1449,2931.83
26355,1.798,3.4608,9.5876,1465,2932.84
26360,2.32,2.3727,11.6502,1453,2932.84
26365,-2.3966,-1.4497,12.6929,1447,2932.84
26370,-4.7764,1.5071,9.6319,1459,2932.84
26375,1.561,3.3339,9.3565,1463,2932.69
26380,2.7533,2.7665,11.4503,1450,2932.69
26385,-2.0961,-1.1815,12.8162,1448,2932.69
26390,-5.0973,1.1181,9.9252,1448,2932.69
26395,1.2474,3.1532,9.0429,1463,2931.83
26400,2.9485,3.1173,11.2911,1451,2931.83
26405,-1.8902,-0.7219,12.9227,1445,2931.83
26410,-5.1763,0.7195,10.4267,1451,2931.83
26415,0.8535,3.0466,8.8777,1470,2931.55
26420,2.9509,3.4943,11.0947,1453,2931.55
