timestamp_ms,ax,ay,az,acs_adc,rpm
13344,1.4892,2.6827,10.8565,1469,2789.66
13349,-1.1684,-0.8033,12.0225,1462,2789.66
13354,-4.057,0.3651,10.7344,1464,2789.66
13359,0.3065,2.7713,9.8126,1485,2790.96
13364,1.9872,3.6129,10.4531,1477,2790.96
13369,-1.9297,0.3998,11.8166,1469,2790.96
13374,-3.7697,-0.5171,11.5604,1471,2790.96
13379,-0.9924,2.5343,9.6199,1501,2791.87
13384,1.8986,3.9109,10.3334,1477,2791.87
13389,-1.8687,1.4114,11.394,1467,2791.87
13394,-2.3595,-1.1253,11.9854,1464,2791.87
13399,-2.7473,1.7538,9.7564,1467,2791.87
13404,1.4269,3.3938,10.1251,1481,2792.39
13409,0.6835,2.3499,10.9954,1466,2792.39
13414,-1.4234,-1.1588,12.1135,1466,2792.39
13419,-3.9828,0.8033,10.4267,1469,2792.39
13424,0.814,2.9856,9.9611,1495,2792.39
13429,2.0183,3.4069,10.556,1467,2792.39
13434,-1.652,-0.0455,11.9578,1463,2792.39
13439,-3.8439,-0.1867,11.248,1465,2792.39
13444,-0.4262,2.6683,9.6618,1503,2792.39
13449,1.9261,3.8714,10.2975,1477,2792.39
13454,-2.1057,1.0391,11.552,1462,2792.39
13459,-2.9904,-1.057,11.8788,1471,2792.39
13464,-2.1536,2.0411,9.5984,1507,2792.52
13469,1.6891,3.6021,10.246,1466,2792.52
13474,-0.3352,1.9273,11.1055,1465,2792.52
13479,-1.7418,-1.3001,12.0572,1462,2792.52
13484,-3.7649,1.227,10.1442,1477,2792.52
13489,1.154,3.1591,10.0904,1483,2792.78
13494,1.81,3.0179,10.7105,1471,2792.78
13499,-1.2761,-0.5052,12.0799,1467,2792.78
13504,-4.0749,0.1269,10.9427,1469,2792.78
13509,0.1041,2.7354,9.7839,1485,2793.04
13514,2.0171,3.7254,10.3178,1468,2793.04
13519,-2.1751,0.65,11.7591,1465,2793.04
13524,-3.3627,-0.7434,11.6825,1467,2793.04
13529,-1.4964,2.3571,9.6151,1503,2793.17
13534,1.7131,3.7816,10.2615,1471,2793.17
13539,-1.2713,1.6245,11.3449,1467,2793.17
13544,-2.1679,-1.1911,12.0931,1468,2793.17
13549,-3.1915,1.646,9.8964,1479,2793.17
13554,1.4126,3.3279,10.137,1481,2793.69
13559,1.2558,2.5582,10.8828,1464,2793.69
13564,-1.2139,-0.9182,12.0883,1463,2793.69
13569,-3.9684,0.516,10.6195,1464,2793.69
13574,0.4633,2.8431,9.9204,1501,2794.21
13579,1.9501,3.5183,10.4782,1467,2794.21
13584,-1.7334,0.2095,11.8908,1477,2794.21
13589,-3.9935,-0.4681,11.4132,1471,2794.21
13594,-0.7578,2.569,9.6414,1501,2794.73
13599,1.9668,3.9181,10.3166,1469,2794.73
13604,-2.0806,1.2438,11.4958,1463,2794.73
13609,-2.6193,-1.0594,11.9746,1479,2794.73
13614,-2.5235,1.9405,9.7013,1487,2795.38
13619,1.5383,3.4788,10.1766,1479,2795.38
13624,0.3172,2.059,11.0133,1471,2795.38
13629,-1.47,-1.2797,12.1063,1465,2795.38
13634,-3.869,0.9541,10.2232,1465,2795.38
13639,0.8272,3.0538,10.0784,1481,2795.77
13644,1.9273,3.1975,10.6303,1468,2795.77
13649,-1.403,-0.2526,12.0117,1462,2795.77
13654,-4.1575,0.0479,11.0995,1477,2795.77
13659,-0.0802,2.7402,9.7504,1499,2796.03
13664,2.0602,3.8008,10.3525,1479,2796.03
13669,-2.2338,0.8416,11.6526,1461,2796.03
13674,-3.2645,-0.8523,11.7795,1471,2796.03
13679,-1.7609,2.1847,9.5134,1484,2796.16
13684,1.7777,3.7373,10.2412,1462,2796.16
13689,-0.9038,1.7107,11.224,1471,2796.16
13694,-1.9968,-1.2546,12.0668,1465,2796.16
13699,-3.4453,1.4317,9.9575,1479,2796.16
13704,1.2474,3.2417,10.1478,1485,2797.2
13709,1.506,2.721,10.8457,1467,2797.2
13714,-1.2773,-0.7254,12.1135,1468,2797.2
13719,-4.0294,0.4417,10.7105,1465,2797.2
13724,0.3747,2.8862,9.7887,1484,2796.94
13729,2.0734,3.5937,10.4327,1469,2796.94
13734,-1.9357,0.3089,11.898,1469,2796.94
13739,-3.7194,-0.5447,11.5041,1469,2796.94
13744,-1.0116,2.4672,9.56,1501,2797.2
13749,1.8543,3.8403,10.3561,1477,2797.2
13754,-1.9249,1.3084,11.4299,1463,2797.2
13759,-2.5211,-1.1037,12.0105,1462,2797.2
13764,-2.7294,1.8878,9.73,1469,2797.2
13769,1.4844,3.5063,10.2376,1483,2797.2
13774,0.5974,2.2769,10.993,1467,2797.2
13779,-1.4509,-1.0894,12.1494,1465,2797.2
13784,-3.9588,0.9194,10.2747,1465,2797.2
13789,0.929,3.0287,10.0293,1491,2797.99
13794,2.0219,3.2453,10.5716,1468,2797.99
13799,-1.5598,-0.243,11.9842,1463,2797.99
13804,-3.9648,-0.0934,11.1163,1470,2797.99
13809,-0.3304,2.6983,9.6989,1501,2798.25
13814,1.8854,3.8523,10.3298,1479,2798.25
13819,-2.2146,0.9397,11.6669,1461,2798.25
13824,-3.1639,-0.8272,11.8321,1477,2798.25
13829,-1.8998,2.247,9.5361,1485,2798.38
13834,1.7741,3.7493,10.1538,1463,2798.38
13839,-0.6237,1.7202,11.2097,1467,2798.38
13844,-1.9297,-1.336,12.0979,1467,2798.38
13849,-3.5398,1.3683,9.9431,1477,2798.38
13854,1.312,3.2106,10.1634,1485,2799.03
13859,1.5826,2.7318,10.8074,1471,2799.03
13864,-1.3659,-0.7841,12.0871,1469,2799.03
13869,-4.0725,0.3962,10.7524,1465,2799.03
13874,0.2897,2.8587,9.815,1479,2798.9
13879,2.0147,3.638,10.477,1465,2798.9
13884,-1.8878,0.4405,11.8561,1467,2798.9
13889,-3.7493,-0.486,11.5401,1469,2798.9
13894,-0.9936,2.4912,9.5541,1504,2799.42
13899,1.9728,3.8654,10.3082,1479,2799.42
13904,-1.8352,1.2929,11.3413,1467,2799.42
13909,-2.4624,-1.221,11.9914,1461,2799.42
13914,-2.7641,1.7753,9.7061,1464,2799.42
13919,1.409,3.4584,10.2747,1484,2799.68
13924,0.6309,2.2649,11.0049,1469,2799.68
13929,-1.4916,-1.1157,12.1314,1467,2799.68
13934,-3.9792,0.9325,10.3597,1467,2799.68
13939,0.82,3.0382,9.9886,1493,2800.21
13944,2.0842,3.2609,10.5704,1464,2800.21
13949,-1.4485,-0.1389,12.0345,1460,2800.21
13954,-4.1025,-0.1089,11.1247,1470,2800.21
13959,-0.2011,2.6384,9.6678,1501,2800.47
13964,2.0315,3.8188,10.3418,1478,2800.47
13969,-2.2015,0.905,11.7029,1461,2800.47
13974,-3.2573,-0.8954,11.7819,1478,2800.47
13979,-1.8806,2.211,9.5529,1484,2800.6
13984,1.8328,3.6966,10.2999,1464,2800.6
13989,-0.7745,1.7717,11.23,1469,2800.6
13994,-1.9549,-1.2414,12.1171,1464,2800.6
13999,-3.3746,1.4305,9.9359,1481,2800.6
14004,1.2127,3.2765,10.1801,1485,2800.99
14009,1.5993,2.7629,10.8326,1468,2800.99
14014,-1.2989,-0.7673,12.074,1466,2800.99
14019,-4.0474,0.3687,10.7117,1463,2800.99
14024,0.34,2.8096,9.7588,1481,2800.86
14029,1.9764,3.6129,10.4303,1464,2800.86
14034,-2.0435,0.3543,11.8501,1467,2800.86
14039,-3.6799,-0.5028,11.5544,1467,2800.86
14044,-1.0295,2.5199,9.5349,1500,2801.12
14049,1.919,3.8894,10.2867,1479,2801.12
14054,-1.7514,1.33,11.4299,1467,2801.12
14059,-2.6995,-1.1768,-0.0012,1463,2801.12
14064,-2.7414,1.901,9.6786,1465,2801.12
14069,1.67,3.4764,10.2699,1479,2800.99
14074,0.5339,2.1272,11.0373,1477,2800.99
14079,-1.5119,-1.2462,12.1266,1465,2800.99
14084,-3.9923,0.9768,10.2149,1467,2800.99
14089,0.9481,3.037,10.0533,1492,2801.12
14094,2.0207,3.2154,10.556,1465,2801.12
14099,-1.4688,-0.2143,12.0787,1461,2801.12
14104,-4.1264,-0.0156,11.1306,1469,2801.12
14109,-0.1257,2.7258,9.73,1497,2801.12
14114,2.0865,3.8535,10.3394,1469,2801.12
14119,-2.2697,0.844,11.6981,1463,2801.12
14124,-3.2034,-0.8296,11.7304,1479,2801.12
14129,-1.8076,2.2302,9.5577,1487,2800.21
14134,1.743,3.7086,10.2232,1465,2800.21
14139,-0.8272,1.719,11.2671,1479,2800.21
14144,-2.0913,-1.342,12.1458,1465,2800.21
14149,-3.4895,1.494,9.8809,1485,2800.21
14154,1.3575,3.286,10.1406,1487,2801.77
14159,1.5311,2.6671,10.817,1469,2801.77
14164,-1.3886,-0.8248,12.0716,1469,2801.77
14169,-4.0989,0.4717,10.6614,1467,2801.77
14174,0.4525,2.9006,9.8557,1483,2801.25
14179,2.1093,3.6152,10.4615,1467,2801.25
14184,-1.7992,0.3196,11.8764,1467,2801.25
14189,-3.8678,-0.4872,11.4132,1469,2801.25
14194,-0.8679,2.551,9.5445,1497,2801.25
14199,1.9465,3.8738,10.2975,1479,2801.25
14204,-1.962,1.2234,11.4958,1467,2801.25
14209,-2.7605,-1.142,11.9818,1465,2801.25
14214,-2.5941,1.962,9.6822,1471,2801.25
14219,1.6293,3.5602,10.2292,1483,2801.25
14224,0.3735,2.144,11.0528,1471,2801.25
14229,-1.5359,-1.142,12.0955,1463,2801.25
14234,-3.8235,1.0008,10.2041,1465,2801.25
14239,0.8906,3.0454,10.0197,1493,2801.12
14244,1.9908,3.0945,10.6877,1465,2801.12
14249,-1.3791,-0.3232,12.0668,1454,2801.12
14254,-4.2066,-0.0012,11.0229,1469,2801.12
14259,-0.0132,2.7438,9.7528,1496,2801.12
14264,2.0518,3.7924,10.3154,1479,2801.12
14269,-2.2362,0.7865,11.7519,1461,2801.12
14274,-3.4369,-0.8045,11.7507,1471,2801.12
14279,-1.664,2.3176,9.5888,1495,2801.12
14284,1.901,3.7757,10.2544,1466,2801.12
14289,-1.0319,1.6544,11.2719,1479,2801.12
14294,-2.1153,-1.3024,12.0632,1465,2801.12
14299,-3.3722,1.5179,9.8222,1477,2801.12
14304,1.3874,3.2872,10.1275,1484,2801.25
14309,1.4341,2.5869,10.8709,1468,2801.25
14314,-1.3503,-0.8859,12.1075,1467,2801.25
14319,-4.1575,0.5698,10.5752,1463,2801.25
14324,0.5686,2.885,9.9036,1483,2801.25
14329,2.1045,3.5362,10.5177,1471,2801.25
14334,-1.9369,0.2502,11.9195,1467,2801.25
14339,-3.7493,-0.3567,11.4227,1469,2801.25
14344,-0.7901,2.563,9.6115,1499,2801.51
14349,1.8806,3.9133,10.2843,1471,2801.51
14354,-1.9944,1.2294,11.497,1465,2801.51
14359,-1.8914,-1.3491,12.0728,1467,2801.51
14364,-2.5307,1.9429,9.6271,1469,2801.51
14369,1.1456,3.213,10.1155,1490,2801.25
14374,0.2454,2.0435,11.078,1469,2801.25
14379,-1.3731,-0.7123,12.0835,1464,2801.25
14384,-4.0606,0.3687,10.7464,1466,2801.25
14389,0.3591,2.8934,9.833,1477,2801.64
14394,2.1057,3.6823,10.3968,1464,2801.64
14399,-1.8914,0.4298,11.898,1463,2801.64
14404,-3.7757,-0.5794,11.4431,1477,2801.64
14409,-1.0223,2.5199,9.5756,1501,2801.64
14414,1.9668,3.8271,10.2723,1471,2801.64
14419,-1.8136,1.3192,11.4419,1464,2801.64
14424,-2.6169,-1.2055,12.0045,1467,2801.64
14429,-2.7785,1.8771,9.7276,1493,2801.77
14434,1.5287,3.4608,10.2053,1467,2801.77
14439,0.6081,2.2338,11.0696,1480,2801.77
14444,-1.506,-1.1181,12.129,1467,2801.77
14449,-3.9552,0.8966,10.2687,1480,2801.77
14454,0.8404,3.0335,9.9491,1483,2802.3
14459,2.0375,3.1771,10.6291,1464,2802.3
14464,-1.5359,-0.1903,12.0488,1463,2802.3
14469,-3.9923,-0.1197,11.0445,1465,2802.3
14474,-0.2274,2.6528,9.657,1491,2802.69
14479,1.9908,3.7972,10.3298,1469,2802.69
14484,-2.2278,0.8464,11.6921,1466,2802.69
14489,-3.2394,-0.8799,11.7579,1469,2802.69
14494,-1.798,2.2529,9.5373,1497,2802.69
14499,1.7885,3.7828,10.2783,1468,2802.69
14504,-0.8284,1.7059,11.2994,1463,2802.69
14509,-1.9716,-1.2809,12.1206,1479,2802.69
14514,-3.4249,1.4485,9.8725,1483,2802.56
14519,1.2558,3.2609,10.1406,1471,2802.56
14524,1.5778,2.5762,10.7978,1477,2802.56
14529,-1.3479,-0.8428,12.0835,1465,2802.56
14534,-4.1515,0.4381,10.6183,1467,2802.56
14539,0.4405,2.9161,9.8809,1471,2803.21
14544,2.0782,3.5638,10.483,1469,2803.21
14549,-1.9297,0.3352,11.9818,1465,2803.21
14554,-3.7685,-0.4334,11.394,1469,2803.21
14559,-0.8703,2.5498,9.5445,1501,2802.82
14564,1.9728,3.8379,10.2795,1471,2802.82
14569,-1.9501,1.2222,11.4922,1463,2802.82
14574,-2.7031,-1.1265,11.9399,1464,2802.82
14579,-2.5953,1.9297,9.6881,1485,2802.56
14584,1.5754,3.5027,10.1993,1471,2802.56
14589,0.328,2.0949,11.1223,1479,2802.56
14594,-1.5886,-1.2725,12.135,1465,2802.56
14599,-3.8702,0.9852,10.2208,1481,2802.56
14604,0.9948,3.0718,10.0377,1481,2803.87
14609,1.9908,3.1232,10.6805,1464,2803.87
14614,-1.4617,-0.3196,12.1242,1480,2803.87
14619,-4.1156,0.0682,11.0133,1469,2803.87
14624,-0.0096,2.7916,9.6486,1485,2804.0
14629,2.0279,3.8128,10.3513,1467,2804.0
14634,-2.2218,0.723,11.7735,1467,2804.0
14639,-3.3806,-0.7661,11.6693,1466,2804.0
14644,-1.5634,2.3032,9.5517,1499,2803.74
14649,1.7765,3.7804,10.3118,1471,2803.74
14654,-1.1624,1.5718,11.3246,1469,2803.74
14659,-2.2625,-1.2893,12.0943,1478,2803.74
14664,-3.2453,1.5862,9.809,1507,2803.61
14669,1.4317,3.3615,10.1574,1467,2803.61
14674,1.2617,2.4948,10.8816,1477,2803.61
14679,-1.4006,-0.9062,12.1745,1461,2803.61
14684,-4.0689,0.6273,10.4782,1470,2803.61
14689,0.571,2.9449,9.9395,1482,2803.61
14694,2.1057,3.4465,10.5141,1479,2803.61
14699,-1.6939,0.1101,11.9794,1466,2803.61
14704,-4.0498,-0.3867,11.321,1469,2803.61
14709,-0.5986,2.6145,9.5924,1507,2803.35
14714,1.9668,3.8702,10.2915,1467,2803.35
14719,-2.2146,1.0834,11.5915,1469,2803.35
14724,-2.9173,-1.0116,11.9028,1471,2803.35
14729,-2.3296,2.0818,9.6355,1496,2803.61
14734,1.6448,3.6667,10.234,1471,2803.61
14739,-0.0287,1.9597,11.1594,1479,2803.61
14744,-1.7382,-1.2474,12.1362,1465,2803.61
14749,-3.7206,1.1732,10.1011,1467,2803.61
14754,1.0834,3.1352,10.0736,1471,2803.61
14759,1.8747,2.9509,10.7679,1468,2803.61
14764,-1.3755,-0.5806,12.0656,1466,2803.61
14769,-4.1252,0.2167,10.8086,1470,2803.61
14774,0.1221,2.7916,9.7049,1493,2803.61
14779,2.0423,3.7589,10.4232,1469,2803.61
14784,-2.1416,0.6021,11.8501,1461,2803.61
14789,-3.5733,-0.6225,11.5784,1467,2803.61
14794,-1.2641,2.4074,9.5505,1499,2803.61
14799,1.9082,3.8176,10.2819,1471,2803.61
14804,-1.4617,1.4437,11.3006,1463,2803.61
14809,-2.381,-1.245,12.0572,1471,2803.61
14814,-2.9975,1.6771,9.7839,1503,2803.87
14819,1.4186,3.3914,10.2639,1464,2803.87
14824,0.972,2.3559,11.0085,1471,2803.87
14829,-1.506,-1.0738,12.1733,1467,2803.87
14834,-4.0893,0.8164,10.3334,1481,2803.87
14839,0.8332,3.0155,9.985,1480,2804.0
14844,2.1536,3.3758,10.5596,1472,2804.0
14849,-1.6101,-0.0515,12.0416,1465,2804.0
14854,-4.0139,-0.1389,11.2085,1465,2804.0
14859,-0.2981,2.6612,9.6558,1472,2803.87
14864,2.0135,3.8355,10.2927,1467,2803.87
14869,-2.1919,0.9685,11.6789,1467,2803.87
14874,-3.1639,-0.9589,11.8202,1469,2803.87
14879,-1.9992,2.1536,9.5062,1510,2802.43
14884,1.7705,3.6272,10.2508,1477,2802.43
14889,-0.5543,1.8124,11.2468,1469,2802.43
14894,-1.9728,-1.245,12.1637,1461,2802.43
14899,-3.5326,1.4162,10.0281,1467,2802.43
14904,1.2522,3.2298,10.149,1480,2802.56
14909,1.6843,2.8419,10.7739,1467,2802.56
14914,-1.3563,-0.674,12.1159,1467,2802.56
14919,-4.0618,0.3268,10.7248,1464,2802.56
14924,0.3496,2.7988,9.809,1487,2802.43
14929,2.0674,3.6176,10.4543,1463,2802.43
14934,-2.0123,0.3926,11.8932,1461,2802.43
14939,-3.735,-0.5722,11.552,1469,2802.43
14944,-1.0451,2.4864,9.5373,1497,2802.3
14949,1.8938,3.8654,10.3238,1471,2802.3
14954,-1.7837,1.342,11.4263,1461,2802.3
14959,-2.6193,-1.1265,12.0021,1469,2802.3
14964,-2.7438,1.8495,9.6606,1499,2802.56
14969,1.5814,3.4967,10.2244,1463,2802.56
14974,0.6728,2.1512,11.0301,1471,2802.56
14979,-1.4964,-1.1408,12.1326,1462,2802.56
14984,-3.9337,0.899,10.2508,1471,2802.56
14989,0.8499,2.9928,10.0305,1483,2802.69
14994,2.0051,3.1963,10.6099,1465,2802.69
14999,-1.573,-0.2705,12.0476,1468,2802.69
15004,-4.1168,-0.0467,11.0756,1465,2802.69
15009,-0.1389,2.721,9.7085,1483,2802.82
15014,2.0219,3.8762,10.2723,1469,2802.82
15019,-2.1715,0.8631,11.6514,1469,2802.82
15024,-3.3243,-0.8392,11.7687,1471,2802.82
15029,-1.7478,2.2494,9.5541,1495,2802.3
15034,1.8136,3.7122,10.2771,1480,2802.3
15039,-0.82,1.6364,11.2635,1467,2802.3
15044,-2.0602,-1.3216,12.1111,1471,2802.3
15049,-3.4189,1.4293,9.8749,1467,2802.3
15054,1.2175,3.231,10.1634,1490,2801.91
15059,1.488,2.6372,10.8206,1469,2801.91
15064,-1.4042,-0.8416,12.1841,1466,2801.91
15069,-4.1791,0.5291,10.635,1464,2801.91
15074,0.5818,2.8958,9.8809,1481,2801.77
15079,2.1608,3.5841,10.5285,1467,2801.77
15084,-2.0494,0.2861,11.9112,1461,2801.77
15089,-3.6943,-0.3639,11.4539,1479,2801.77
15094,-0.8404,2.5091,9.5457,1496,2802.04
15099,1.8854,3.8295,10.2771,1479,2802.04
15104,-1.8675,1.2594,11.4395,1465,2802.04
15109,-2.8371,-1.2139,11.9447,1468,2802.04
15114,-2.6133,1.9597,9.6007,1495,2802.43
15119,1.6209,3.5386,10.2939,1468,2802.43
15124,0.3496,2.0746,11.1163,1479,2802.43
15129,-1.6005,-1.2007,12.1099,1465,2802.43
15134,-3.784,1.0654,10.1658,1479,2802.43
15139,0.9373,3.1005,10.0389,1483,2802.69
15144,2.0291,3.1137,10.7368,1465,2802.69
15149,-1.3862,-0.3172,12.0716,1459,2802.69
15154,-4.1922,0.0395,10.9954,1466,2802.69
15159,-0.0048,2.727,9.7276,1485,2803.35
15164,2.0638,3.7362,10.3394,1469,2803.35
15169,-2.2972,0.6381,11.7136,1469,2803.35
15174,-3.4022,-0.7697,11.6933,1471,2803.35
15179,-1.6029,2.3703,9.5301,1495,2804.0
15184,1.7669,3.8283,10.2244,1467,2804.0
15189,-1.0247,1.6245,11.376,1464,2804.0
15194,-2.2589,-1.2629,12.0847,1479,2804.0
15199,-3.2932,1.6065,9.7863,1503,2804.39
15204,1.4246,3.2992,10.1622,1477,2804.39
15209,1.3551,2.4876,10.8972,1476,2804.39
15214,-1.4018,-0.9792,12.1997,1461,2804.39
15219,-4.1061,0.6524,10.5584,1463,2804.39
15224,0.6393,2.9497,9.8653,1479,2804.92
15229,2.1213,3.4788,10.5285,1471,2804.92
15234,-1.7394,0.0958,12.0333,1465,2804.92
15239,-4.033,-0.2897,11.3198,1469,2804.92
15244,-0.5136,2.6372,9.5912,1497,2804.92
15249,2.071,3.9157,10.2903,1465,2804.92
15254,-2.162,1.1121,11.5951,1463,2804.92
15259,-2.9904,-1.0104,11.8298,1463,2804.92
15264,-2.235,2.0578,9.5433,1481,2804.79
15269,1.7334,3.5805,10.2592,1469,2804.79
15274,-0.0922,1.9154,11.145,1467,2804.79
15279,-1.8148,-1.2713,12.123,1467,2804.79
15284,-3.7493,1.2222,10.0688,1477,2804.79
15289,1.0499,3.1687,10.1131,1471,2804.79
15294,1.8304,2.9161,10.7919,1464,2804.79
15299,-1.3803,-0.5578,12.1075,1465,2804.79
15304,-4.2258,0.3112,10.8122,1469,2804.79
15309,0.3196,2.8874,9.7767,1483,2804.66
15314,2.1356,3.7218,10.4148,1469,2804.66
15319,-2.2027,0.5207,11.8525,1461,2804.66
15324,-3.5841,-0.6548,11.582,1464,2804.66
15329,-1.2546,2.4014,9.5193,1494,2804.79
15334,1.8304,3.8068,10.258,1471,2804.79
15339,-1.4844,1.4473,11.4658,1465,2804.79
15344,-2.5331,-1.2701,12.0488,1479,2804.79
15349,-2.976,1.8184,9.7217,1495,2805.05
15354,1.5694,3.4357,10.1981,1467,2805.05
15359,0.9433,2.3284,11.0145,1465,2805.05
15364,-1.5143,-1.0367,12.2056,1461,2805.05
15369,-4.0175,0.8763,10.3322,1479,2805.05
15374,0.8284,2.9832,9.9204,1485,2805.05
15379,2.1416,3.2597,10.6135,1477,2805.05
15384,-1.549,-0.1508,12.0811,1468,2805.05
15389,-4.1779,-0.1532,11.1211,1467,2805.05
15394,-0.2705,2.7342,9.6283,1471,2805.44
15399,2.0063,3.8199,10.3705,1465,2805.44
15404,-2.2254,0.9254,11.7328,1471,2805.44
15409,-3.3172,-0.8715,11.795,1467,2805.44
15414,-1.883,2.2494,9.5146,1500,2805.44
15419,1.8352,3.7421,10.2292,1471,2805.44
15424,-0.6141,1.731,11.2671,1467,2805.44
15429,-2.0039,-1.3012,12.1159,1460,2805.44
15434,-3.45,1.4293,9.8749,1467,2805.44
15439,1.2989,3.2082,10.094,1481,2805.05
15444,1.6005,2.6396,10.8326,1469,2805.05
15449,-1.3659,-0.8344,12.1206,1467,2805.05
15454,-4.1815,0.4405,10.5943,1468,2805.05
15459,0.4537,2.9137,9.8438,1485,2804.92
15464,2.1548,3.5973,10.4806,1465,2804.92
15469,-2.0243,0.328,11.9159,1460,2804.92
15474,-3.796,-0.3795,11.4503,1479,2804.92
15479,-0.8799,2.5989,9.5696,1497,2804.79
15484,1.9752,3.8211,10.3082,1478,2804.79
15489,-1.8316,1.245,11.4934,1463,2804.79
15494,-2.7701,-1.1708,11.8956,1467,2804.79
15499,-2.6276,1.9166,9.584,1483,2804.52
15504,1.6233,3.4943,10.2173,1464,2804.52
15509,0.3519,2.0458,11.1294,1471,2804.52
15514,-1.6472,-1.2306,12.1338,1468,2804.52
15519,-3.9025,1.0558,10.2232,1481,2804.52
15524,1.0235,3.0754,10.009,1481,2804.92
15529,2.0147,3.0885,10.665,1461,2804.92
15534,-1.5251,-0.3531,12.1302,1463,2804.92
15539,-4.0689,0.1053,11.0337,1465,2804.92
15544,0.0168,2.7797,9.6726,1487,2804.39
15549,2.0901,3.7517,10.3681,1469,2804.39
15554,-2.0949,0.741,11.7795,1463,2804.39
15559,-3.5243,-0.7673,11.6586,1469,2804.39
15564,-1.5275,2.3367,9.5134,1503,2804.52
15569,1.8519,3.7469,10.2592,1465,2804.52
15574,-1.257,1.5048,11.3832,1463,2804.52
15579,-2.2362,-1.2151,12.0404,1471,2804.52
15584,-3.1987,1.6412,9.7731,1481,2804.26
15589,1.3503,3.3519,10.1778,1471,2804.26
15594,1.2989,2.5163,10.9271,1476,2804.26
15599,-1.3623,-0.8942,12.1817,1463,2804.26
15604,-4.1276,0.6536,10.4459,1463,2804.26
15609,0.7039,2.9389,9.9479,1479,2803.74
15614,2.1272,3.395,10.4938,1477,2803.74
15619,-1.8495,0.0946,12.0201,1465,2803.74
15624,-3.8822,-0.2909,11.2946,1477,2803.74
15629,-0.6333,2.6564,9.5768,1496,2803.61
15634,1.907,3.8499,10.2987,1467,2803.61
15639,-2.083,1.0511,11.625,1465,2803.61
15644,-2.9257,-0.9768,11.8908,1463,2803.61
15649,-2.2601,2.1452,9.566,1497,2803.21
15654,1.7274,3.6488,10.24,1469,2803.21
15659,-0.0395,1.8723,11.1594,1483,2803.21
15664,-1.7466,-1.2749,12.123,1467,2803.21
15669,-3.6404,1.1851,10.0054,1477,2803.21
15674,1.075,3.1388,10.058,1477,2804.52
15679,1.8304,2.8635,10.7607,1467,2804.52
15684,-1.4329,-0.5914,12.1637,1465,2804.52
15689,-4.1611,0.2586,10.835,1471,2804.52
15694,0.1903,2.8276,9.7863,1485,2804.13
15699,2.071,3.6931,10.4423,1471,2804.13
15704,-2.1452,0.5614,11.8094,1467,2804.13
15709,-3.5973,-0.565,11.5628,1464,2804.13
15714,-1.2151,2.4732,9.5062,1491,2804.13
15719,1.9022,3.7984,10.2627,1471,2804.13
15724,-1.5095,1.3803,11.473,1454,2804.13
15729,-2.4948,-1.2701,11.9961,1479,2804.13
15734,-2.9712,1.7561,9.6438,1492,2803.87
15739,1.5443,3.4141,10.2316,1469,2803.87
15744,0.8751,2.2901,11.0301,1479,2803.87
15749,-1.5,-1.0714,12.141,1450,2803.87
15754,-4.0079,0.8667,10.3358,1477,2803.87
15759,0.747,3.0394,10.0018,1481,2803.74
15764,2.065,3.292,10.5764,1477,2803.74
15769,-1.5083,-0.0934,12.0919,1465,2803.74
15774,-4.1037,-0.1341,11.0971,1469,2803.74
15779,-0.2239,2.6863,9.6546,1485,2803.48
15784,2.0853,3.7852,10.3178,1465,2803.48
15789,-2.211,0.8906,11.631,1467,2803.48
15794,-3.2741,-0.9146,11.795,1471,2803.48
15799,-1.9585,2.2206,9.5181,1487,2803.35
15804,1.7945,3.6907,10.2771,1479,2803.35
15809,-0.5758,1.7166,11.248,1479,2803.35
15814,-1.9609,-1.221,12.1147,1461,2803.35
15819,-3.4848,1.3862,9.9647,1461,2803.35
15824,1.1851,3.2346,10.1239,1480,2803.21
15829,1.6759,2.7593,10.8374,1465,2803.21
15834,-1.3767,-0.7254,12.1458,1467,2803.21
15839,-4.0989,0.3687,10.7236,1467,2803.21
15844,0.3974,2.8659,9.8294,1485,2803.35
15849,2.0626,3.5733,10.4651,1465,2803.35
15854,-1.9297,0.3543,11.9387,1463,2803.35
15859,-3.8858,-0.5351,11.4455,1469,2803.35
15864,-0.9445,2.5283,9.5409,1498,2803.61
15869,2.0183,3.8882,10.3453,1471,2803.61
15874,-1.8531,1.2821,11.4898,1463,2803.61
15879,-2.7126,-1.1432,11.9638,1481,2803.61
15884,-2.6827,1.8806,9.566,1497,2803.87
15889,1.6879,3.5111,10.2328,1463,2803.87
15894,0.5686,2.1081,11.0145,1465,2803.87
15899,-1.6173,-1.2151,12.1386,1465,2803.87
15904,-4.0163,0.99,10.1203,1479,2803.87
15909,1.0116,3.0358,10.0473,1479,2804.13
15914,1.9968,3.1208,10.6291,1470,2804.13
15919,-1.6305,-0.3484,12.068,1469,2804.13
15924,-4.0223,0.0467,10.9702,1467,2804.13
15929,-0.1089,2.8,9.7169,1477,2804.13
15934,2.059,3.8008,10.3801,1469,2804.13
15939,-2.15,0.7626,11.8369,1469,2804.13
15944,-3.3483,-0.7626,11.6921,1470,2804.13
15949,-1.6604,2.3092,9.4774,1498,2804.0
15954,1.8651,3.7745,10.2364,1477,2804.0
15959,-0.9984,1.5957,11.2934,1465,2804.0
15964,-2.15,-1.2701,12.0572,1467,2804.0
15969,-3.3136,1.549,9.8725,1467,2804.0
15974,1.2438,3.2753,10.1825,1482,2803.74
15979,1.3683,2.5654,10.8924,1467,2803.74
15984,-1.4186,-0.9038,12.1266,1465,2803.74
15989,-4.1025,0.6416,10.5141,1465,2803.74
15994,0.5746,2.9341,9.8809,1483,2803.87
15999,2.1548,3.4728,10.5477,1465,2803.87
16004,-1.7741,0.1867,12.0524,1461,2803.87
16009,-4.0055,-0.3328,11.3701,1469,2803.87
16014,-0.6201,2.6264,9.5469,1491,2803.87
16019,2.0219,3.8391,10.2795,1479,2803.87
16024,-2.1225,1.0834,11.5676,1462,2803.87
16029,-2.8659,-0.9996,11.8393,1469,2803.87
16034,-2.3966,2.059,9.6498,1499,2803.74
16039,1.6508,3.6152,10.3358,1465,2803.74
16044,0.1305,1.9692,11.218,1468,2803.74
16049,-1.7561,-1.2115,12.1841,1467,2803.74
16054,-3.7972,1.1863,9.9766,1483,2803.74
16059,1.1935,3.1149,10.0521,1484,2803.61
16064,1.9142,2.9712,10.6913,1465,2803.61
16069,-1.5024,-0.504,12.0895,1455,2803.61
16074,-4.0163,0.1832,10.9331,1466,2803.61
16079,0.0718,2.7833,9.7229,1490,2804.26
16084,2.0255,3.7122,10.3693,1470,2804.26
16089,-2.144,0.5986,11.8429,1468,2804.26
16094,-3.547,-0.6476,11.6274,1477,2804.26
16099,-1.4198,2.4169,9.5972,1499,2805.05
16104,1.9058,3.8259,10.2879,1465,2805.05
16109,-1.3108,1.421,11.3533,1461,2805.05
16114,-2.3403,-1.2378,12.0416,1479,2805.05
16119,-3.0347,1.7442,9.7612,1493,2804.39
16124,1.4353,3.3914,10.1849,1477,2804.39
16129,1.0834,2.3367,10.9176,1478,2804.39
16134,-1.4257,-1.1061,12.1266,1468,2804.39
16139,-4.13,0.82,10.3406,1463,2804.39
16144,0.7362,2.9688,9.9862,1481,2805.31
16149,2.1213,3.3543,10.5872,1477,2805.31
16154,-1.8196,-0.0335,12.0512,1467,2805.31
16159,-3.954,-0.1125,11.2192,1469,2805.31
16164,-0.3903,2.6767,9.6343,1499,2804.92
16169,1.9824,3.8415,10.3202,1463,2804.92
16174,-2.144,0.9433,11.7112,1465,2804.92
16179,-3.1783,-0.911,11.8106,1463,2804.92
16184,-2.0722,2.1512,9.4691,1496,2804.92
16189,1.8459,3.6871,10.2747,1469,2804.92
16194,-0.4429,1.7801,11.2252,1477,2804.92
16199,-1.9357,-1.2558,12.1027,1479,2804.92
16204,-3.5219,1.342,9.9551,1479,2804.92
16209,1.1779,3.1927,10.0904,1471,2804.66
16214,1.737,2.7869,10.7715,1467,2804.66
16219,-1.3838,-0.741,12.1422,1465,2804.66
16224,-4.1432,0.419,10.7224,1469,2804.66
16229,0.4166,2.9006,9.8438,1491,2804.79
16234,2.15,3.6212,10.4663,1467,2804.79
16239,-1.9848,0.3508,11.8525,1463,2804.79
16244,-3.7984,-0.498,11.5017,1466,2804.79
16249,-0.9936,2.545,9.5146,1498,2804.39
16254,1.9884,3.8104,10.3501,1478,2804.39
16259,-1.8531,1.245,11.4802,1464,2804.39
16264,-2.648,-1.069,11.9973,1479,2804.39
16269,-2.7366,1.913,9.6247,1502,2804.13
16274,1.4856,3.4752,10.2137,1467,2804.13
16279,0.6273,2.156,11.0959,1465,2804.13
16284,-1.5586,-1.1408,12.1889,1461,2804.13
16289,-3.9684,1.0008,10.228,1479,2804.13
16294,0.9924,3.067,10.0197,1485,2804.13
16299,2.1057,3.1388,10.6757,1477,2804.13
16304,-1.646,-0.3112,12.0524,1471,2804.13
16309,-4.0043,-0.0024,11.0205,1465,2804.13
16314,-0.1903,2.7019,9.6414,1492,2803.74
16319,1.9968,3.7864,10.3789,1465,2803.74
16324,-2.132,0.7877,11.728,1469,2803.74
16329,-3.4824,-0.7997,11.7531,1467,2803.74
16334,-1.7286,2.3583,9.5002,1502,2803.08
16339,1.907,3.7457,10.3226,1471,2803.08
16344,-0.9637,1.6137,11.3018,1477,2803.08
16349,-2.1093,-1.2282,12.0464,1465,2803.08
16354,-3.3519,1.5538,9.8007,1467,2803.08
16359,1.3551,3.2908,10.137,1481,2802.69
16364,1.4389,2.5857,10.9271,1465,2802.69
16369,-1.3779,-0.9158,12.1171,1468,2802.69
16374,-4.0977,0.6105,10.5955,1469,2802.69
16379,0.5339,2.8814,9.8521,1492,2802.17
16384,2.0842,3.4895,10.5105,1465,2802.17
16389,-1.9022,0.1927,11.88,1459,2802.17
16394,-3.8487,-0.2897,11.3689,1471,2802.17
16399,-0.7817,2.636,9.5816,1499,2802.04
16404,1.9872,3.8774,10.3082,1479,2802.04
16409,-1.9465,1.1947,11.564,1459,2802.04
16414,-2.8611,-1.0666,11.9112,1477,2802.04
16419,-2.4876,2.0087,9.6079,1483,2801.91
16424,1.7274,3.5075,10.2651,1465,2801.91
16429,0.2023,2.0075,11.0816,1465,2801.91
16434,-1.7011,-1.2294,12.1159,1465,2801.91
16439,-3.8678,1.1313,10.1347,1478,2801.91
16444,1.0367,3.1041,10.064,1485,2802.69
16449,1.9836,3.0706,10.7057,1471,2802.69
16454,-1.5251,-0.4298,12.0692,1467,2802.69
16459,-4.0247,0.1425,10.9367,1465,2802.69
16464,0.0144,2.7809,9.6977,1477,2802.56
16469,2.071,3.7074,10.422,1465,2802.56
16474,-2.1189,0.7039,11.8286,1469,2802.56
16479,-3.565,-0.7482,11.6933,1469,2802.56
16484,-1.5323,2.4014,9.505,1499,2803.35
16489,1.919,3.7661,10.2627,1479,2803.35
16494,-1.2605,1.5083,11.3449,1468,2803.35
16499,-2.2673,-1.2474,11.9938,1465,2803.35
16504,-3.1819,1.6436,9.7097,1468,2803.35
16509,1.3994,3.3471,10.1969,1484,2804.0
16514,1.2594,2.4481,11.0253,1471,2804.0
16519,-1.3898,-0.9577,12.153,1465,2804.0
16524,-4.136,0.741,10.4663,1467,2804.0
16529,0.7254,2.9604,9.8904,1483,2804.39
16534,2.138,3.395,10.5596,1467,2804.39
16539,-1.7214,0.0467,11.9818,1461,2804.39
16544,-4.1049,-0.2873,11.3066,1471,2804.39
16549,-0.5279,2.6444,9.6043,1499,2804.79
16554,2.0231,3.8415,10.3274,1479,2804.79
16559,-2.2278,1.0295,11.643,1467,2804.79
16564,-3.0107,-0.9649,11.8202,1468,2804.79
16569,-2.2625,2.1416,9.6067,1495,2804.92
16574,1.7406,3.6284,10.2364,1467,2804.92
16579,-0.164,1.8411,11.2492,1481,2804.92
16584,-1.7945,-1.2809,12.1494,1465,2804.92
16589,-3.6643,1.3096,9.991,1483,2804.92
16594,1.1217,3.146,10.0485,1485,2803.48
16599,1.8232,2.824,10.799,1469,2803.48
16604,-1.3515,-0.6488,12.1518,1454,2803.48
16609,-4.2533,0.3687,10.7835,1465,2803.48
16614,0.2909,2.8802,9.7791,1485,2801.77
16619,2.1189,3.6655,10.4172,1468,2801.77
16624,-2.1679,0.5183,11.8429,1477,2801.77
16629,-3.6045,-0.5255,11.5412,1468,2801.77
16634,-1.239,2.4624,9.5361,1499,2800.34
16639,1.9273,3.8271,10.2472,1469,2800.34
16644,-1.5419,1.3922,11.4096,1463,2800.34
16649,-2.4421,-1.221,11.9554,1471,2800.34
16654,-3.0335,1.743,9.7049,1481,2799.94
16659,1.506,3.3519,10.2448,1479,2799.94
16664,0.9577,2.2685,11.0085,1467,2799.94
16669,-1.4353,-1.1037,12.1709,1465,2799.94
16674,-4.1049,0.8667,10.3669,1465,2799.94
16679,0.826,3.0095,10.0257,1483,2799.42
16684,2.1296,3.3196,10.6075,1470,2799.42
16689,-1.7526,-0.0132,12.0141,1461,2799.42
16694,-3.9337,-0.1149,11.1306,1469,2799.42
16699,-0.419,2.7402,9.6235,1495,2799.55
16704,1.9944,3.7613,10.2687,1479,2799.55
16709,-2.0722,0.9421,11.6442,1465,2799.55
16714,-3.1556,-0.9673,11.7591,1467,2799.55
16719,-2.1117,2.1967,9.5553,1499,2799.94
16724,1.7849,3.5853,10.3154,1466,2799.94
16729,-0.3531,1.7609,11.2504,1479,2799.94
16734,-1.8747,-1.2617,12.141,1468,2799.94
16739,-3.626,1.3384,9.9802,1485,2799.94
16744,1.1696,3.2274,10.1095,1481,2800.73
16749,1.8352,2.7916,10.7967,1469,2800.73
16754,-1.3396,-0.6069,12.123,1463,2800.73
16759,-4.1539,0.2921,10.7895,1465,2800.73
16764,0.2969,2.8359,9.7767,1483,2801.12
16769,2.138,3.6164,10.4076,1467,2801.12
16774,-2.0889,0.4465,11.8621,1471,2801.12
16779,-3.7242,-0.6153,11.5197,1470,2801.12
16784,-1.1971,2.4972,9.596,1497,2802.04
16789,1.968,3.8008,10.2747,1467,2802.04
16794,-1.6305,1.3551,11.4778,1464,2802.04
16799,-2.5307,-1.1935,11.9985,1477,2802.04
16804,-2.9353,1.8663,9.6786,1483,2802.17
16809,1.6089,3.4369,10.1993,1479,2802.17
16814,0.8751,2.211,11.0109,1471,2802.17
16819,-1.4186,-1.1169,12.0895,1467,2802.17
16824,-4.0151,0.8559,10.2699,1465,2802.17
16829,0.838,3.0191,9.9814,1471,2802.43
16834,2.0842,3.1915,10.6291,1471,2802.43
16839,-1.6149,-0.1472,12.0488,1464,2802.43
16844,-4.1432,-0.0886,11.1725,1471,2802.43
16849,-0.2562,2.745,9.6905,1499,2803.08
16854,2.0853,3.8247,10.3262,1476,2803.08
16859,-2.2613,0.917,11.655,1463,2803.08
16864,-3.1771,-0.82,11.7436,1465,2803.08
16869,-1.9405,2.2314,9.5349,1485,2803.21
16874,1.8064,3.6392,10.246,1471,2803.21
16879,-0.5698,1.6652,11.2767,1481,2803.21
16884,-1.9728,-1.3276,12.153,1467,2803.21
16889,-3.5458,1.409,9.9276,1481,2803.21
16894,1.2761,3.2022,10.1933,1479,2804.13
16899,1.6293,2.7138,10.8505,1466,2804.13
16904,-1.4198,-0.7075,12.141,1463,2804.13
16909,-4.2222,0.4729,10.6506,1467,2804.13
16914,0.4645,2.9329,9.8569,1483,2805.05
16919,2.1943,3.5889,10.422,1469,2805.05
16924,-1.9477,0.3508,11.8932,1465,2805.05
16929,-3.8559,-0.4549,11.4168,1467,2805.05
16934,-0.9218,2.5726,9.505,1495,2805.44
16939,1.9824,3.8223,10.3322,1470,2805.44
16944,-1.8603,1.2127,11.558,1465,2805.44
16949,-2.7617,-1.1576,11.9698,1479,2805.44
16954,-2.7019,1.9573,9.6271,1484,2805.7
16959,1.6927,3.5135,10.2436,1469,2805.7
16964,0.4118,2.0327,11.1259,1470,2805.7
16969,-1.6484,-1.1444,12.1374,1461,2805.7
16974,-3.8044,1.0714,10.1694,1470,2805.7
16979,0.9577,3.0933,9.9695,1485,2805.97
16984,2.0016,3.037,10.7308,1478,2805.97
16989,-1.4018,-0.3244,12.0189,1467,2805.97
16994,-4.2461,0.0934,10.8828,1467,2805.97
16999,0.006,2.7186,9.6822,1495,2805.97
17004,2.1656,3.7194,10.41,1465,2805.97
17009,-2.3128,0.6847,11.7938,1467,2805.97
17014,-3.4201,-0.6823,11.6729,1468,2805.97
17019,-1.5826,2.381,9.5624,1503,2806.36
17024,1.8615,3.7984,10.2939,1477,2806.36
17029,-1.0906,1.5119,11.3916,1477,2806.36
17034,-2.2745,-1.1708,12.1051,1463,2806.36
17039,-3.128,1.652,9.8234,1465,2806.36
17044,1.3934,3.3902,10.1514,1479,2806.75
17049,1.2785,2.375,10.9235,1458,2806.75
17054,-1.3958,-1.0175,12.1901,1465,2806.75
17059,-4.1611,0.6991,10.3956,1467,3960.92
17064,0.7003,2.9485,9.8713,1493,9635.46
17069,2.1476,3.3411,10.5393,1465,9635.46
17074,-1.8878,-0.0048,12.0656,1461,9635.46
17079,-3.9624,-0.1891,11.2767,1469,9635.46
17084,-0.5291,2.6959,9.6546,1496,2806.89
17089,2.0818,3.893,10.3513,1471,2806.89
17094,-2.0949,1.0762,11.655,1465,2806.89
17099,-3.1568,-1.0008,11.8046,1469,2806.89
17104,-2.1751,2.138,9.4798,1476,2806.62
17109,1.8567,3.6284,10.2496,1465,2806.62
17114,-0.2897,1.7765,11.2216,1479,2806.62
17119,-1.9692,-1.3372,12.1206,1467,2806.62
17124,-3.6895,1.336,9.9766,1479,2806.62
17129,1.2641,3.1795,10.1538,1485,2805.57
17134,1.7645,2.8323,10.8924,1464,2805.57
17139,-1.4018,-0.6153,12.1578,1463,2805.57
17144,-4.227,0.4417,10.7476,1464,2805.57
17149,0.3783,2.8922,9.8078,1485,2804.66
17154,2.1847,3.626,10.4926,1471,2804.66
17159,-2.0291,0.4477,11.8381,1468,2804.66
17164,-3.7194,-0.5507,11.4742,1468,2804.66
17169,-1.0774,2.4936,9.5708,1501,2804.92
17174,1.968,3.8271,10.3154,1467,2804.92
17179,-1.8076,1.2761,11.4227,1463,2804.92
17184,-2.6755,-1.2067,11.983,1479,2804.92
17189,-2.8659,1.8352,9.6367,1484,2804.92
17194,1.6185,3.4656,10.3166,1478,2804.92
17199,0.7147,2.162,11.048,1471,2804.92
17204,-1.6065,-1.1085,12.1673,1465,2804.92
17209,-4.0414,0.9888,10.258,1467,2804.92
17214,0.9864,3.0538,9.9814,1471,2804.79
17219,2.1464,3.1364,10.6183,1469,2804.79
17224,-1.5993,-0.2753,12.0273,1464,2804.79
17229,-4.0378,-0.0946,10.9918,1471,2804.79
17234,-0.2454,2.6731,9.6642,1485,2803.87
17239,2.059,3.7661,10.319,1469,2803.87
17244,-2.2242,0.8535,11.7292,1455,2803.87
17249,-3.3674,-0.7757,11.74,1463,2803.87
17254,-1.7957,2.3308,9.5361,1501,2804.26
17259,1.9118,3.7721,10.319,1469,2804.26
17264,-0.8128,1.6209,11.248,1477,2804.26
17269,-2.144,-1.2462,12.0787,1467,2804.26
17274,-3.3998,1.5227,9.8438,1471,2804.26
17279,1.3827,3.2465,10.1801,1477,2804.26
17284,1.4892,2.5283,10.9128,1463,2804.26
17289,-1.4162,-0.9038,12.1506,1465,2804.26
17294,-4.1384,0.5387,10.5991,1467,2804.26
17299,0.4776,2.9317,9.8078,1487,2804.13
17304,2.0937,3.5003,10.5381,1469,2804.13
17309,-1.913,0.237,11.9531,1465,2804.13
17314,-3.9133,-0.3017,11.3701,1463,2804.13
17319,-0.7326,2.6348,9.5648,1495,2804.13
17324,2.0901,3.8571,10.3465,1477,2804.13
17329,-2.0027,1.1492,11.4826,1463,2804.13
17334,-2.8323,-1.0965,11.9124,1481,2804.13
17339,-2.5103,2.0016,9.6379,1498,2804.26
17344,1.7047,3.4967,10.2699,1465,2804.26
17349,0.2071,1.9477,11.1223,1469,2804.26
17354,-1.7214,-1.2761,12.1805,1461,2804.26
17359,-3.9181,1.1157,10.1574,1479,2804.26
17364,1.0511,3.1053,10.1119,1482,2804.92
17369,1.9573,3.0059,10.7667,1469,2804.92
17374,-1.4365,-0.4118,12.1362,1469,2804.92
17379,-4.2102,0.2358,10.9116,1469,2804.92
17384,0.1532,2.7964,9.6893,1497,2805.31
17389,2.1751,3.6488,10.319,1465,2805.31
17394,-2.2206,0.5926,11.7962,1467,2805.31
17399,-3.5183,-0.7075,11.5748,1466,2805.31
17404,-1.4712,2.4026,9.481,1503,2805.44
17409,1.8747,3.7026,10.313,1479,2805.44
17414,-1.3024,1.4605,11.4479,1477,2805.44
17419,-1.3934,-0.5578,12.123,1465,2805.44
17424,-3.1376,1.7645,9.7252,1463,2805.44
17429,1.5311,3.4058,10.2256,1481,2805.44
17434,1.1564,2.3715,11.0433,1465,2805.44
17439,-1.4293,-1.0032,12.1506,1467,2805.44
17444,-4.0797,0.7901,10.4112,1465,2805.44
17449,0.7494,2.9628,9.9012,1493,2805.97
17454,2.1907,3.304,10.6458,1465,2805.97
17459,-1.7131,-0.0563,11.9531,1459,2805.97
17464,-4.0713,-0.2191,11.2156,1470,2805.97
17469,-0.4717,2.6252,9.6139,1499,2805.84
17474,2.053,3.7445,10.3789,1478,2805.84
17479,-2.2697,0.9349,11.643,1464,2805.84
17484,-3.0754,-0.8691,11.8381,1471,2805.84
17489,-2.1213,2.247,9.5852,1499,2805.97
17494,1.7454,3.6559,10.252,1461,2805.97
17499,-0.2921,1.7968,11.2156,1469,2805.97
17504,-1.8926,-1.2617,12.1422,1465,2805.97
17509,-3.6224,1.3683,9.9084,1477,2805.97
17514,1.2222,3.1412,10.0975,1483,2805.97
17519,1.6975,2.6827,10.8577,1478,2805.97
17524,-1.4281,-0.7673,12.1159,1461,2805.97
17529,-4.1527,0.4178,10.7129,1465,2805.97
17534,0.3077,2.8551,9.7767,1489,2806.23
17539,2.1213,3.6344,10.489,1471,2806.23
17544,-2.0734,0.4597,11.9124,1467,2806.23
17549,-3.7745,-0.4034,11.4694,1468,2806.23
17554,-1.0367,2.5726,9.5397,1500,2806.1
17559,2.0614,3.7888,10.3525,1467,2806.1
17564,-1.8028,1.2929,11.5101,1463,2806.1
17569,-2.6707,-1.1935,11.9183,1479,2806.1
17574,-2.7665,1.901,9.6534,1483,2806.1
17579,1.5742,3.4225,10.2316,1481,2806.1
17584,0.5255,2.1201,11.1498,1471,2806.1
17589,-1.646,-1.1959,12.1937,1461,2806.1
17594,-4.0318,1.0475,10.246,1463,2806.1
17599,0.9661,3.0777,10.0485,1480,2806.23
17604,2.0889,3.0993,10.7093,1471,2806.23
17609,-1.5502,-0.3077,12.0452,1485,2806.23
17614,-4.0833,0.0994,10.9798,1469,2806.23
17619,-0.067,2.7725,9.6438,1499,2805.97
17624,2.1656,3.7445,10.4028,1469,2805.97
17629,-2.1847,0.7254,11.7675,1463,2805.97
17634,-3.4692,-0.7793,11.7088,1462,2805.97
17639,-1.7095,2.3272,9.4643,1499,2805.84
17644,1.9022,3.705,10.3142,1477,2805.84
17649,-1.0523,1.5455,11.3006,1471,2805.84
17654,-2.2697,-1.1911,12.1326,1465,2805.84
17659,-3.2693,1.6783,9.8426,1472,2805.84
17664,1.415,3.3615,10.1658,1479,2805.97
17669,1.4329,2.4588,10.914,1463,2805.97
17674,-1.3515,-0.917,12.1015,1471,2805.97
17679,-4.1875,0.6632,10.422,1465,2805.97
17684,0.662,2.9054,9.8641,1493,2805.97
17689,2.162,3.3818,10.5405,1467,2805.97
17694,-1.8136,0.1173,11.9375,1463,2805.97
17699,-4.0247,-0.2981,11.3162,1463,2805.97
17704,-0.5794,2.6444,9.5744,1499,2805.84
17709,2.0853,3.8463,10.2987,1479,2805.84
17714,-2.1644,1.0523,11.6227,1463,2805.84
17719,-2.9461,-0.9637,11.9052,1477,2805.84
17724,-2.3355,2.1129,9.5792,1487,2805.44
17729,1.8124,3.5757,10.2149,1465,2805.44
17734,-0.0395,1.8974,11.2336,1463,2805.44
17739,-1.798,-1.2665,12.1135,1463,2805.44
17744,-3.7158,1.2653,10.003,1479,2805.44
17749,1.087,3.1053,10.0269,1483,2805.44
17754,1.8483,2.8048,10.7978,1470,2805.44
17759,-1.403,-0.6321,12.1051,1465,2805.44
17764,-4.2078,0.3292,10.8074,1465,2805.44
17769,0.2083,2.8407,9.7923,1477,2804.39
17774,2.1859,3.6619,10.4734,1465,2804.39
17779,-2.0818,0.5495,11.874,1469,2804.39
17784,-3.6787,-0.5219,11.5424,1469,2804.39
17789,-1.2318,2.484,9.5014,1501,2804.66
17794,2.0303,3.784,10.2663,1479,2804.66
17799,-1.549,1.3216,11.4096,1461,2804.66
17804,-2.5522,-1.2163,12.0165,1464,2804.66
17809,-3.0107,1.81,9.7025,1461,2804.66
17814,1.5479,3.3854,10.2723,1483,2804.66
17819,0.844,2.2721,11.0636,1465,2804.66
17824,-1.5562,-1.0654,12.1781,1471,2804.66
17829,-4.1731,0.9062,10.2951,1465,2804.66
17834,0.8978,3.0706,10.0078,1491,2804.79
17839,2.1739,3.225,10.6279,1467,2804.79
17844,-1.5886,-0.158,12.0967,1462,2804.79
17849,-4.1037,-0.091,11.1678,1467,2804.79
17854,-0.2322,2.7665,9.6606,1499,2804.39
17859,2.1021,3.6871,10.307,1477,2804.39
17864,-2.2613,0.8523,11.728,1462,2804.39
17869,-3.2034,-0.8894,11.7352,1470,2804.39
17874,-1.9812,2.2649,9.5074,1471,2804.39
17879,1.7681,3.6859,10.2771,1465,2804.39
17884,-0.6261,1.7394,11.376,1471,2804.39
17889,-2.0016,-1.2115,12.0859,1465,2804.39
17894,-3.5063,1.4796,9.9168,1480,2804.39
17899,1.3024,3.2406,10.1191,1486,2804.66
17904,1.6604,2.6408,10.8816,1462,2804.66
17909,-1.2977,-0.7841,12.1386,1463,2804.66
17914,-4.1755,0.4405,10.6171,1467,2804.66
17919,0.3747,2.8994,9.839,1485,2804.79
17924,2.1512,3.4716,10.5177,1470,2804.79
17929,-1.9728,0.2789,11.898,1469,2804.79
17934,-3.8451,-0.3998,11.4072,1469,2804.79
17939,-0.9218,2.6647,9.5864,1501,2804.92
17944,2.0458,3.8535,10.3813,1467,2804.92
17949,-1.9237,1.2258,11.5436,1461,2804.92
17954,-2.6779,-1.0606,11.9614,1479,2804.92
17959,-2.6217,1.9585,9.6833,1485,2804.79
17964,1.6209,3.5291,10.1849,1479,2804.79
17969,0.4549,2.0039,11.072,1477,2804.79
17974,-1.5383,-1.227,12.1745,1469,2804.79
17979,-3.9301,1.0546,10.1239,1466,2804.79
17984,0.917,3.1017,10.0257,1481,2804.79
17989,2.0087,3.0215,10.7057,1477,2804.79
17994,-1.5215,-0.3855,12.0919,1465,2804.79
17999,-4.1264,0.1437,10.9415,1468,2804.79
18004,-0.0419,2.8335,9.7252,1486,2804.79
18009,2.1488,3.729,10.3154,1469,2804.79
18014,-2.2218,0.741,11.7376,1463,2804.79
18019,-3.3698,-0.6656,11.6813,1465,2804.79
18024,-1.573,2.3798,9.5158,1508,2805.44
18029,1.883,3.7338,10.3082,1469,2805.44
18034,-1.1432,1.5107,11.3725,1479,2805.44
18039,-2.2553,-1.2677,12.074,1468,2805.44
18044,-3.3112,1.6113,9.7671,1479,2805.44
18049,1.3659,3.3136,10.1646,1477,2805.44
18054,1.2701,2.4277,10.987,1463,2805.44
18059,-1.4293,-0.9062,12.214,1464,2805.44
18064,-4.118,0.7326,10.4734,1466,2805.44
18069,0.6524,3.0191,9.9132,1491,2805.31
18074,2.1883,3.3471,10.5608,1469,2805.31
18079,-1.6795,0.0742,11.965,1461,2805.31
18084,-4.0474,-0.2682,11.2372,1463,2805.31
18089,-0.5136,2.6731,9.5349,1501,2805.44
18094,2.0542,3.7972,10.3621,1479,2805.44
18099,-2.1548,1.0044,11.582,1465,2805.44
18104,-3.0502,-0.984,11.8872,1478,2805.44
18109,-2.2242,2.1823,9.5373,1507,2805.44
18114,1.8172,3.5985,10.2831,1467,2805.44
18119,-0.1796,1.8328,11.1306,1465,2805.44
18124,-1.798,-1.16,12.1566,1465,2805.44
18129,-3.7002,1.3156,9.9922,1481,2805.44
18134,1.1588,3.1915,10.1119,1483,2805.7
18139,1.8088,2.8084,10.7751,1477,2805.7
18144,-1.4054,-0.5698,12.1242,1468,2805.7
18149,-4.2677,0.2849,10.7404,1464,2805.7
18154,0.267,2.7988,9.7791,1477,2806.1
18159,2.1464,3.5662,10.4076,1465,2806.1
18164,-2.2254,0.4142,11.8764,1469,2806.1
18169,-3.6631,-0.5136,11.5412,1467,2806.1
18174,-1.2019,2.5654,9.5181,1503,2805.97
18179,2.0016,3.8678,10.2783,1477,2805.97
18184,-1.6436,1.3312,11.4335,1487,2805.97
18189,-2.5043,-1.1109,12.0093,1459,2805.97
18194,-2.891,1.8387,9.6666,1467,2805.97
18199,1.579,3.4465,10.1981,1482,2806.1
18204,0.7338,2.144,11.0816,1467,2806.1
18209,-1.5083,-1.1744,12.1542,1469,2806.1
18214,-3.9576,0.893,10.234,1465,2806.1
18219,0.832,2.9975,9.973,1483,2805.97
18224,2.0746,3.1603,10.7021,1469,2805.97
18229,-1.6017,-0.2047,12.0692,1461,2805.97
18234,-4.1084,0.0335,11.0852,1471,2805.97
18239,-0.1784,2.7761,9.6235,1493,2805.84
18244,2.1943,3.7852,10.3813,1479,2805.84
18249,-2.2805,0.8499,11.661,1461,2805.84
18254,-3.2226,-0.7554,11.6969,1479,2805.84
18259,-1.8459,2.3128,9.5241,1498,2805.57
18264,1.8244,3.6847,10.2999,1465,2805.57
18269,-0.8033,1.5874,11.2611,1479,2805.57
18274,-2.1835,-1.3216,12.0979,1469,2805.57
18279,-3.4644,1.5419,9.7911,1480,2805.57
18284,1.4102,3.2489,10.2185,1485,2805.31
18289,1.5119,2.5678,10.8673,1467,2805.31
18294,-1.4593,-0.8248,12.2009,1459,2805.31
18299,-4.1037,0.6033,10.6303,1464,2805.31
18304,0.5327,2.9521,9.8701,1491,2805.84
18309,2.2039,3.4608,10.55,1467,2805.84
18314,-1.9405,0.2155,11.9327,1469,2805.84
18319,-3.8379,-0.3543,11.3365,1468,2805.84
18324,-0.741,2.6061,9.5098,1499,2806.23
18329,2.0446,3.7888,10.3034,1468,2806.23
18334,-2.0171,1.0798,11.5472,1459,2806.23
18339,-2.8335,-1.0451,11.9375,1478,2806.23
18344,-2.49,2.0901,9.578,1503,2806.23
18349,1.6843,3.5829,10.2831,1477,2806.23
18354,0.1664,1.9668,11.2037,1471,2806.23
18359,-1.7729,-1.1959,12.1889,1464,2806.23
18364,-3.7541,1.1803,10.088,1467,2806.23
18369,1.0163,3.1232,10.0078,1485,2806.23
18374,1.9201,2.9401,10.7715,1479,2806.23
18379,-1.4305,-0.498,12.0776,1461,2806.23
18384,-4.209,0.1951,10.8457,1477,2806.23
18389,0.1053,2.7964,9.7229,1495,2806.75
18394,2.1261,3.6835,10.4531,1465,2806.75
18399,-2.2529,0.5602,11.8214,1463,2806.75
18404,-3.5027,-0.5435,11.6394,1463,2806.75
18409,-1.3803,2.4624,9.5217,1481,2806.75
18414,1.9549,3.8259,10.3274,1455,2806.75
18419,-1.4222,1.421,11.4144,1481,2806.75
18424,-2.4217,-1.1947,12.1063,1466,2806.75
18429,-3.0406,1.7609,9.6893,1465,2806.75
18434,1.5275,3.383,10.2328,1479,2806.75
18439,0.9912,2.2362,11.0229,1464,2806.75
18444,-1.5203,-1.0882,12.1554,1469,2806.75
18449,-4.0713,0.8009,10.325,1471,2806.75
18454,0.7374,3.0047,9.9407,1487,2806.75
18459,2.1739,3.2741,10.6554,1463,2806.75
18464,-1.6712,-0.0862,12.0584,1461,2806.75
18469,-4.1348,-0.0515,11.1606,1465,2806.75
18474,-0.3244,2.7342,9.6498,1498,2807.15
18479,2.1644,3.8152,10.3465,1479,2807.15
18484,-2.2865,0.8583,11.7172,1462,2807.15
18489,-3.1448,-0.8128,11.7483,1471,2807.15
18494,-1.9908,2.229,9.4954,1483,2807.02
18499,1.7717,3.6392,10.2687,1465,2807.02
18504,-0.5794,1.6987,11.2923,1468,2807.02
18509,-2.156,-1.3048,12.1039,1463,2807.02
18514,-3.5793,1.4952,9.9276,1481,2807.02
18519,1.3922,3.1951,10.2101,1482,2806.75
18524,1.5969,2.6205,10.9571,1471,2806.75
18529,-1.4641,-0.8104,12.1542,1467,2806.75
18534,-4.2377,0.5495,10.6362,1463,2806.75
18539,0.5387,2.9269,9.8114,1484,2806.75
18544,2.2446,3.5279,10.5093,1467,2806.75
18549,-1.9597,0.2801,11.8932,1463,2806.75
18554,-3.899,-0.4226,11.4084,1467,2806.75
18559,-0.8056,2.5714,9.505,1496,2807.02
18564,2.071,3.8008,10.3813,1471,2807.02
18569,-1.998,1.1444,11.5149,1465,2807.02
18574,-2.8012,-1.063,11.9542,1471,2807.02
18579,-2.6001,2.0458,9.6127,2175,2805.97
18584,1.6819,3.5494,10.2975,1471,2805.97
18589,0.3663,2.0207,11.2037,1467,2805.97
18594,-1.7131,-1.1947,12.2092,1467,2805.97
18599,-3.8595,1.1744,10.1023,1463,2805.97
18604,1.0367,3.0813,10.0688,1479,2808.73
18609,1.9908,2.9664,10.7332,1469,2808.73
18614,-1.4413,-0.4537,12.056,1463,2808.73
18619,-4.1575,0.1772,10.8565,1468,2808.73
18624,0.0048,2.7593,9.6929,1501,2807.28
18629,2.1668,3.6559,10.4591,1471,2807.28
18634,-2.1931,0.6189,11.8154,1463,2807.28
18639,-3.5913,-0.6309,11.6574,1461,2807.28
18644,-1.4305,2.4349,9.4739,1509,2807.28
18649,1.9944,3.7685,10.2077,1470,2807.28
18654,-1.3503,1.488,11.406,1477,2807.28
18659,-2.3583,-1.1911,12.0321,1468,2807.28
18664,-3.0765,1.7418,9.7145,1477,2807.28
18669,1.4389,3.3579,10.1778,1470,2807.02
18674,1.1085,2.326,11.0014,1465,2807.02
18679,-1.4269,-1.1013,12.1661,1465,2807.02
18684,-4.0761,0.7458,10.3837,1463,2807.02
18689,0.7386,2.976,9.8713,1484,2806.62
18694,2.1548,3.2825,10.641,1469,2806.62
18699,-1.8136,-0.0802,12.0069,1464,2806.62
18704,-3.9744,-0.0359,11.218,1459,2806.62
18709,-0.395,2.7713,9.6127,1500,2806.36
18714,2.1033,3.8188,10.392,1472,2806.36
18719,-2.2218,0.9661,11.6669,1465,2806.36
18724,-3.0945,-0.8811,11.7232,1482,2806.36
18729,-2.0961,2.2098,9.4942,1509,2806.23
18734,1.7957,3.5721,10.3178,1467,2806.23
18739,-0.3807,1.7238,11.2336,1465,2806.23
18744,-1.9824,-1.2713,12.0991,1461,2806.23
18749,-3.6356,1.4269,9.9419,1479,2806.23
18754,1.2139,3.1855,10.0892,1482,2806.1
18759,1.7059,2.7294,10.89,1477,2806.1
18764,-1.4389,-0.7386,12.0955,1463,2806.1
18769,-4.1312,0.4417,10.6578,1464,2806.1
18774,0.4046,2.9281,9.7504,1477,2806.23
18779,2.0794,3.7745,10.2987,1465,2806.23
18784,-2.0901,0.3615,11.8908,1471,2806.23
18789,-3.037,-0.99,11.8788,1465,2806.23
18794,-1.0056,2.5786,9.5038,1501,2806.75
18799,1.67,3.5913,10.228,1479,2806.75
18804,-1.828,1.2091,11.5317,1467,2806.75
18809,-1.8411,-1.245,12.1925,1459,2806.75
18814,-3.6919,1.3791,9.9742,1465,2806.75
18819,1.172,3.2058,10.0916,1486,2806.62
18824,1.8771,2.8096,10.829,1467,2806.62
18829,-1.3683,-0.5974,12.1087,1467,2806.62
18834,-4.2138,0.328,10.72,1463,2806.62
18839,0.3184,2.8335,9.7695,1483,2806.75
18844,2.1979,3.5626,10.5082,1465,2806.75
18849,-2.1189,0.4166,11.8429,1461,2806.75
18854,-3.7493,-0.5447,11.5269,1480,2806.75
18859,-1.1193,2.5522,9.5636,1501,2806.89
18864,1.986,3.8199,10.3034,1479,2806.89
18869,-1.7645,1.3623,11.4934,1466,2806.89
18874,-2.575,-1.1372,11.9507,1469,2806.89
18879,-2.8036,1.8735,9.5804,1507,2807.15
18884,1.5419,3.4668,10.1825,1467,2807.15
18889,0.723,2.1572,11.0864,1471,2807.15
18894,-1.5778,-1.2067,12.1889,1450,2807.15
18899,-4.0522,0.9385,10.2448,1478,2807.15
18904,0.9613,3.0538,9.9695,1482,2806.62
18909,2.0638,3.1687,10.6638,1465,2806.62
18914,-1.6628,-0.2478,12.1147,1461,2806.62
18919,-4.0881,0.0575,11.0265,1465,2806.62
18924,-0.1245,2.794,9.6929,1482,2806.1
18929,2.0913,3.7625,10.3322,1471,2806.1
18934,-2.2374,0.7709,11.7376,1470,2806.1
18939,-3.371,-0.7757,11.6622,1467,2806.1
18944,-1.7358,2.3367,9.4774,1485,2805.97
18949,1.907,3.6919,10.2843,1469,2805.97
18954,-0.8787,1.585,11.3306,1460,2805.97
18959,-2.144,-1.2857,12.1302,1470,2805.97
18964,-3.2908,1.5287,9.8462,1490,2805.44
18969,1.3324,3.2525,10.0975,1471,2805.44
18974,1.4126,2.5474,10.9702,1479,2805.44
18979,-1.4353,-0.8847,12.1661,1465,2805.44
18984,-4.221,0.6464,10.4842,1469,2805.44
18989,0.6728,2.9892,9.9647,1480,2806.49
18994,2.2434,3.4644,10.5584,1471,2806.49
18999,-1.9537,0.2119,11.9842,1465,2806.49
19004,-3.881,-0.3567,11.2982,1471,2806.49
19009,-0.6512,2.6288,9.4559,1501,2805.97
19014,2.0267,3.7769,10.2915,1467,2805.97
19019,-2.1069,1.1001,11.6155,1465,2805.97
19024,-2.9449,-1.0487,11.8669,1464,2805.97
19029,-2.3882,2.1284,9.578,1503,2805.97
19034,1.7214,3.6057,10.3058,1467,2805.97
19039,0.0215,1.9082,11.2444,1477,2805.97
19044,-1.737,-1.1983,12.147,1463,2805.97
19049,-3.8152,1.2246,9.997,1464,2805.97
19054,1.1624,3.1603,10.076,1472,2805.84
19059,1.9525,2.8359,10.8002,1464,2805.84
19064,-1.4449,-0.5195,12.0979,1469,2805.84
19069,-4.1132,0.2047,10.8362,1465,2805.84
19074,0.1413,2.8168,9.748,1493,2805.7
19079,2.1153,3.6224,10.4411,1465,2805.7
19084,-2.1787,0.5315,11.7795,1462,2805.7
19089,-3.6212,-0.5375,11.5424,1467,2805.7
19094,-1.2713,2.5115,9.5768,1493,2805.7
19099,1.9501,3.8176,10.3202,1479,2805.7
19104,-1.5012,1.3946,11.5041,1465,2805.7
19109,-2.4684,-1.1791,12.0764,1479,2805.7
19114,-3.0358,1.7837,9.736,1481,2805.05
19119,1.555,3.395,10.1694,1465,2805.05
19124,0.9708,2.2661,11.0241,1471,2805.05
19129,-1.5263,-1.1301,12.1602,1463,2805.05
19134,-4.1372,0.8212,10.3046,1470,2805.05
19139,0.8296,3.0227,9.9479,1481,2806.23
19144,2.1392,3.2717,10.6602,1469,2806.23
19149,-1.7693,-0.1065,12.0524,1467,2806.23
19154,-4.0235,-0.0658,11.0899,1464,2806.23
19159,-0.2813,2.7438,9.6055,1482,2805.7
19164,2.1775,3.8104,10.3813,1478,2805.7
19169,-2.1871,0.9014,11.661,1468,2805.7
19174,-3.213,-0.8918,11.7472,1465,2805.7
19179,-1.9489,2.2434,9.481,1500,2805.31
19184,1.8974,3.6476,10.3058,1477,2805.31
19189,-0.6129,1.6723,11.248,1465,2805.31
19194,-2.0554,-1.2665,12.0919,1469,2805.31
19199,-3.5793,1.421,9.8713,1469,2805.31
19204,1.245,3.2489,10.1562,1491,2805.05
19209,1.6233,2.6707,10.914,1467,2805.05
19214,-1.4126,-0.7697,12.135,1469,2805.05
19219,-4.2353,0.5291,10.6422,1463,2805.05
19224,0.492,2.9377,9.7839,1481,2805.31
19229,2.2158,3.5183,10.4663,1469,2805.31
19234,-2.0243,0.3112,11.8848,1461,2805.31
19239,-3.7864,-0.4573,11.4287,1471,2805.31
19244,-0.9218,2.5582,9.5146,1501,2805.57
19249,2.0351,3.7888,10.3154,1477,2805.57
19254,-1.9273,1.1756,11.5676,1466,2805.57
19259,-2.8335,-1.1133,11.9507,1465,2805.57
19264,-2.6288,2.0195,9.5457,1503,2805.7
19269,1.7466,3.553,10.2592,1467,2805.7
19274,0.3376,2.0794,11.1725,1481,2805.7
19279,-1.6879,-1.1744,12.1338,1466,2805.7
19284,-3.9037,1.0295,10.0987,1481,2805.7
19289,1.0367,3.0801,9.9982,1480,2805.31
19294,2.0075,3.0071,10.7416,1459,2805.31
19299,-1.3862,-0.4046,12.0297,1459,2805.31
19304,-4.1683,0.0946,10.9128,1465,2805.31
19309,-0.0036,2.7773,9.6522,1491,2804.92
19314,2.144,3.7828,10.4387,1469,2804.92
19319,-2.3164,0.7015,11.8082,1467,2804.92
19324,-3.468,-0.6823,11.6669,1467,2804.92
19329,-1.5658,2.387,9.4607,1501,2805.05
19334,1.9201,3.8032,10.2903,1471,2805.05
19339,-1.1636,1.5622,11.4036,1465,2805.05
19344,-2.2948,-1.2342,12.0764,1479,2805.05
19349,-3.2753,1.6376,9.7504,1501,2804.92
19354,1.4712,3.3184,10.2029,1467,2804.92
19359,1.2282,2.4361,10.9738,1477,2804.92
19364,-1.4748,-1.0427,12.1266,1465,2804.92
19369,-4.1264,0.6548,10.3693,1470,2804.92
19374,0.6895,2.9281,9.8402,1485,2805.18
19379,2.1775,3.4177,10.6027,1471,2805.18
19384,-1.913,0.0898,11.9878,1466,2805.18
19389,-3.8595,-0.1425,11.3318,1467,2805.18
19394,-0.5363,2.6827,9.5158,1501,2805.57
19399,2.0794,3.8104,10.3011,1465,2805.57
19404,-2.0913,1.0499,11.6143,1469,2805.57
19409,-3.0191,-1.0259,11.8178,1465,2805.57
19414,-2.2769,2.0614,9.4439,1497,2806.1
19419,1.7909,3.5614,10.2735,1481,2806.1
19424,-0.2298,1.8603,11.3078,1484,2806.1
19429,-1.8878,-1.2905,12.153,1462,2806.1
19434,-3.7433,1.3024,9.9168,1467,2806.1
19439,1.1839,3.1759,10.0856,1477,2806.49
19444,1.8124,2.8503,10.8553,1455,2806.49
19449,-1.3695,-0.6021,12.1135,1469,2806.49
19454,-4.2246,0.3615,10.7476,1465,2806.49
19459,0.4082,2.8024,9.7073,1493,2806.89
19464,2.2613,3.6152,10.5189,1465,2806.89
19469,-2.1356,0.4094,11.8393,1460,2806.89
19474,-3.7026,-0.5567,11.5065,1467,2806.89
19479,-1.1205,2.4541,9.3805,1497,2806.75
19484,2.0123,3.7816,10.3394,1481,2806.75
19489,-1.743,1.3252,11.5245,1463,2806.75
19494,-2.6803,-1.1241,12.0129,1468,2806.75
19499,-2.8587,1.8866,9.6163,1491,2806.89
19504,1.7226,3.4764,10.258,1464,2806.89
19509,0.7183,2.1787,11.0552,1472,2806.89
19514,-1.5957,-1.1145,12.0871,1465,2806.89
19519,-3.9828,0.9445,10.2065,1478,2806.89
19524,0.9457,2.9664,10.0006,1478,2807.28
19529,2.0889,3.1472,10.6913,1465,2807.28
19534,-1.4736,-0.3017,12.0452,1462,2807.28
19539,-4.2329,0.0311,11.0397,1465,2807.28
19544,-0.0706,2.7282,9.6151,1485,2807.02
19549,2.1979,3.7757,10.404,1471,2807.02
19554,-2.3367,0.8164,11.7699,1468,2807.02
19559,-3.4297,-0.7398,11.7603,1467,2807.02
19564,-1.6927,2.3391,9.487,1503,2806.89
19569,1.9812,3.7649,10.331,1470,2806.89
19574,-0.9625,1.6245,11.376,1464,2806.89
19579,-2.217,-1.2941,12.0488,1479,2806.89
19584,-3.3591,1.5359,9.754,1470,2806.75
19589,1.421,3.2417,10.1215,1479,2806.75
19594,1.4162,2.5103,11.0265,1469,2806.75
19599,-1.4497,-0.9565,12.1278,1463,2806.75
19604,-4.209,0.6764,10.4926,1465,2806.75
19609,0.6812,2.9305,9.8761,1481,2806.75
19614,2.2278,3.4668,10.647,1461,2806.75
19619,-1.9477,0.1365,11.9698,1465,2806.75
19624,-3.8379,-0.2047,11.3066,1471,2806.75
19629,-0.6261,2.6324,9.5038,1507,2806.36
19634,2.0985,3.8199,10.3418,1467,2806.36
19639,-2.0027,1.0894,11.6406,1463,2806.36
19644,-3.0143,-1.081,11.8118,1463,2806.36
19649,-2.3942,2.0494,9.5146,1497,2806.1
19654,1.7921,3.5434,10.2819,1471,2806.1
19659,-0.1125,1.9046,11.2946,1477,2806.1
19664,-1.901,-1.3216,12.1326,1469,2806.1
19669,-3.8319,1.2773,10.0209,1477,2806.1
19674,1.221,3.1448,10.1215,1477,2806.1
19679,1.968,2.9102,10.8649,1464,2806.1
19684,-1.3838,-0.5483,12.1075,1463,2806.1
19689,-4.2437,0.2861,10.8158,1465,2806.1
19694,0.3136,2.8012,9.6917,1485,2806.1
19699,2.2087,3.5973,10.4052,1470,2806.1
19704,-2.2206,0.4717,11.7926,1463,2806.1
19709,-3.6069,-0.565,11.6167,1463,2806.1
19714,-1.2653,2.4864,9.4679,1501,2806.23
19719,1.9309,3.7757,10.3525,1478,2806.23
19724,-1.5455,1.4365,11.5065,1465,2806.23
19729,-2.6013,-1.2055,12.0524,1480,2806.23
19734,-2.964,1.8663,9.681,1509,2806.23
19739,1.67,3.4417,10.2125,1479,2806.23
19744,0.8356,2.2721,11.1426,1467,2806.23
19749,-1.5586,-1.1229,12.1087,1459,2806.23
19754,-4.0462,0.8392,10.228,1479,2806.23
19759,0.8739,2.9724,9.924,1485,2806.36
19764,2.1368,3.2106,10.6626,1477,2806.36
19769,-1.6316,-0.1903,12.0261,1467,2806.36
19774,-4.197,-0.0706,11.1019,1465,2806.36
19779,-0.2143,2.6971,9.6115,1478,2806.36
19784,2.1775,3.7852,10.4148,1467,2806.36
19789,-2.302,0.9026,11.7519,1468,2806.36
19794,-3.3052,-0.7841,11.7196,1463,2806.36
19799,-1.8842,2.3403,9.4487,1501,2806.23
19804,1.9632,3.7158,10.2867,1477,2806.23
19809,-0.7673,1.6544,11.3449,1467,2806.23
19814,-2.0016,-1.3372,12.044,1465,2806.23
19819,-3.4931,1.4126,9.8557,1469,2806.23
19824,1.2869,3.201,10.1406,1484,2806.1
19829,1.555,2.6109,10.969,1469,2806.1
19834,-1.4557,-0.8691,12.1003,1469,2806.1
19839,-4.1096,0.5674,10.5943,1465,2806.1
19844,0.4729,2.9293,9.8258,1479,2806.1
19849,2.1775,3.5171,10.4974,1468,2806.1
19854,-1.8699,0.3148,11.9674,1463,2806.1
19859,-3.954,-0.3148,11.406,1471,2806.1
19864,-0.7494,2.5786,9.5098,1501,2805.97
19869,2.1332,3.7792,10.3118,1477,2805.97
19874,-2.0614,1.1396,11.5987,1464,2805.97
19879,-2.8551,-1.1109,11.892,1463,2805.97
19884,-2.5283,2.047,9.481,1497,2806.1
19889,1.6604,3.5374,10.2304,1465,2806.1
19894,0.2023,2.0542,11.2863,1479,2806.1
19899,-1.7681,-1.2127,12.1194,1467,2806.1
19904,-3.8415,1.1396,10.0784,1481,2806.1
19909,1.1217,3.1184,9.9838,1485,2806.1
19914,2.047,3.0191,10.835,1464,2806.1
19919,-1.4018,-0.4705,12.0859,1461,2806.1
19924,-4.1994,0.176,10.8721,1467,2806.1
19929,0.079,2.7761,9.6869,1488,2806.1
19934,2.1644,3.6667,10.41,1471,2806.1
19939,-2.2769,0.6045,11.8333,1479,2806.1
19944,-3.5398,-0.7015,11.5999,1467,2806.1
19949,-1.494,2.4205,9.4619,1499,2806.36
19954,1.9405,3.7601,10.2879,1469,2806.36
19959,-1.3659,1.494,11.5341,1465,2806.36
19964,-2.3691,-1.1779,12.0943,1477,2806.36
19969,-3.067,1.7561,9.7097,1504,2806.75
19974,1.4748,3.3926,10.1897,1469,2806.75
19979,1.1337,2.3188,11.0468,1477,2806.75
19984,-1.4293,-1.069,12.0895,1463,2806.75
19989,-4.142,0.7386,10.3501,1471,2806.75
19994,0.7865,2.9497,9.9036,1481,2807.02
19999,2.1799,3.2848,10.6578,1471,2807.02
20004,-1.7573,-0.073,12.0524,1463,2807.02
20009,-4.0857,-0.158,11.2156,1467,2807.02
20014,-0.3807,2.7162,9.5553,1500,2807.02
20019,2.1668,3.8032,10.3801,1465,2807.02
20024,-2.2984,1.008,11.7388,1468,2807.02
20029,-3.1125,-0.8547,11.8549,1464,2807.02
20034,-2.0877,2.2505,9.4643,1491,2807.02
20039,1.8375,3.6679,10.2939,1479,2807.02
20044,-0.4741,1.7047,11.3126,1477,2807.02
20049,-1.9597,-1.3467,12.1111,1460,2807.02
20054,-3.5973,1.385,9.8234,1465,2807.02
20059,1.2653,3.1627,10.1263,1483,2806.75
20064,1.6951,2.7114,10.9188,1460,2806.75
20069,-1.4461,-0.7566,12.1554,1468,2806.75
20074,-4.1372,0.4776,10.7033,1467,2806.75
20079,0.4537,2.9197,9.8019,1491,2806.75
20084,2.2087,3.5949,10.5249,1468,2806.75
20089,-1.895,0.3903,11.9291,1462,2806.75
20094,-3.8702,-0.4334,11.3737,1466,2806.75
20099,-0.8571,2.5438,9.4403,1501,2806.36
20104,2.1129,3.7661,10.3477,1477,2806.36
20109,-1.962,1.2282,11.5269,1463,2806.36
20114,-2.7162,-1.1049,11.8848,1469,2806.36
20119,-2.7138,1.9441,9.6043,1493,2805.7
20124,1.6532,3.5003,10.2352,1467,2805.7
20129,0.3807,2.0985,11.218,1471,2805.7
20134,-1.7298,-1.2007,12.1302,1464,2805.7
20139,-3.9875,1.0834,10.1215,1479,2805.7
20144,1.1241,3.1388,10.1095,1485,2806.1
20149,2.0794,3.0945,10.7727,1465,2806.1
20154,-1.5036,-0.3077,11.9938,1465,2806.1
20159,-4.0809,0.0802,10.9786,1464,2806.1
20164,-0.0311,2.7964,9.657,1491,2805.97
20169,2.1201,3.699,10.4256,1471,2805.97
20174,-2.2446,0.6895,11.8082,1471,2805.97
20179,-3.5686,-0.7051,11.7064,1468,2805.97
20184,-1.6089,2.405,9.4559,1497,2805.97
20189,1.9932,3.7637,10.3094,1470,2805.97
20194,-1.1839,1.5526,11.4203,1465,2805.97
20199,-2.2649,-1.2103,12.056,1471,2805.97
20204,-3.2058,1.6472,9.6726,1486,2806.23
20209,1.4317,3.3112,10.1562,1483,2806.23
20214,1.2522,2.4181,11.0289,1471,2806.23
20219,-1.4162,-0.9852,12.147,1466,2806.23
20224,-4.2018,0.6991,10.3956,1465,2806.23
20229,0.7374,2.9365,9.8689,1481,2806.1
20234,2.1907,3.3639,10.5955,1471,2806.1
20239,-1.8184,0.1209,11.9758,1464,2806.1
20244,-4.0618,-0.1736,11.2432,1468,2806.1
20249,-0.5076,2.7031,9.5732,1485,2806.23
20254,2.1428,3.8487,10.4016,1468,2806.23
20259,-2.3068,1.0415,11.6358,1464,2806.23
20264,-2.9688,-0.9385,11.8238,1461,2806.23
20269,-2.2326,2.0686,9.505,1503,2806.36
20274,1.7741,3.6129,10.2759,1471,2806.36
20279,-0.2382,1.8328,11.3234,1479,2806.36
20284,-1.9058,-1.3264,12.1685,1467,2806.36
20289,-3.7565,1.2917,9.9551,1480,2806.36
20294,1.2809,3.1939,10.0688,1479,2806.36
20299,1.8052,2.7904,10.8481,1465,2806.36
20304,-1.4413,-0.6895,12.074,1469,2806.36
20309,-4.2605,0.3843,10.7153,1466,2806.36
20314,0.3615,2.8898,9.7336,1487,2807.02
20319,2.2541,3.5985,10.4842,1469,2807.02
20324,-2.0327,0.4992,11.8669,1463,2807.02
20329,-3.7912,-0.5136,11.5029,1462,2807.02
20334,-1.0594,2.5379,9.42,1497,2806.75
20339,2.0794,3.7769,10.3178,1478,2806.75
20344,-1.7813,1.2713,11.4826,1463,2806.75
20349,-2.6624,-1.1923,11.9662,1466,2806.75
20354,-2.8635,1.8591,9.5876,1487,2806.23
20359,1.6137,3.4812,10.24,1467,2806.23
20364,0.6812,2.2146,11.1785,1465,2806.23
20369,-1.6412,-1.148,12.2164,1462,2806.23
20374,-4.0366,0.9589,10.1646,1483,2806.23
20379,1.0259,3.0358,9.9838,1484,2806.62
20384,2.1332,3.1639,10.7272,1477,2806.62
20389,-1.6592,-0.2502,12.0368,1469,2806.62
20394,-4.045,-0.0084,11.0349,1465,2806.62
20399,-0.1305,2.7617,9.6343,1479,2806.89
20404,2.1249,3.7517,10.3848,1469,2806.89
20409,-2.2362,0.8092,11.7436,1464,2806.89
20414,-3.4345,-0.7697,11.6861,1467,2806.89
20419,-1.7514,2.3439,9.4499,1503,2807.28
20424,1.9429,3.7134,10.2795,1481,2807.28
20429,-0.9828,1.6376,11.4299,1479,2807.28
20434,-2.2134,-1.2522,12.0799,1463,2807.28
20439,-3.3423,1.6209,9.7492,1467,2807.28
20444,1.4808,3.3004,10.2173,1485,2807.28
20449,1.3611,2.5247,10.9583,1469,2807.28
20454,-1.4305,-0.9888,12.0512,1465,2807.28
20459,-4.0929,0.65,10.5129,1464,2807.28
20464,0.571,2.9054,9.8617,1479,2807.28
20469,2.1955,3.4321,10.7164,1465,2807.28
20474,-1.8902,0.1736,11.9016,1459,2807.28
20479,-3.9109,-0.2298,11.3401,1481,2807.28
20484,-0.6261,2.6576,9.5146,1502,2807.02
20489,2.1368,3.8355,10.3705,1480,2807.02
20494,-2.1105,1.1169,11.6047,1464,2807.02
20499,-3.0682,-1.0379,11.9231,1467,2807.02
20504,-2.3296,2.0842,9.5146,1487,2806.49
20509,1.8352,3.565,10.2915,1465,2806.49
20514,-0.1293,1.8687,11.2276,1479,2806.49
20519,-1.81,-1.2881,12.1661,1469,2806.49
20524,-3.699,1.2342,9.9862,1480,2806.49
20529,1.1253,3.134,10.1095,1483,2805.44
20534,1.8914,2.8934,10.9092,1465,2805.44
20539,-1.4317,-0.6009,12.1111,1461,2805.44
20544,-4.1683,0.34,10.8062,1465,2805.44
20549,0.2801,2.8443,9.6774,1491,2805.31
20554,2.235,3.6476,10.4447,1470,2805.31
20559,-2.1703,0.5327,11.807,1468,2805.31
20564,-3.6871,-0.5866,11.5496,1465,2805.31
20569,-1.2019,2.4624,9.5074,1494,2805.05
20574,2.0423,3.8068,10.3884,1471,2805.05
20579,-1.67,1.3431,11.4826,1463,2805.05
20584,-2.5007,-1.1959,11.9447,1477,2805.05
20589,-2.9904,1.7633,9.6486,1499,2805.05
20594,1.5347,3.3662,10.2185,1471,2805.05
20599,0.8859,2.2733,11.1115,1466,2805.05
20604,-1.5742,-1.1265,12.0847,1461,2805.05
20609,-4.118,0.923,10.3214,1467,2805.05
20614,0.9373,3.0442,10.0018,1483,2804.79
20619,2.1679,3.2417,10.6374,1477,2804.79
20624,-1.804,-0.1628,11.9686,1466,2804.79
20629,-3.9588,-0.0814,11.1701,1467,2804.79
20634,-0.3316,2.7222,9.5972,1504,2804.79
20639,2.0602,3.7876,10.3777,1468,2804.79
20644,-2.2218,0.917,11.7064,1467,2804.79
20649,-3.2896,-0.8787,11.8321,1465,2804.79
20654,-1.9178,2.2901,9.4655,1490,2804.66
20659,1.8854,3.6871,10.2771,1469,2804.66
20664,-0.6524,1.6759,11.3689,1479,2804.66
20669,-2.0411,-1.2701,12.0572,1464,2804.66
20674,-3.4764,1.4413,9.827,1471,2804.66
20679,1.2701,3.2358,10.1406,1477,2804.66
20684,1.6017,2.6276,11.0121,1468,2804.66
20689,-1.3575,-0.8559,12.1063,1467,2804.66
20694,-4.2042,0.48,10.5788,1465,2804.66
20699,0.516,2.8443,9.8282,1495,2804.92
20704,2.2266,3.5207,10.5153,1469,2804.92
20709,-2.1153,0.2921,11.9638,1463,2804.92
20714,-3.7373,-0.3519,11.4287,1467,2804.92
20719,-0.8823,2.5738,9.5433,1501,2804.92
20724,2.0087,3.8367,10.3178,1471,2804.92
20729,-1.9513,1.245,11.6083,1464,2804.92
20734,-2.7557,-1.1049,11.9016,1477,2804.92
20739,-2.6612,1.9381,9.5589,1503,2805.05
20744,1.719,3.4596,10.2173,1465,2805.05
20749,0.3915,2.0818,11.2348,1471,2805.05
20754,-1.6532,-1.3168,12.1123,1462,2805.05
20759,-3.8547,1.0439,10.1658,1479,2805.05
20764,1.0187,3.0382,10.0161,1479,2805.18
20769,2.065,3.1005,10.8266,1471,2805.18
20774,-1.4664,-0.3783,12.1003,1471,2805.18
20779,-4.2617,0.1508,11.0133,1465,2805.18
20784,0.1221,2.8335,9.6857,1479,2805.31
20789,2.2087,3.7553,10.4232,1471,2805.31
20794,-2.3619,0.6716,11.8286,1468,2805.31
20799,-3.4465,-0.6572,11.6945,1467,2805.31
20804,-1.5419,2.4146,9.4272,1502,2805.18
20809,1.9082,3.6943,10.2508,1478,2805.18
20814,-1.1839,1.5083,11.4467,1463,2805.18
20819,-2.2721,-1.2797,12.0644,1468,2805.18
20824,-3.2094,1.634,9.8007,1468,2805.18
20829,1.4293,3.3196,10.1801,1482,2805.31
20834,1.2462,2.4409,11.0911,1469,2805.31
20839,-1.4688,-0.9984,12.1039,1465,2805.31
20844,-4.1803,0.7338,10.4004,1461,2805.31
20849,0.8021,2.9868,9.894,1481,2805.18
20854,2.2254,3.389,10.6015,1468,2805.18
20859,-2.2625,0.7685,11.8022,1465,2805.18
20864,-4.0438,-0.2382,11.2372,1481,2805.18
20869,-0.4884,2.6552,9.5301,1499,2805.18
20874,2.0973,3.8032,10.3501,1479,2805.18
20879,-2.1919,1.0259,11.6957,1463,2805.18
20884,-3.1591,-1.0259,11.8274,1463,2805.18
20889,-2.1919,2.2003,9.5122,1491,2805.57
20894,1.8567,3.6547,10.3011,1467,2805.57
20899,-0.2789,1.8268,11.3222,1479,2805.57
20904,-1.9034,-1.3024,12.056,1467,2805.57
20909,-3.6931,1.2845,9.9551,1481,2805.57
20914,1.2749,3.1484,10.082,1481,2805.7
20919,1.8483,2.8252,10.8314,1467,2805.7
20924,-1.3946,-0.6632,12.056,1464,2805.7
20929,-4.1922,0.2945,10.7188,1464,2805.7
20934,0.2993,2.8084,9.7169,1485,2805.7
20939,2.2027,3.6117,10.5117,1469,2805.7
20944,-2.047,0.4633,11.8872,1467,2805.7
20949,-3.8044,-0.5279,11.5089,1465,2805.7
20954,-1.0894,2.5031,9.4511,1501,2805.57
20959,2.0842,3.8403,10.3202,1469,2805.57
20964,-1.7933,1.4042,11.5855,1464,2805.57
20969,-2.5618,-1.1552,11.9758,1480,2805.57
20974,-2.8228,1.8483,9.5948,1501,2804.92
20979,1.5371,3.3734,10.1837,1463,2804.92
20984,0.7422,2.1775,11.1259,1479,2804.92
20989,-1.5694,-1.2234,12.1841,1462,2804.92
20994,-3.9851,0.8787,10.2795,1468,2804.92
20999,0.8643,3.0107,9.9719,1483,2805.7
21004,2.071,3.2034,10.7069,1479,2805.7
21009,-1.5239,-0.176,12.1003,1465,2805.7
21014,-4.1863,-0.018,11.066,1463,2805.7
21019,-0.0994,2.7641,9.651,1509,2805.31
21024,2.1727,3.7781,10.3789,1469,2805.31
21029,-2.2913,0.838,11.7687,1465,2805.31
21034,-3.3507,-0.8739,11.6454,1463,2805.31
21039,-1.7813,2.3116,9.4332,1499,2805.44
21044,1.9201,3.6595,10.2915,1479,2805.44
21049,-0.9146,1.6053,11.412,1479,2805.44
21054,-2.1392,-1.2809,12.0321,1463,2805.44
21059,-3.3986,1.5383,9.8258,1465,2805.44
21064,1.3803,3.2549,10.1299,1481,2806.49
21069,1.5012,2.5833,11.0097,1463,2806.49
21074,-1.4281,-0.8655,12.129,1467,2806.49
21079,-4.1396,0.5914,10.5536,1465,2806.49
21084,0.5435,2.9353,9.833,1493,2806.75
21089,2.2482,3.4931,10.5225,1467,2806.75
21094,-1.9573,0.1856,11.8573,1461,2806.75
21099,-3.8978,-0.3783,11.3545,1465,2806.75
21104,-0.7829,2.6001,9.5062,1499,2806.62
21109,2.0626,3.8056,10.3262,1471,2806.62
21114,-2.0686,1.1396,11.6298,1465,2806.62
21119,-2.9113,-1.0487,11.9112,1477,2806.62
21124,-2.4684,2.0686,9.5289,1485,2807.02
21129,1.7765,3.6547,10.2843,1463,2807.02
21134,0.091,1.974,11.2144,1469,2807.02
21139,-1.828,-1.2737,12.1194,1464,2807.02
21144,-3.8499,1.1504,10.0078,1479,2807.02
21149,1.2019,3.1304,10.082,1483,2806.89
21154,1.9644,2.9018,10.7751,1466,2806.89
21159,-1.5215,-0.5447,12.0309,1467,2806.89
21164,-4.1001,0.1987,10.7751,1464,2806.89
21169,0.0922,2.7976,9.7001,1485,2807.02
21174,2.1165,3.6799,10.4543,1471,2807.02
21179,-2.2075,0.6249,11.9064,1468,2807.02
21184,-3.6332,-0.5674,11.5963,1469,2807.02
21189,-1.3204,2.4852,9.5325,1503,2806.89
21194,2.0231,3.7948,10.3034,1471,2806.89
21199,-1.4712,1.3886,11.473,1463,2806.89
21204,-2.496,-1.2785,11.9614,1471,2806.89
21209,-3.0478,1.7298,9.6666,1483,2806.49
21214,1.585,3.3615,10.2376,1477,2806.49
21219,0.9301,2.2781,11.1342,1469,2806.49
21224,-1.549,-1.1313,12.1506,1465,2806.49
21229,-4.1001,0.8583,10.3166,1461,2806.49
21234,0.8416,3.0071,9.9455,1479,2806.36
21239,2.1213,3.3124,10.653,1472,2806.36
21244,-1.7334,-0.073,11.9806,1463,2806.36
21249,-4.0606,0.0012,11.1666,1471,2806.36
21254,-0.2586,2.7869,9.5948,1497,2806.36
21259,2.1691,3.8391,10.3645,1467,2806.36
21264,-2.2841,0.9038,11.6777,1462,2806.36
21269,-3.225,-0.9373,11.8022,1465,2806.36
21274,-1.9513,2.2027,9.4391,1503,2806.49
21279,1.8555,3.6093,10.258,1471,2806.49
21284,-0.6177,1.6975,11.3509,1481,2806.49
21289,-2.1249,-1.2689,12.1853,1463,2806.49
21294,-3.5518,1.4664,9.8928,1477,2806.49
21299,1.306,3.2573,10.1634,1477,2806.49
21304,1.6161,2.6588,10.9882,1463,2806.49
21309,-1.391,-0.7793,12.0811,1467,2806.49
21314,-4.1144,0.4717,10.5836,1465,2806.49
21319,0.48,2.8898,9.7851,1493,2806.89
21324,2.2254,3.5015,10.5752,1469,2806.89
21329,-1.9944,0.261,11.9159,1464,2806.89
21334,-3.8427,-0.4286,11.4527,1461,2806.89
21339,-0.8535,2.5702,9.4332,1499,2807.67
21344,2.0806,3.8223,10.2915,1477,2807.67
21349,-1.9824,1.1756,11.5365,1465,2807.67
21354,-2.8898,-1.0918,11.971,1471,2807.67
21359,-2.5606,2.0087,9.5888,1491,2807.67
21364,1.8232,3.5638,10.2639,1469,2807.67
21369,0.2586,2.0159,11.2539,1469,2807.67
21374,-1.7549,-1.2103,12.1266,1461,2807.67
21379,-3.8475,1.1217,10.0748,1479,2807.67
21384,1.0989,3.0323,9.9826,1483,2807.94
21389,2.0051,2.9473,10.8062,1471,2807.94
21394,-1.4748,-0.4992,12.1111,1467,2807.94
21399,-4.197,0.1628,10.9223,1464,2807.94
21404,0.1161,2.7964,9.6845,1481,2807.54
21409,2.1823,3.7589,10.4459,1469,2807.54
21414,-2.3607,0.6381,11.7902,1468,2807.54
21419,-3.4488,-0.5674,11.6586,1468,2807.54
21424,-1.3767,2.4241,9.4487,1503,2807.41
21429,1.9537,3.7661,10.3082,1481,2807.41
21434,-1.2761,1.4808,11.4431,1465,2807.41
21439,-2.4696,-1.2749,12.0189,1464,2807.41
21444,-3.1352,1.7154,9.6187,1467,2807.41
21449,1.6149,3.3016,10.2101,1489,2806.89
21454,1.0223,2.3415,11.0528,1465,2806.89
21459,-1.5538,-1.1157,12.1482,1467,2806.89
21464,-4.0438,0.7829,10.3645,1464,2806.89
21469,0.7147,2.9497,9.9132,1482,2806.89
21474,2.1548,3.3674,10.6997,1469,2806.89
21479,-2.1847,0.7506,11.801,1463,2806.89
21484,-4.1264,-0.1018,11.1833,1471,2806.89
21489,-0.2969,2.6935,9.5589,1501,2806.75
21494,2.2218,3.8307,10.3573,1478,2806.75
21499,-2.2601,0.9625,11.6681,1465,2806.75
21504,-3.1915,-0.9349,11.7567,1465,2806.75
21509,-2.0435,2.1811,9.4595,1499,2806.62
21514,1.8399,3.6081,10.3058,1469,2806.62
21519,-0.6393,1.7538,11.3294,1477,2806.62
21524,-2.0734,-1.2498,12.0488,1465,2806.62
21529,-3.5494,1.4329,9.9048,1481,2806.62
21534,1.2953,3.2585,10.1526,1483,2807.67
21539,1.6891,2.7545,10.9188,1466,2807.67
21544,-1.4353,-0.7278,12.1278,1464,2807.67
21549,-4.124,0.4776,10.6757,1466,2807.67
21554,0.4657,2.8359,9.7624,1491,2807.54
21559,2.2158,3.5303,10.495,1471,2807.54
21564,-2.1249,0.3089,11.8226,1469,2807.54
21569,-3.7038,-0.4106,11.4898,1464,2807.54
21574,-0.9194,2.5666,9.5349,1497,2808.2
21579,1.968,3.8595,10.3908,1471,2808.2
21584,-1.9357,1.2175,11.5843,1465,5828.07
21589,-2.8036,-1.0786,11.965,1477,5828.07
21594,-2.5666,2.0351,9.5541,1493,5421.03
21599,1.7262,3.5219,10.228,1467,5421.03
21604,0.4034,2.0411,11.1606,1465,5421.03
21609,-1.7322,-1.2438,12.1482,1463,5421.03
21614,-3.8223,1.0702,10.0676,1471,5421.03
21619,1.0487,3.0706,10.0078,1480,2808.59
21624,1.9537,3.0358,10.8397,1477,2808.59
21629,-1.5191,-0.486,12.0752,1467,2808.59
21634,-4.118,0.1472,10.8709,1464,2808.59
21639,0.0826,2.7761,9.596,1483,2808.59
21644,2.2027,3.7505,10.4339,1470,2808.59
21649,-2.3308,0.6823,11.8309,1470,2808.59
21654,-3.4919,-0.5878,11.655,1468,2808.59
21659,-1.391,2.4253,9.4248,1503,2808.07
21664,1.968,3.7792,10.3034,1478,2808.07
21669,-1.2929,1.4664,11.4335,1469,5826.37
21674,-2.3798,-1.312,12.0117,1463,5826.37
21679,-3.0574,1.6316,9.7324,1467,5826.37
21684,1.4186,3.3423,10.2161,1483,5419.08
21689,0.996,2.3727,11.1007,1466,5419.08
21694,-1.5395,-1.0774,12.1266,1465,5419.08
21699,-4.1156,0.8188,10.4124,1463,5419.08
21704,0.7757,3.0406,9.8976,1483,2807.41
21709,2.223,3.377,10.7081,1469,2807.41
21714,-1.8435,-0.0359,11.9866,1461,2807.41
21719,-3.9073,-0.1221,11.2132,1480,2807.41
21724,-0.3555,2.6731,9.4942,1503,2807.28
21729,2.1009,3.7673,10.3358,1477,2807.28
21734,-2.1476,0.9589,11.6478,1461,5825.81
21739,-3.2406,-0.9397,11.795,1465,5825.81
21744,-2.0506,2.235,9.4882,1501,5418.1
21749,1.8914,3.644,10.2771,1465,5418.1
21754,-0.5794,1.743,11.3557,1477,5418.1
21759,-2.0758,-1.2234,12.1278,1469,5418.1
21764,-3.5757,1.4138,9.9108,1479,5418.1
21769,1.342,3.2202,10.0963,1484,2807.15
21774,1.6975,2.7569,10.9427,1465,2807.15
21779,-1.3779,-0.7506,12.0787,1459,2807.15
21784,-4.2066,0.4405,10.6279,1465,2807.15
21789,0.4884,2.8563,9.754,1489,2807.41
21794,2.2398,3.5003,10.5297,1467,2807.41
21799,-2.059,0.2682,11.9231,1469,2807.41
21804,-3.8547,-0.4345,11.4886,1465,2807.41
21809,-0.8679,2.575,9.5229,1503,2807.41
21814,2.0973,3.8211,10.3022,1469,2807.41
21819,-1.9956,1.2522,11.6059,1464,2807.41
21824,-2.7461,-1.0534,11.9602,1479,2807.41
21829,-2.6073,1.9824,9.59,1501,2807.54
21834,1.6688,3.5374,10.2592,1469,2807.54
21839,0.4238,2.0853,11.2551,1471,2807.54
21844,-1.7538,-1.2905,12.0464,1465,2807.54
21849,-3.9241,1.0858,10.0425,1477,2807.54
21854,1.1241,3.067,10.0377,1481,2807.28
21859,2.0219,3.0454,10.7931,1471,2807.28
21864,-1.5981,-0.4286,12.1051,1467,2807.28
21869,-4.13,0.1724,10.9774,1467,2807.28
21874,0.006,2.7869,9.663,1480,2807.54
21879,2.1835,3.7649,10.4543,1465,2807.54
21884,-2.2362,0.753,11.8046,1469,2807.54
21889,-3.5781,-0.6644,11.6286,1465,2807.54
21894,-1.4114,2.4217,9.481,1484,2807.28
21899,2.0099,3.7481,10.2592,1479,2807.28
21911,-5.2337,5.9999,45.6909,1468,5825.24
21915,-3.1747,1.6652,9.6989,1487,5418.1
21920,1.5107,3.3064,10.1706,1483,5418.1
21925,1.1145,2.3918,11.0768,1479,5418.1
21930,-1.5215,-1.1073,12.1781,1467,5418.1
21935,-4.1156,0.7673,10.386,1465,5418.1
21940,0.7925,3.0275,9.93,1481,2807.02
21945,2.2302,3.3938,10.6698,1471,2807.02
21950,-1.7286,0.0024,12.0093,1465,2807.02
21955,-4.0031,-0.176,11.2432,1469,2807.02
21960,-0.4094,2.6995,9.5612,1482,2806.89
21965,2.1165,3.7984,10.3286,1479,2806.89
21970,-2.2673,0.9732,11.7088,1463,2806.89
21975,-3.1496,-0.9673,11.7543,1467,2806.89
21980,-2.1009,2.1727,9.481,1499,2807.54
21985,1.8268,3.626,10.2747,1477,2807.54
21990,-0.4717,1.8208,11.3665,1479,2807.54
21995,-2.0327,-1.2953,12.0704,1469,2807.54
22000,-3.6045,1.3946,9.8761,1477,2807.54
22005,1.2953,3.2046,10.088,1479,2806.89
22010,1.7514,2.7485,10.9044,1467,2806.89
22015,-1.4018,-0.7039,12.0823,1471,2806.89
22020,-4.2557,0.3735,10.6614,1465,2806.89
22025,0.4741,2.8467,9.7911,1493,2807.15
22030,2.2051,3.5578,10.4986,1471,2807.15
22035,-2.1715,0.334,11.9135,1467,2807.15
22040,-3.7326,-0.486,11.473,1465,2807.15
22045,-1.008,2.5486,9.5062,1500,2806.89
22050,2.0027,3.8283,10.2867,1481,2806.89
22055,-1.8531,1.324,11.6011,1465,2806.89
22060,-2.7162,-1.1109,11.9722,1479,2806.89
22065,-2.6659,1.9573,9.59,1513,2806.23
22070,1.6472,3.4824,10.2101,1463,2806.23
22075,0.5016,2.0889,11.2073,1467,2806.23
22080,-1.6532,-1.2641,12.1183,1465,2806.23
22085,-3.9756,1.0283,10.094,1478,2806.23
22090,1.0738,3.0406,10.0293,1483,2806.49
22095,2.0818,3.1149,10.7715,1471,2806.49
22100,-1.652,-0.3855,12.1003,1477,2806.49
22105,-4.0917,0.1173,10.9571,1469,2806.49
22110,-0.0491,2.7653,9.6642,1479,2805.84
22115,2.1787,3.7828,10.4076,1469,2805.84
22120,-2.3068,0.7889,11.8166,1470,2805.84
22125,-3.3962,-0.6871,11.6215,1467,2805.84
22130,-1.6029,2.3727,9.4547,1500,2805.84
22135,1.9704,3.7218,10.2735,1483,2805.84
22140,-1.1576,1.6364,11.3952,1469,2805.84
22145,-2.2936,-1.2857,12.0584,1467,2805.84
22150,-3.2441,1.5766,9.7983,1469,2805.84
22155,1.4138,3.2705,10.1873,1482,2805.57
22160,1.2534,2.496,11.0504,1469,2805.57
22165,-1.506,-0.9792,12.1757,1467,2805.57
22170,-4.1013,0.6859,10.4256,1467,2805.57
22175,0.7075,2.9939,9.906,1481,2806.62
22180,2.1943,3.4393,10.574,1468,2806.62
22185,-1.8352,0.097,12.0033,1461,2806.62
22190,-3.9169,-0.2442,11.2611,1481,2806.62
22195,-0.5375,2.6863,9.5385,1496,2806.36
22200,2.0865,3.7757,10.3226,1481,2806.36
22205,-2.229,1.0391,11.6346,1467,2806.36
22210,-3.0083,-0.9984,11.8309,1468,2806.36
22215,-2.2482,2.0937,9.511,1499,2806.49
22220,1.737,3.6248,10.2568,1469,2806.49
22225,-0.1712,1.8711,11.3581,1480,2806.49
22230,-1.895,-1.2402,12.1218,1468,2806.49
22235,-3.6859,1.3192,9.9252,1481,2806.49
22240,1.2713,3.1807,10.1143,1482,2806.36
22245,1.8232,2.824,10.8326,1469,2806.36
22250,-1.4676,-0.6596,12.0644,1461,2806.36
22255,-3.9911,0.267,10.7931,1469,2806.36
22260,0.1915,2.8311,9.6726,1492,2806.62
22265,2.0961,3.5901,10.4686,1471,2806.62
22270,-2.1284,0.5411,11.9435,1471,2806.62
22275,-3.7781,-0.5662,11.5448,1471,2806.62
22280,-1.0942,2.5079,9.4104,1497,2806.75
22285,2.0901,3.8199,10.3286,1472,2806.75
22290,-1.7538,1.3252,11.4982,1467,2806.75
22295,-2.5343,-1.1456,12.0225,1481,2806.75
22300,-2.7833,1.8842,9.6379,1511,2806.62
22305,1.573,3.4321,10.2029,1471,2806.62
22310,0.7087,2.1979,11.1294,1477,2806.62
22315,-1.555,-1.148,12.0871,1463,2806.62
22320,-3.9816,0.9086,10.2208,1479,2806.62
22325,0.8763,3.0143,10.0341,1485,2806.36
22330,2.1069,3.1591,10.732,1479,2806.36
22335,-1.6472,-0.2658,12.0225,1469,2806.36
22340,-4.0905,0.0287,11.0588,1467,2806.36
22345,-0.1341,2.7617,9.8043,1500,2806.23
22350,2.1955,3.8008,10.3681,1467,2806.23
22355,-2.2218,0.8404,11.7017,1471,2806.23
22360,-3.4093,-0.8356,11.6729,1469,2806.23
22365,-1.7202,2.3116,9.4774,1493,2806.23
22370,2.0195,3.7086,10.2915,1480,2806.23
22375,-0.9816,1.6281,11.3389,1479,2806.23
22380,-2.1608,-1.2881,12.0404,1464,2806.23
22385,-3.3531,1.5227,9.8174,1463,2806.23
22390,1.3132,3.2801,10.1359,1483,2806.1
22395,1.4234,2.5857,10.9559,1463,2806.1
22400,-1.5335,-0.9313,12.1206,1470,2806.1
22405,-4.0127,0.6213,10.58,1468,2806.1
22410,0.5555,2.9377,9.8102,1495,2806.23
22415,2.1739,3.5027,10.5704,1469,2806.23
22420,-1.8735,0.1867,11.8896,1464,2806.23
22425,-3.9049,-0.3244,11.309,1467,2806.23
22430,-0.6584,2.6468,9.4415,1498,2805.97
22435,2.0877,3.8642,10.331,1481,2805.97
22440,-2.1476,1.1049,11.5496,1467,2805.97
22445,-2.8706,-1.0439,11.9064,1471,2805.97
22450,-2.3954,2.0099,9.5146,1486,2805.97
22455,1.6807,3.5817,10.2723,1469,2805.97
22460,0.0646,1.9345,11.242,1471,2805.97
22465,-1.798,-1.227,12.1171,1465,2805.97
22470,-3.7601,1.2031,9.9886,1482,2805.97
22475,1.1121,3.1639,10.0963,1485,2806.23
22480,1.9249,2.9209,10.8601,1468,2806.23
22485,-1.9716,0.2693,11.9171,1471,2806.23
22490,-4.2222,0.2286,10.8014,1467,2806.23
22495,0.2454,2.7833,9.7205,1481,2806.1
22500,2.2374,3.6895,10.4567,1471,2806.1
22505,-2.381,0.5519,11.8286,1469,2806.1
22510,-3.4848,-0.5806,11.6071,1479,2806.1
22515,-1.2809,2.4612,9.4798,1507,2805.97
22520,1.9429,3.8188,10.2448,1479,2805.97
22525,-1.4246,1.4353,11.4934,1462,2805.97
22530,-2.5031,-1.2546,12.0524,1479,2805.97
22535,-2.9676,1.7705,9.6343,1484,2805.7
22540,1.6915,3.4393,10.1933,1479,2805.7
22545,0.9194,2.3188,11.1474,1471,2805.7
22550,-1.5479,-1.1444,12.141,1465,2805.7
22555,-3.9756,0.8068,10.3298,1465,2805.7
22560,0.8056,2.9844,9.9228,1485,2805.57
22565,2.083,3.286,10.6961,1491,2805.57
22570,-1.725,-0.1652,12.0057,1464,2805.57
22575,-4.0318,-0.0251,11.1474,1478,2805.57
22580,-0.2861,2.7198,9.5672,1503,2805.18
22585,2.1763,3.8391,10.3884,1471,2805.18
22590,-2.3415,0.972,11.7412,1467,2805.18
22595,-3.1939,-0.832,11.7675,1467,2805.18
22600,-1.9489,2.2003,9.4535,1485,2804.66
22605,1.8818,3.6883,10.2819,1471,2804.66
22610,-0.6201,1.7274,11.3581,1480,2804.66
22615,-2.059,-1.3132,12.0129,1471,2804.66
22620,-3.4955,1.3886,9.9072,1479,2804.66
22625,1.2139,3.2022,10.1239,1471,2804.52
22630,1.6245,2.7054,10.9858,1465,2804.52
22635,-1.4329,-0.7518,12.0919,1468,2804.52
22640,-4.1911,0.5016,10.6781,1477,2804.52
22645,0.5171,2.9353,9.7839,1491,2804.26
22650,2.2529,3.5889,10.5225,1471,2804.26
22655,-2.1368,0.2813,11.874,1469,2804.26
22660,-3.6859,-0.4417,11.467,1482,2804.26
22665,-0.9266,2.5426,9.511,1499,2803.87
22670,2.0111,3.8271,10.3202,1477,2803.87
22675,-1.8495,1.2234,11.5377,1468,2803.87
22680,-2.812,-1.1157,11.9746,1483,2803.87
22685,-2.6911,1.9704,9.6283,1513,2804.0
22690,1.7358,3.4728,10.2615,1468,2804.0
22695,0.4298,2.0842,11.2097,1471,2804.0
22700,-1.6652,-1.1624,12.0776,1464,2804.0
22705,-3.8319,1.069,10.167,1479,2804.0
22710,0.9565,3.0658,9.9587,1483,2803.87
22715,2.071,3.1328,10.7943,1480,2803.87
22720,-1.506,-0.3807,11.9722,1469,2803.87
22725,-4.2042,0.0682,10.9619,1467,2803.87
22730,0.0156,2.7426,9.6642,1495,2804.0
22735,2.2218,3.735,10.4842,1468,2804.0
22740,-2.3547,0.7338,11.7603,1467,2804.0
22745,-3.4321,-0.7278,11.7029,1466,2804.0
22750,-1.6005,2.3547,9.511,1495,2803.48
22755,1.9573,3.796,10.2424,1479,2803.48
22760,-1.1372,1.5921,11.406,1481,2803.48
22765,-2.2649,-1.2881,12.0416,1465,2803.48
22770,-3.2765,1.5909,9.6893,1468,2803.48
22775,1.4581,3.3136,10.2496,1471,2803.21
22780,1.3288,2.5007,11.0492,1467,2803.21
22785,-1.4629,-1.0235,12.0776,1470,2803.21
22790,-4.1432,0.6081,10.5105,1467,2803.21
22795,0.6452,2.9293,9.918,1493,2802.82
22800,2.162,3.468,10.6434,1471,2802.82
22805,-2.0243,0.1628,11.9818,1464,2802.82
22810,-3.8235,-0.1987,11.388,1467,2802.82
22815,-0.6704,2.6659,9.578,1503,2802.82
22820,2.083,3.8307,10.3022,1481,2802.82
22825,-2.0303,1.1672,11.6143,1467,2802.82
22830,-2.976,-1.0798,11.8573,1481,2802.82
22835,-2.3451,2.0758,9.5589,1507,2802.82
22840,1.7478,3.5183,10.2651,1467,2802.82
22845,0.0048,1.9345,11.2587,1471,2802.82
22850,-1.8375,-1.2773,12.0524,1463,2802.82
22855,-3.7721,1.2019,10.1239,1478,2802.82
22860,1.1073,3.1125,10.0688,1487,2802.82
22865,1.9537,3.0131,10.8505,1471,2802.82
22870,-1.4928,-0.498,12.0033,1469,2802.82
22875,-4.1719,0.2741,10.8936,1467,2802.82
22880,0.2143,2.8431,9.6594,1479,2802.95
22885,2.2302,3.705,10.4291,1469,2802.95
22890,-2.3882,0.5997,11.7687,1470,2802.95
22895,-3.4069,-0.6369,11.6669,1467,2802.95
22900,-1.3874,2.381,9.4451,1499,2803.21
22905,1.8304,3.7577,10.2915,1479,2803.21
22910,-1.3791,1.5012,11.5101,1467,2803.21
22915,-2.3786,-1.2402,12.0632,1464,2803.21
22920,-3.1125,1.7585,9.7025,1467,2803.21
22925,1.4904,3.4237,10.2149,1481,2803.21
22930,1.1253,2.4026,11.0684,1469,2803.21
22935,-1.5155,-1.0738,12.0871,1465,2803.21
22940,-4.112,0.7661,10.3585,1469,2803.21
22945,0.8188,2.9772,9.918,1493,2803.48
22950,2.1739,3.3196,10.6745,1468,2803.48
22955,-1.8088,-0.0192,11.8992,1463,2803.48
22960,-3.9768,-0.1544,11.248,1479,2803.48
22965,-0.4357,2.6647,9.6235,1503,2803.35
22970,2.0901,3.8152,10.3477,1478,2803.35
22975,-2.2697,1.0151,11.6191,1467,2803.35
22980,-3.067,-0.9301,11.7914,1478,2803.35
22985,-2.138,2.2482,9.5325,1503,2803.08
22990,1.8603,3.6691,10.1981,1465,2803.08
22995,-0.334,1.8471,11.3449,1480,2803.08
23000,-1.8962,-1.3132,12.0656,1465,2803.08
23005,-3.5614,1.2989,9.9491,1483,2803.08
23010,1.1803,3.1113,10.0413,1483,2803.21
23015,1.7909,2.8168,10.914,1469,2803.21
23020,-1.4425,-0.6883,12.0764,1464,2803.21
23025,-4.1707,0.3783,10.8062,1479,2803.21
23030,0.2885,2.9066,9.7276,1482,2803.08
23035,2.15,3.6775,10.4579,1465,2803.08
23040,-2.1823,0.4956,11.8657,1469,2803.08
23045,-3.6966,-0.4848,11.5173,1466,2803.08
23050,-1.0774,2.5355,9.5014,1509,2803.21
23055,2.0411,3.79,10.3214,1479,2803.21
23060,-1.7406,1.3384,11.552,1467,2803.21
23065,-2.5271,-1.2019,11.9088,1472,2803.21
23070,-2.8323,1.8124,9.645,1479,2803.48
23075,1.4964,3.4034,10.2292,1479,2803.48
23080,0.7937,2.2565,11.1965,1471,2803.48
23085,-1.5634,-1.1672,12.2044,1466,2803.48
23090,-3.9097,0.8835,10.2891,1469,2803.48
23095,0.8464,3.0263,9.9814,1480,2803.74
23100,2.1452,3.2525,10.671,1469,2803.74
23105,-1.6915,-0.1365,12.0129,1465,2803.74
23110,-3.9816,-0.0096,11.0804,1480,2803.74
23115,-0.2203,2.7605,9.5972,1511,2804.26
23120,2.0949,3.7577,10.3549,1477,2804.26
23125,-2.326,0.814,11.7483,1467,2804.26
23130,-3.1951,-0.9122,11.7723,1481,2804.26
23135,-1.8818,2.2529,9.5026,1509,2804.52
23140,1.7825,3.6488,10.2472,1469,2804.52
23145,-0.7374,1.6879,11.4156,1485,2804.52
23150,-2.0877,-1.2797,12.0392,1469,2804.52
23155,-3.4417,1.5215,9.9,1483,2804.52
23160,1.3551,3.3052,10.1239,1483,2804.66
23165,1.6113,2.6205,11.0026,1465,2804.66
23170,-1.4545,-0.8703,12.0967,1464,2804.66
23175,-4.0187,0.4824,10.6051,1469,2804.66
23180,0.4741,2.8515,9.7564,1497,2804.66
23185,2.1512,3.4644,10.4854,1477,2804.66
23190,-2.0159,0.2741,11.8956,1469,5819.59
23195,-3.8068,-0.3783,11.4335,1467,5819.59
23200,-0.8763,2.648,9.5337,1501,5414.67
23205,2.0219,3.8642,10.3621,1471,5414.67
23210,-2.0674,1.2534,11.6586,1467,5414.67
23215,-2.7294,-1.0032,11.9363,1481,5414.67
23220,-2.4972,1.9752,9.5924,1509,2804.66
23225,1.6568,3.5123,10.2101,1470,2804.66
23230,0.3112,2.0255,11.2025,1479,2804.66
23235,-2.314,0.8847,11.7879,1465,2804.66
23240,-3.8427,1.0391,10.0712,1479,2804.66
23245,1.0319,3.043,10.0975,1486,2805.05
23250,2.0051,2.9772,10.7452,1483,2805.05
23255,-1.6077,-0.4657,12.0728,1469,2805.05
23260,-4.0378,0.1784,10.9666,1469,2805.05
23265,0.0048,2.8276,9.7157,1502,2805.05
23270,2.1356,3.7757,10.4519,1469,2805.05
23275,-2.2242,0.7566,11.8501,1469,2805.05
23280,-3.468,-0.6572,11.6238,1467,2805.05
23285,-1.4772,2.4062,9.4619,1497,2805.18
23290,2.0027,3.7481,10.2843,1479,2805.18
23295,-1.2677,1.4988,11.4096,1477,2805.18
23300,-2.326,-1.3384,11.983,1465,2805.18
23305,-3.1089,1.6209,9.7528,1468,2805.18
23310,1.3431,3.2789,10.1909,1481,2805.31
23315,1.1504,2.4337,11.0684,1467,2805.31
23320,-1.4964,-0.9936,12.1302,1471,2805.31
23325,-4.1575,0.7841,10.4387,1468,2805.31
23330,0.8009,2.9999,9.8821,1493,2805.84
23335,2.2553,3.383,10.6051,1465,2805.84
23340,-1.8878,0.0251,11.9866,1465,2805.84
23345,-3.8547,-0.1915,11.2767,1465,2805.84
23350,-0.4788,2.6791,9.4846,1499,2805.84
23355,2.0626,3.796,10.3465,1477,2805.84
23360,-2.247,0.9948,11.6897,1466,2805.84
23365,-3.0765,-1.0187,11.7914,1477,2805.84
23370,-2.1907,2.1632,9.4367,1485,2805.84
23375,1.8052,3.62,10.2831,1467,2805.84
23380,-0.346,1.8387,11.3306,1471,2805.84
23385,-1.9465,-1.1947,12.1099,1467,2805.84
23390,-3.5554,1.3467,9.9443,1479,2805.84
23395,1.1791,3.2968,10.094,1487,2805.97
23400,1.7753,2.7809,10.8649,1469,2805.97
23405,-1.3635,-0.6548,12.0656,1471,2805.97
23410,-4.221,0.2981,10.6769,1466,2805.97
23415,0.3627,2.8491,9.8078,1489,2806.1
23420,2.2015,3.5674,10.4962,1479,2806.1
23425,-2.1799,0.4034,11.8824,1471,2806.1
23430,-3.6895,-0.4669,11.4946,1467,2806.1
23435,-1.1265,2.5534,9.5181,1502,2805.97
23440,1.9968,3.8762,10.3034,1477,2805.97
23445,-1.7514,1.3551,11.5233,1465,2805.97
23450,-2.654,-1.1504,11.9782,1483,2805.97
23455,-2.7809,1.9046,9.6223,1483,2805.84
23460,1.7095,3.4728,10.2484,1481,2805.84
23465,0.6321,2.1452,11.0875,1477,2805.84
23470,-1.6209,-1.2522,12.1111,1466,2805.84
23475,-3.9433,0.8954,10.1885,1467,2805.84
23480,0.9313,2.9868,9.9922,1480,2806.1
23485,2.0806,3.1927,10.7847,1479,2806.1
23490,-1.6688,-0.2705,12.0823,1462,2806.1
23495,-4.0989,0.0706,11.066,1477,2806.1
23500,-0.0766,2.7653,9.6163,1503,2806.1
23505,2.1859,3.7996,10.3944,1472,2806.1
23510,-2.3762,0.7973,11.7352,1465,2806.1
23515,-3.2908,-0.7721,11.7543,1467,2806.1
23520,-1.6975,2.2841,9.4164,1481,2805.84
23525,1.8627,3.6883,10.3022,1471,2805.84
23530,-0.9613,1.5562,11.3737,1483,2805.84
23535,-2.1596,-1.3575,12.062,1472,2805.84
23540,-3.3734,1.5,9.8114,1481,2805.84
23545,1.3946,3.2789,10.1969,1477,2806.36
23550,1.3575,2.5379,10.981,1467,2806.36
23555,-1.5024,-0.8763,12.1422,1468,2806.36
23560,-4.1911,0.7302,10.5105,1467,2806.36
23565,0.6644,3.0167,9.9096,1492,2806.36
23570,2.2733,3.4369,10.5848,1478,2806.36
23575,-1.9644,0.1341,11.9088,1465,2806.36
23580,-3.8164,-0.3268,11.2827,1465,2806.36
23585,-0.662,2.6049,9.4691,1503,2806.1
23590,2.0853,3.7804,10.3034,1471,2806.1
23595,-2.1213,1.1205,11.6849,1465,2806.1
23600,-2.9461,-1.0247,11.9351,1481,2806.1
23605,-2.3762,2.1201,9.481,1511,2805.84
23610,1.7777,3.5997,10.246,1465,2805.84
23615,-0.0251,1.9513,11.2563,1467,2805.84
23620,-1.8364,-1.2103,12.1326,1464,2805.84
23625,-3.7721,1.2665,10.0102,1479,2805.84
23630,1.1684,3.1867,10.0856,1486,2805.84
23635,1.9788,2.9185,10.896,1477,2805.84
23640,-1.47,-0.6213,12.0357,1469,2805.84
23645,-4.1444,0.2215,10.7919,1469,2805.84
23650,0.164,2.7773,9.6522,1497,2805.84
23655,2.1596,3.6583,10.4878,1465,2805.84
23660,-2.2625,0.5507,11.8046,1477,2805.84
23665,-3.7062,-0.5387,11.6262,1469,2805.84
23670,-1.2402,2.4852,9.4655,1503,2805.84
23675,2.0853,3.8798,10.3621,1483,2805.84
23680,-1.5646,1.4281,11.4407,1478,2805.84
23685,-2.4469,-1.1636,11.9459,1465,2805.84
23690,-2.9353,1.7418,9.6043,1465,2805.84
23695,1.4796,3.3615,10.1873,1483,2805.84
23700,0.911,2.2709,11.1043,1467,2805.84
23705,-1.5311,-1.148,12.129,1469,2805.84
23710,-4.0618,0.8559,10.2424,1467,2805.84
23715,0.8643,3.0047,9.9587,1494,2805.7
23720,2.1668,3.2789,10.6315,1471,2805.7
23725,-1.8112,-0.1437,11.9818,1463,2805.7
23730,-4.0187,0.0168,11.1881,1469,2805.7
23735,-0.2095,2.721,9.6187,1507,2805.84
23740,2.1727,3.8271,10.3681,1479,2805.84
23745,-2.2757,0.9062,11.6538,1467,2805.84
23750,-3.2046,-0.8787,11.7902,1478,2805.84
23755,-1.9201,2.1835,9.4691,1489,2805.7
23760,1.8507,3.6212,10.2639,1469,2805.7
23765,-0.7254,1.7059,11.3365,1478,2805.7
23770,-2.0734,-1.3252,12.0967,1469,2805.7
23775,-3.4836,1.4365,9.8569,1482,2805.7
23780,1.2737,3.2238,10.1131,1485,2805.57
23785,1.6005,2.7054,10.9702,1467,2805.57
23790,-1.4365,-0.7482,12.0608,1461,2805.57
23795,-4.1503,0.5435,10.6458,1470,2805.57
23800,0.5351,2.9125,9.7767,1487,2805.57
23805,2.296,3.5326,10.4998,1468,2805.57
23810,-2.156,0.2083,11.8788,1471,2805.57
23815,-3.7074,-0.4058,11.4586,1479,2805.57
23820,-0.8751,2.5115,9.42,1499,2805.7
23825,1.9429,3.7637,10.3501,1469,2805.7
23830,-1.9369,1.1815,11.5556,1465,2805.7
23835,-2.8802,-1.1408,11.9471,1479,2805.7
23840,-2.5582,2.0087,9.5876,1491,2805.18
23845,1.7789,3.5721,10.2879,1481,2805.18
23850,0.2969,2.0877,11.2444,1471,2805.18
23855,-1.6819,-1.2007,12.0704,1465,2805.18
23860,-3.7134,1.0666,10.0844,1466,2805.18
23865,0.9625,3.067,9.9826,1479,2805.57
23870,2.0147,3.0622,10.7823,1477,2805.57
23875,-1.4581,-0.4525,12.0249,1467,2805.57
23880,-4.1635,0.1137,10.9307,1469,2805.57
23885,0.0658,2.7689,9.6833,1503,2805.18
23890,2.1931,3.7757,10.4267,1470,2805.18
23895,-2.4098,0.662,11.7843,1465,2805.18
23900,-3.4189,-0.6668,11.6059,1466,2805.18
23905,-1.482,2.3858,9.4344,1502,2805.05
23910,1.9489,3.7984,10.246,1467,2805.05
23915,-1.1827,1.5251,11.4,1480,2805.05
23920,-2.2972,-1.2965,12.0512,1470,2805.05
23925,-3.134,1.646,9.6881,1481,2805.05
23930,1.506,3.2968,10.1215,1476,2805.05
23935,1.2582,2.3822,11.0421,1467,2805.05
23940,-1.5658,-1.0977,12.0644,1469,2805.05
23945,-4.1049,0.7075,10.4507,1469,2805.05
23950,0.6943,2.9772,9.9156,1487,2805.31
23955,2.1715,3.4548,10.7009,1477,2805.31
23960,-1.9166,0.0646,12.0069,1467,2805.31
23965,-3.8966,-0.1006,11.2432,1465,2805.31
23970,-0.4788,2.6959,9.5265,1499,2805.57
23975,2.1763,3.8475,10.3908,1479,2805.57
23980,-2.2087,1.0068,11.6083,1469,2805.57
23985,-3.0466,-1.0499,11.8884,1481,2805.57
23990,-2.1679,2.0842,9.481,1487,2805.57
23995,1.7561,3.626,10.2615,1466,2805.57
24000,-0.2861,1.8256,11.3234,1468,2805.57
24005,-1.9477,-1.2905,12.0871,1465,2805.57
24010,-3.6368,1.3084,9.9707,1479,2805.57
24015,1.1863,3.1759,10.0904,1487,2805.57
24020,1.7909,2.8323,10.8828,1472,2805.57
24025,-1.4222,-0.6524,12.1278,1471,2805.57
24030,-4.1168,0.3328,10.7464,1467,2805.57
24035,0.3316,2.8695,9.7492,1479,2805.31
24040,2.235,3.6368,10.4854,1467,2805.31
24045,-2.1679,0.395,11.8298,1477,2805.31
24050,-3.7038,-0.5722,11.4958,1471,2805.31
24055,-1.136,2.5295,9.4679,1501,2805.44
24060,1.9776,3.8176,10.3334,1481,2805.44
24065,-1.7657,1.3527,11.5305,1477,2805.44
24070,-2.6181,-1.1624,11.9435,1459,2805.44
24075,-2.8036,1.9345,9.6654,1468,2805.44
24080,1.6125,3.4788,10.1382,1481,2805.31
24085,0.7697,2.211,11.1785,1467,2805.31
24090,-1.5909,-1.142,12.1183,1466,2805.31
24095,-3.9325,0.9397,10.234,1465,2805.31
24100,0.9158,3.0083,9.9431,1492,2805.7
24105,2.1081,3.1939,10.7308,1469,2805.7
24110,-1.664,-0.2945,12.0512,1465,2805.7
24115,-4.1144,-0.0108,11.0397,1479,2805.7
24120,-0.1233,2.7414,9.6103,1500,2805.97
24125,2.1488,3.8116,10.4004,1471,2805.97
24130,-2.3858,0.8368,11.7543,1465,2805.97
24135,-3.2705,-0.7482,11.7376,1468,2805.97
24140,-1.7322,2.3056,9.4367,1503,2805.97
24145,1.913,3.7493,10.1813,1468,2805.97
24150,-0.8607,1.6448,11.4371,1479,2805.97
24155,-2.1117,-1.318,12.0452,1467,2805.97
24160,-3.3686,1.5119,9.7432,1483,2805.97
24165,1.3958,3.2753,10.1203,1484,2806.1
24170,1.4808,2.5738,11.0253,1467,2806.1
24175,-1.5095,-0.9373,12.1398,1465,2806.1
24180,-4.1922,0.6189,10.5656,1466,2806.1
24185,0.577,2.9125,9.8497,1487,2805.84
24190,2.2434,3.5039,10.5548,1471,2805.84
24195,-1.9944,0.1891,11.9459,1477,2805.84
24200,-3.8427,-0.2753,11.3665,1471,2805.84
24205,-0.6979,2.66,9.5493,1496,2805.97
24210,2.0746,3.8463,10.3262,1470,2805.97
24215,-1.9513,1.1121,11.6753,1464,2805.97
24220,-2.9963,-1.1289,11.8094,1479,2805.97
24225,-2.4433,2.0734,9.5253,1509,2806.1
24230,1.7633,3.4931,10.2783,1471,2806.1
24235,0.0491,1.9513,11.2611,1480,2806.1
24240,-1.8172,-1.2474,12.1254,1465,2806.1
24245,-3.6787,1.2043,10.1394,1468,2806.1
24250,1.0104,3.1077,10.0197,1480,2806.1
24255,1.9597,2.9664,10.8194,1470,2806.1
24260,-1.415,-0.504,12.0859,1469,2806.1
24265,-4.221,0.2179,10.7799,1467,2806.1
24270,0.2801,2.8479,9.6786,1487,2806.23
24275,2.241,3.6631,10.4698,1467,2806.23
24280,-2.1979,0.577,11.8549,1466,2806.23
24285,-3.6739,-0.6668,11.6083,1465,2806.23
24290,-1.2941,2.4804,9.4164,1479,2806.23
24295,2.0303,3.7781,10.2915,1471,2806.23
24300,-1.5419,1.3731,11.4934,1480,2806.23
24305,-2.4744,-1.2186,11.9854,1465,2806.23
24310,-2.9808,1.7825,9.6917,1467,2806.23
24315,1.6245,3.462,10.2352,1479,2806.1
24320,0.9972,2.3331,11.0816,1469,2806.1
24325,-1.5455,-1.081,12.0991,1469,2806.1
24330,-4.0666,0.8116,10.2604,1481,2806.1
24335,0.8775,2.9712,9.9419,1493,2806.49
24340,2.1644,3.2417,10.665,1469,2806.49
24345,-1.7777,-0.1437,12.0285,1465,2806.49
24350,-4.0881,-0.0934,11.157,1469,2806.49
24355,-0.2622,2.7641,9.6498,1494,2806.1
24360,2.1488,3.8295,10.3777,1477,2806.1
24365,-2.296,0.9445,11.7543,1465,2806.1
24370,-3.2753,-0.8631,11.7699,1479,2806.1
24375,-1.8998,2.2434,9.5565,1500,2805.97
24380,1.919,3.7074,10.2615,1465,2805.97
24385,-0.6009,1.6951,11.3437,1471,2805.97
24390,-2.0794,-1.3431,12.0584,1463,2805.97
24395,-3.5386,1.4114,9.7851,1469,2805.97
24400,1.3683,3.2082,10.1203,1485,2805.97
24405,1.6664,2.66,10.9044,1471,2805.97
24410,-1.4413,-0.8356,12.1362,1477,2805.97
24415,-4.2186,0.5064,10.6745,1467,2805.97
24420,0.5483,2.9197,9.8246,1483,2805.84
24425,2.2494,3.571,10.5381,1479,2805.84
24430,-2.0997,0.3065,11.9028,1471,2805.84
24435,-3.8535,-0.3903,11.3916,1469,2805.84
24440,-0.8475,2.563,9.4439,1503,2805.7
24445,2.0686,3.8116,10.3058,1479,2805.7
24450,-2.0243,1.2127,11.637,1465,2805.7
24455,-2.721,-1.1097,11.9363,1470,2805.7
24460,-2.5666,1.9178,9.5756,1471,2805.7
24465,1.6065,3.4955,10.2795,1491,2805.31
24470,0.3723,2.0566,11.2013,1471,2805.31
24475,-1.7274,-1.2031,12.0847,1467,2805.31
24480,-3.9504,1.0977,10.0676,1463,2805.31
24485,1.1803,3.1591,10.0772,1481,2805.44
24490,2.2505,3.6152,10.4938,1469,2805.44
24495,-2.1213,0.4357,11.8884,1465,2805.44
24500,-3.7601,-0.4932,11.479,1478,2805.44
24505,0.0718,2.7689,9.6355,1503,2805.44
24510,2.0518,3.7996,10.3358,1477,2805.44
24515,-1.7933,1.2605,11.5077,1465,2805.44
24520,-2.7354,-1.1732,11.9495,1468,2805.44
24525,-2.7737,1.9381,9.5852,1501,2804.92
24530,1.7071,3.547,10.2448,1469,2804.92
24535,0.6117,2.1536,11.1402,1480,2804.92
24540,-1.6831,-1.1732,12.1135,1469,2804.92
24545,-3.9756,0.9517,10.1622,1483,2804.92
24550,1.063,3.049,10.0006,1484,2805.97
24555,2.0734,3.1173,10.7368,1465,2805.97
24560,-1.6592,-0.3232,11.9866,1465,2805.97
24565,-4.1671,0.0168,11.0397,1467,2805.97
24570,-0.073,2.7461,9.6474,1492,2805.57
24575,2.1548,3.7936,10.3657,1479,2805.57
24580,-2.4325,0.7877,11.7783,1471,2805.57
24585,-3.3148,-0.7219,11.7388,1467,2805.57
24590,-1.6903,2.3116,9.4487,1513,2805.44
24595,1.9501,3.7493,10.3418,1472,2805.44
24600,-0.9541,1.6041,11.4407,1469,2805.44
24605,-2.2829,-1.3024,12.0333,1481,2805.44
24610,-3.3459,1.5419,9.7169,1509,2805.7
24615,1.5095,3.292,10.1706,1476,2805.7
24620,1.3791,2.5139,11.0097,1479,2805.7
24625,-1.482,-0.9804,12.1434,1467,2805.7
24630,-4.142,0.65,10.5321,1479,2805.7
24635,0.6476,2.9628,9.8964,1485,2805.7
24640,2.2194,3.474,10.6171,1479,2805.7
24645,-2.071,0.1544,11.9674,1469,2805.7
24650,-3.7385,-0.237,11.3593,1469,2805.7
24655,-0.668,2.654,9.511,1507,2805.18
24660,2.0171,3.8188,10.2615,1468,2805.18
24665,-2.0255,1.075,11.6215,1471,2805.18
24670,-3.0215,-1.1217,11.8357,1467,2805.18
24675,-2.3703,2.0411,9.5038,1499,2804.92
24680,1.8076,3.5614,10.3262,1483,2804.92
24685,-0.0084,1.9501,11.2982,1482,2804.92
24690,-1.8447,-1.2378,12.0895,1464,2804.92
24695,-3.7002,1.1648,10.1059,1469,2804.92
24700,1.0702,3.128,10.0233,1493,2804.52
24705,1.8998,2.9556,10.8421,1465,2804.52
24710,-1.573,-0.5399,12.0859,1470,2804.52
24715,-3.9887,0.2682,10.896,1471,2804.52
24720,0.1616,2.7904,9.7157,1492,2804.66
24725,2.1069,3.6488,10.3956,1471,2804.66
24730,-2.2853,0.5495,11.8094,1465,2804.66
24735,-3.4536,-0.5818,11.6646,1467,2804.66
24740,-1.3096,2.4421,9.4751,1496,2804.66
24745,1.8866,3.79,10.2795,1482,2804.66
24750,-1.5083,1.3886,11.4598,1463,2804.66
24755,-2.4157,-1.1959,12.0464,1481,2804.66
24760,-2.9772,1.7226,9.6426,1493,2804.66
24765,1.4856,3.4141,10.1598,1466,2804.66
24770,0.9984,2.3583,11.1079,1477,2804.66
24775,-1.5634,-1.0834,12.05,1469,2804.66
24780,-3.7757,0.8056,10.3322,1483,2804.66
24785,0.6788,2.9377,9.8881,1487,2804.79
24790,2.0746,3.2609,10.6207,1471,2804.79
24795,-1.7346,-0.1209,11.9423,1469,2804.79
24800,-3.9684,-0.1413,11.1294,1465,2804.79
24805,-0.3831,2.6815,9.5924,1481,2804.79
24810,2.1261,3.8152,10.3944,1471,2804.79
24815,-2.3511,0.9457,11.74,1477,2804.79
24820,-3.1184,-0.8308,11.8262,1471,2804.79
24825,-1.9812,2.1931,9.499,1499,2804.92
24830,1.8459,3.7038,10.2316,1481,2804.92
24835,-0.5052,1.7202,11.3018,1467,2804.92
24840,-1.9932,-1.3384,12.044,1469,2804.92
24845,-3.4632,1.3898,9.93,1469,2804.92
24850,1.1863,3.1783,10.0952,1483,2804.66
24855,1.6999,2.6803,10.9654,1468,2804.66
24860,-1.4808,-0.814,12.0859,1468,2804.66
24865,-4.0606,0.4788,10.6662,1465,2804.66
24870,0.3711,2.9125,9.7528,1481,2804.0
24875,2.1871,3.6272,10.5572,1471,2804.0
24880,-2.1763,0.334,11.8453,1465,2804.0
24885,-3.65,-0.3795,11.5149,1479,2804.0
24890,-0.9601,2.5534,9.4727,1503,2803.74
24895,1.9692,3.8044,10.2927,1478,2803.74
24900,-1.8459,1.2438,11.5568,1467,2803.74
24905,-2.636,-1.1217,11.9303,1469,2803.74
24910,-2.6839,1.8352,9.5385,1506,2804.26
24915,1.5431,3.4345,10.2101,1467,2804.26
24920,0.51,2.144,11.2384,1481,2804.26
24925,-1.6903,-1.2043,12.1159,1466,2804.26
24930,-3.8523,1.0403,10.222,1483,2804.26
24935,0.9134,3.0454,9.9946,1483,2804.13
24940,2.0506,3.1723,10.7727,1467,2804.13
24945,-1.5646,-0.2957,11.971,1465,2804.13
24950,-4.1647,0.0527,10.9762,1464,2804.13
24955,0.0,2.7497,9.6271,1491,2803.74
24960,2.1847,3.7373,10.4555,1471,2803.74
24965,-2.4397,0.7278,11.6969,1469,2803.74
24970,-3.2896,-0.7506,11.6765,1469,2803.74
24975,-1.6556,2.3308,9.5086,1499,2803.74
24980,1.8387,3.7266,10.2376,1469,2803.74
24985,-0.9852,1.6185,11.4275,1467,2803.74
24990,-2.2972,-1.3216,12.0907,1479,2803.74
24995,-3.3495,1.6113,9.8521,1503,2804.0
25000,1.4808,3.3016,10.149,1471,2804.0
25005,1.4688,2.5343,11.0002,1472,2804.0
25010,-1.4868,-0.9625,12.062,1467,2804.0
25015,-4.1228,0.583,10.495,1462,2804.0
25020,0.6117,2.8934,9.8509,1481,2803.87
25025,2.2122,3.4333,10.574,1471,2803.87
25030,-2.0506,0.1221,11.9231,1466,2803.87
25035,-3.7769,-0.2873,11.3808,1467,2803.87
25040,-0.6764,2.6049,9.5146,1499,2804.13
25045,2.0219,3.8678,10.3298,1463,2804.13
25050,-2.0722,1.1744,11.6047,1464,2804.13
25055,-2.8659,-1.0056,11.9028,1464,2804.13
25060,-2.4038,2.071,9.5553,1485,2804.39
25065,1.7573,3.565,10.2508,1471,2804.39
25070,0.1149,1.9668,11.2097,1484,2804.39
25075,-1.8172,-1.3384,12.0835,1467,2804.39
25080,-3.7745,1.1791,10.0305,1477,2804.39
25085,1.136,3.0981,10.0904,1471,2804.66
25090,1.968,2.9652,10.835,1465,2804.66
25095,-1.6149,-0.5578,12.0357,1467,2804.66
25100,-4.1336,0.261,10.9032,1465,2804.66
25105,0.1772,2.8527,9.6714,1502,2805.31
25110,2.1727,3.7026,10.4531,1467,2805.31
25115,-2.2422,0.5914,11.8513,1466,2805.31
25120,-3.5542,-0.5986,11.5879,1467,2805.31
25125,-1.3527,2.4636,9.4463,1497,2805.44
25130,2.0243,3.8008,10.3262,1482,2805.44
25135,-1.4102,1.4114,11.5221,1464,2805.44
25140,-2.5187,-1.2881,11.9614,1477,2805.44
25145,-3.0586,1.7681,9.6666,1486,2805.44
25150,1.5826,3.3327,10.2316,1467,2805.44
25155,1.0343,2.3403,11.1354,1467,2805.44
25160,-1.6065,-1.1073,12.0811,1464,2805.44
25165,-4.1061,0.8583,10.3489,1479,2805.44
25170,0.8583,3.0275,9.9611,1481,2805.57
25175,2.1883,3.2968,10.6662,1467,2805.57
25180,-1.8663,-0.1006,11.9961,1464,2805.57
25185,-3.887,-0.1137,11.1761,1465,2805.57
25190,-0.3962,2.715,9.5385,1477,2805.44
25195,2.0626,3.7721,10.3717,1469,2805.44
25200,-2.2781,0.9278,11.7244,1469,2805.44
25205,-3.1627,-0.9254,11.7747,1469,2805.44
25210,-2.0135,2.2446,9.5205,1495,2805.84
25215,1.804,3.6955,10.2424,1480,2805.84
25220,-0.5758,1.8064,11.3952,1468,2805.84
25225,-1.9944,-1.2761,12.0764,1466,2805.84
25230,-3.4333,1.409,9.8533,1467,2805.84
25235,1.1899,3.2346,10.0473,1483,2805.44
25240,1.7178,2.6995,10.9212,1465,2805.44
25245,-1.4257,-0.8056,12.044,1464,2805.44
25250,-4.0905,0.4429,10.7033,1464,2805.44
25255,0.3855,2.8934,9.7887,1485,2805.97
25260,2.1691,3.5446,10.5405,1467,2805.97
25265,-2.1093,0.3172,11.9112,1464,2805.97
25270,-3.7601,-0.3843,11.4598,1477,2805.97
25275,-0.9649,2.5438,9.5193,1495,2805.57
25280,1.9944,3.7864,10.2615,1468,2805.57
25285,-1.8998,1.2689,11.57,1466,2805.57
25290,-2.7258,-1.1121,11.9495,1465,2805.57
25295,-2.6516,1.9453,9.5912,1501,2805.57
25300,1.6807,3.4895,10.24,1464,2805.57
25305,0.4752,2.0794,11.1893,1478,2805.57
25310,-1.7645,-1.2905,12.062,1467,2805.57
25315,-3.966,1.0487,10.1323,1482,2805.57
25320,1.075,3.0418,10.0461,1483,2805.31
25325,2.0399,3.0945,10.7775,1465,2805.31
25330,-1.6915,-0.3843,12.0764,1464,2805.31
25335,-4.0294,0.1353,11.0528,1465,2805.31
25340,-0.0287,2.8467,9.5948,1485,2805.57
25345,2.1691,3.7876,10.3693,1469,2805.57
25350,-2.2075,0.7697,11.8681,1471,2805.57
25355,-3.5147,-0.7661,11.6789,1469,2805.57
25360,-1.4976,2.387,9.4523,1497,2806.1
25365,1.9968,3.7397,10.2987,1467,2806.1
25370,-1.1899,1.482,11.4311,1465,2806.1
25375,-2.2829,-1.3228,12.0069,1477,2806.1
25380,-3.1723,1.6137,9.7624,1503,2806.36
25385,1.3276,3.3004,10.1478,1471,2806.36
25390,1.2402,2.472,11.0947,1479,2806.36
25395,-1.4485,-0.9469,12.1254,1463,2806.36
25400,-4.1779,0.7099,10.3777,1471,2806.36
25405,0.7973,2.9676,9.9192,1480,2806.23
25410,2.2434,3.3519,10.6159,1471,2806.23
25415,-1.8854,0.0599,11.9734,1468,2806.23
25420,-3.9756,-0.2658,11.2348,1465,2806.23
25425,-0.516,2.6803,9.5744,1487,2806.1
25430,2.059,3.8044,10.3561,1463,2806.1
25435,-2.2422,1.0343,11.7029,1467,2806.1
25440,-3.0071,-1.0295,11.8693,1465,2806.1
25445,-2.235,2.0949,9.5026,1478,2805.7
25450,1.7873,3.6715,10.2651,1472,2805.7
25455,-0.1233,1.8747,11.2911,1479,2805.7
25460,-1.9453,-1.2522,12.1099,1464,2805.7
25465,-3.7385,1.3659,9.9838,1465,2805.7
25470,1.3216,3.1663,10.0999,1471,2804.92
25475,1.8938,2.8036,10.8864,1455,2804.92
25480,-1.4605,-0.6512,12.0692,1471,2804.92
25485,-4.2102,0.3136,10.7392,1469,2804.92
25490,0.3352,2.8455,9.7252,1487,2804.92
25495,2.1715,3.632,10.4722,1465,2804.92
25500,-2.1835,0.498,11.8992,1463,2804.92
25505,-3.7936,-0.5267,11.5772,1467,2804.92
25510,-1.1109,2.5546,9.4906,1497,2804.79
25515,2.0985,3.8439,10.2735,1479,2804.79
25520,-1.7262,1.3779,11.5377,1465,2804.79
25525,-2.5594,-1.221,11.9614,1471,2804.79
25530,-2.8611,1.7897,9.5756,1507,2804.79
25535,1.6293,3.3938,10.1813,1466,2804.79
25540,0.7697,2.2182,11.1043,1470,2804.79
25545,-1.5802,-1.1911,12.1171,1463,2804.79
25550,-3.9959,0.8978,10.1873,1471,2804.79
25555,0.8906,3.0347,9.9252,1484,2805.05
25560,2.0674,3.2489,10.7464,1471,2805.05
25565,-1.7406,-0.1987,12.0787,1477,2805.05
25570,-4.0402,-0.0287,11.0899,1463,2805.05
25575,-0.1808,2.7773,9.6798,1479,2805.31
25580,2.1656,3.814,10.3765,1469,2805.31
25585,-2.235,0.8679,11.7053,1469,2805.31
25590,-3.3291,-0.8631,11.6921,1468,2805.31
25595,-1.8088,2.2158,9.4367,1501,2805.44
25600,1.9178,3.6751,10.3262,1479,2805.44
25605,-0.7997,1.6185,11.406,1467,2805.44
25610,-2.1955,-1.3479,12.0704,1468,2805.44
25615,-3.4417,1.5383,9.8246,1469,2805.44
25620,1.3827,3.2992,10.1694,1484,2805.31
25625,1.5455,2.6037,10.9846,1469,2805.31
25630,-1.482,-0.8152,12.0991,1466,2805.31
25635,-4.1839,0.5495,10.568,1465,2805.31
25640,0.6021,2.9245,9.7887,1481,2805.31
25645,2.2482,3.4704,10.5465,1467,2805.31
25650,-1.9776,0.2286,11.9088,1463,2805.31
25655,-3.8918,-0.3639,11.3665,1477,2805.31
25660,-0.735,2.5905,9.4978,1498,2805.57
25665,2.0842,3.8056,10.2963,1479,2805.57
25670,-2.1009,1.1193,11.637,1465,2805.57
25675,-2.8862,-1.0726,11.9746,1466,2805.57
25680,-2.4948,2.0255,9.5134,1513,2806.1
25685,1.749,3.6009,10.2711,1483,2806.1
25690,0.2322,2.0099,11.2192,1481,2806.1
25695,-1.7502,-1.2115,12.044,1469,2806.1
25700,-3.7565,1.1456,10.0245,1480,2806.1
25705,1.0259,3.0885,9.991,1481,2806.75
25710,2.0027,2.9748,10.8014,1463,2806.75
25715,-1.5048,-0.4609,12.0572,1465,2806.75
25720,-4.2677,0.2047,10.8721,1464,2806.75
25725,0.164,2.812,9.7396,1485,2806.62
25730,2.1739,3.7266,10.4256,1469,2806.62
25735,-2.3212,0.6249,11.8094,1468,2806.62
25740,-3.5985,-0.6117,11.6717,1467,2806.62
25745,-1.3791,2.46,9.4918,1499,2807.15
25750,2.0542,3.8032,10.313,1467,2807.15
25755,-1.3731,1.4305,11.4359,1463,2807.15
25760,-2.46,-1.2354,11.9722,1479,2807.15
25765,-3.0394,1.6879,9.578,1507,2807.28
25770,1.5933,3.3435,10.1909,1469,2807.28
25775,1.0738,2.3308,11.0576,1471,2807.28
25780,-1.5862,-1.1325,12.1314,1463,2807.28
25785,-4.045,0.8284,10.3825,1478,2807.28
25790,0.7853,2.9963,9.9264,1479,2807.15
25795,2.1428,3.3291,10.6961,1480,2807.15
25800,-1.8244,-0.0503,11.9626,1465,2807.15
25805,-4.0342,-0.0359,11.1498,1461,2807.15
25810,-0.2849,2.7485,9.5553,1481,2807.02
25815,2.1919,3.8379,10.3597,1467,2807.02
25820,-2.2146,0.9146,11.728,1470,2807.02
25825,-3.2334,-0.9182,11.7914,1465,2807.02
25830,-1.9668,2.217,9.4152,1485,2806.75
25835,1.8866,3.6392,10.2999,1479,2806.75
25840,-0.5902,1.6759,11.3318,1477,2806.75
25845,-2.0985,-1.3372,12.068,1465,2806.75
25850,-3.5326,1.4066,9.8485,1465,2806.75
25855,1.3348,3.2693,10.1203,1481,2806.49
25860,1.6616,2.7282,10.9954,1467,2806.49
25865,-1.4868,-0.7266,12.0548,1468,2806.49
25870,-4.1324,0.5195,10.6362,1465,2806.49
25875,0.486,2.8886,9.7995,1491,2806.49
25880,2.2122,3.5075,10.501,1467,2806.49
25885,-2.0782,0.2406,11.8693,1462,2806.49
25890,-3.7314,-0.4345,11.4586,1467,2806.49
25895,-0.9301,2.5582,9.4751,1497,2806.1
25900,2.0183,3.8343,10.3549,1479,2806.1
25905,-1.913,1.2402,11.625,1465,2806.1
25910,-2.873,-1.0774,12.0045,1479,2806.1
25915,-2.6109,2.0075,9.6319,1513,2806.23
25920,1.7909,3.5458,10.2448,1466,2806.23
25925,0.4034,2.0303,11.2168,1479,2806.23
25930,-1.6915,-1.2043,12.123,1466,2806.23
25935,-3.8188,1.0894,10.1311,1479,2806.23
25940,1.0044,3.0478,9.997,1483,2805.97
25945,2.0291,3.0813,10.7679,1465,2805.97
25950,-1.7083,-0.4549,12.0357,1463,2805.97
25955,-4.0043,0.1676,11.0026,1465,2805.97
25960,-0.0383,2.7916,9.6702,1487,2805.84
25965,2.1021,3.7601,10.3645,1480,2805.84
25970,-2.241,0.7003,11.8094,1469,2805.84
25975,-3.5925,-0.6644,11.7136,1469,2805.84
25980,-1.4569,2.3906,9.5002,1499,2805.7
25985,2.071,3.7517,10.2783,1471,2805.7
25990,-1.2833,1.5275,11.3641,1466,2805.7
25995,-2.314,-1.3084,12.0177,1480,2805.7
26000,-3.1783,1.6197,9.7324,1485,2805.57
26005,1.4748,3.322,10.1813,1477,2805.57
26010,1.2067,2.4098,11.0325,1471,2805.57
26015,-1.4928,-1.0906,12.1003,1466,2805.57
26020,-4.1599,0.753,10.4088,1467,2805.57
26025,0.8104,2.9736,9.9048,1478,2805.7
26030,2.2374,3.4129,10.659,1471,2805.7
26035,-1.9058,0.0227,11.9363,1464,2805.7
26040,-3.9504,-0.1209,11.2312,1467,2805.7
26045,-0.4776,2.6671,9.5373,1485,2805.84
26050,2.1416,3.8176,10.3453,1465,2805.84
26055,-2.2446,0.9948,11.6262,1461,2805.84
26060,-2.9736,-0.9804,11.8513,1463,2805.84
26065,-2.1751,2.1272,9.4894,1501,2805.57
26070,1.7609,3.5949,10.2125,1477,2805.57
26075,-0.2083,1.828,11.3449,1481,2805.57
26080,-1.9668,-1.2857,12.1123,1470,2805.57
26085,-3.6308,1.3707,9.918,1479,2805.57
26090,1.2689,3.213,10.0784,1471,2805.31
26095,1.8627,2.8264,10.8769,1463,2805.31
26100,-1.47,-0.5914,11.989,1467,2805.31
26105,-4.2102,0.346,10.7284,1465,2805.31
26110,0.3986,2.8611,9.7432,1487,2805.97
26115,2.2051,3.6069,10.489,1469,2805.97
26120,-2.1284,0.419,11.8836,1463,2805.97
26125,-3.7685,-0.5543,11.4766,1461,2805.97
26130,-1.0906,2.5151,9.4763,1499,2805.7
26135,2.0578,3.7936,10.2999,1480,2805.7
26140,-1.725,1.3539,11.5544,1466,2805.7
26145,-2.7186,-1.1516,11.9997,1479,2805.7
26150,-2.788,1.9381,9.6941,1495,2805.7
26155,1.6843,3.4584,10.2077,1463,2805.7
26160,0.7638,2.1608,11.1558,1465,2805.7
26165,-1.6568,-1.2115,12.0835,1463,2805.7
26170,-3.9576,0.9325,10.1694,1472,2805.7
26175,1.0044,3.049,9.9862,1484,2805.57
26180,2.0973,3.1675,10.7751,1478,2805.57
26185,-1.6843,-0.2394,12.0189,1468,2805.57
26190,-4.0833,0.0275,11.0504,1467,2805.57
26195,-0.1628,2.7773,9.6462,1481,2805.7
26200,2.1847,3.8319,10.4327,1465,2805.7
26205,-2.3691,0.8272,11.7388,1469,2805.7
26210,-3.322,-0.7877,11.7388,1467,2805.7
26215,-1.7885,2.308,9.5277,1504,2805.57
26220,1.9225,3.7074,10.3226,1479,2805.57
26225,-0.8559,1.6269,11.4084,1471,2805.57
26230,-2.1668,-1.3312,12.0297,1465,2805.57
26235,-3.383,1.5419,9.815,1468,2805.57
26240,1.4114,3.2573,10.1921,1483,2805.84
26245,1.5071,2.5414,10.9918,1467,2805.84
26250,-1.4641,-0.929,12.0692,1464,2805.84
26255,-4.1492,0.6261,10.5656,1465,2805.84
26260,0.6117,2.9233,9.8581,1485,2806.62
26265,2.2122,3.4931,10.58,1467,2806.62
26270,-1.98,0.1616,11.9626,1459,2806.62
26275,-3.8918,-0.2622,11.3114,1469,2806.62
26280,-0.6524,2.6217,9.5086,1499,2806.62
26285,2.0578,3.79,10.2915,1479,2806.62
26290,-2.0758,1.087,11.6849,1465,2806.62
26295,-3.0035,-1.0906,11.88,1467,2806.62
26300,-2.4014,2.0722,9.493,1506,2807.15
26305,1.7765,3.5267,10.2448,1468,2807.15
26310,0.0215,1.9393,11.2923,1468,2807.15
26315,-1.8926,-1.2989,12.1278,1469,2807.15
26320,-3.7972,1.239,10.0449,1478,2807.15
26325,1.1851,3.1711,10.0856,1483,2807.67
26330,1.9836,2.9413,10.9068,1466,2807.67
26335,-1.506,-0.4872,12.0907,1463,2807.67
26340,-4.2006,0.2741,10.8026,1466,2807.67
26345,0.2442,2.8491,9.73,1487,2807.94
26350,2.1883,3.6607,10.4124,1469,2807.94
26355,-2.3176,0.4717,11.8226,1469,2807.94
26360,-3.5566,-0.6057,11.5831,1469,2807.94
26365,-1.2833,2.4565,9.487,1499,2808.07
26370,1.9632,3.8379,10.325,1471,2808.07
26375,-1.4784,1.3767,11.5508,1465,2808.07
26380,-2.5582,-1.2091,11.9554,1479,2808.07
26385,-2.9006,1.8328,9.6654,1515,2808.07
26390,1.6245,3.4405,10.1933,1469,2808.07
26395,0.9122,2.2314,11.1354,1471,2808.07
26400,-1.5514,-1.1277,12.0931,1477,2808.07
26405,-4.0223,0.8775,10.2101,1481,2808.07
26410,0.899,3.0179,9.9443,1481,2807.28
26415,2.1895,3.2142,10.6769,1477,2807.28
26420,-1.6867,-0.1305,12.068,1465,2807.28
26425,-4.1755,0.006,11.1187,1467,2807.28
26430,-0.1329,2.7318,9.6403,1501,2806.62
26435,2.1763,3.8104,10.3944,1467,2806.62
26440,-2.3463,0.9182,11.7867,1463,2806.62
26445,-3.2992,-0.8188,11.7867,1467,2806.62
26450,-1.8052,2.2817,9.4487,1495,2806.1
26455,1.9261,3.7062,10.2388,1470,2806.1
26460,-0.7661,1.6723,11.3701,1477,2806.1
26465,-2.1249,-1.3575,12.0404,1464,2806.1
26470,-3.4225,1.4832,9.8162,1465,2806.1
26475,1.409,3.2058,10.1945,1481,2806.1
26480,1.5215,2.6324,10.9846,1467,2806.1
26485,-1.4557,-0.8667,12.0644,1469,2806.1
26490,-4.1324,0.5602,10.4974,1467,2806.1
26495,0.5315,2.9293,9.7899,1491,2806.1
26500,2.2134,3.5279,10.5369,1467,2806.1
26505,-2.0039,0.267,11.9159,1463,2806.1
26510,-3.8223,-0.322,11.3425,1468,2806.1
26515,-0.7554,2.6276,9.5241,1496,2806.36
26520,2.0231,3.8247,10.2819,1478,2806.36
26525,-2.0423,1.1516,11.6274,1463,2806.36
26530,-2.8898,-1.0834,11.8896,1477,2806.36
26535,-2.4888,2.0339,9.578,1483,2806.23
26540,1.64,3.5386,10.246,1467,2806.23
26545,0.1676,2.0075,11.2587,1479,2806.23
26550,-1.7669,-1.2258,12.1422,1465,2806.23
26555,-3.8475,1.1468,10.0748,1479,2806.23
26560,1.142,3.1603,10.0042,1484,2806.23
26565,2.0602,2.9916,10.7703,1465,2806.23
26570,-1.6053,-0.4645,12.0141,1469,2806.23
26575,-4.0127,0.1891,10.9343,1462,2806.23
26580,0.0587,2.8204,9.7169,1484,2806.49
26585,2.0614,3.6583,10.3741,1479,2806.49
26590,-2.2338,0.6165,11.8489,1469,2806.49
26595,-3.5566,-0.6764,11.6071,1468,2806.49
26600,-1.3934,2.4517,9.4607,1498,2806.49
26605,1.9656,3.7733,10.2807,1478,2806.49
26610,-1.4042,1.4114,11.5065,1463,2806.49
26615,-2.3691,-1.2306,12.0799,1477,2806.49
26620,-3.0047,1.7514,9.6774,1483,2806.62
26625,1.4844,3.4034,10.143,1472,2806.62
26630,1.0678,2.3367,11.1055,1469,2806.62
26635,-1.5347,-1.0953,12.0692,1467,2806.62
26640,-4.1228,0.7793,10.313,1465,2806.62
26645,0.8751,2.9676,9.918,1477,2806.62
26650,2.1632,3.2932,10.6973,1477,2806.62
26655,-1.8902,-0.1293,11.9806,1465,2806.62
26660,-3.9492,-0.0778,11.2049,1470,2806.62
26665,-0.3651,2.6899,9.5265,1487,2806.49
26670,2.1237,3.8092,10.3609,1467,2806.49
26675,-2.2434,0.996,11.7041,1463,2806.49
26680,-3.2298,-0.8751,11.8812,1464,2806.49
26685,-2.0291,2.2613,9.5553,1499,2806.49
26690,1.9166,3.6955,10.2879,1470,2806.49
26695,-0.5088,1.743,11.3126,1479,2806.49
26700,-2.0339,-1.3228,12.1051,1469,2806.49
26705,-3.5087,1.4102,9.8593,1479,2806.49
26710,1.2857,3.1999,10.1658,1479,2806.49
26715,1.6723,2.7019,10.9032,1465,2806.49
26720,-1.4736,-0.7638,12.1266,1468,2806.49
26725,-4.2042,0.5339,10.6362,1468,2806.49
26730,0.5016,2.9281,9.8581,1491,2806.89
26735,2.2386,3.5566,10.5369,1469,2806.89
26740,-2.0889,0.3508,11.9243,1463,2806.89
26745,-3.8403,-0.4178,11.4036,1463,2806.89
26750,-0.8428,2.5738,9.4918,1499,2807.15
26755,2.077,3.8056,10.24,1478,2807.15
26760,-1.8914,1.227,11.5963,1465,2807.15
26765,-2.8683,-1.1337,11.8848,1478,2807.15
26770,-2.5989,1.9597,9.5373,1484,2807.02
26775,1.6999,3.5219,10.2053,1468,2807.02
26780,0.3915,2.0147,11.2001,1464,2807.02
26785,-1.7717,-1.1995,12.0728,1455,2807.02
26790,-3.875,1.1013,10.1023,1477,2807.02
26795,1.1097,3.1208,10.0114,1485,2807.67
26800,2.0423,3.0861,10.817,1471,2807.67
26805,-1.6221,-0.3915,12.0249,1467,2807.67
26810,-4.1587,0.1472,10.969,1466,2807.67
26815,0.085,2.7749,9.6379,1479,2807.41
26820,2.1787,3.7146,10.4363,1469,2807.41
26825,-2.2877,0.6369,11.8298,1468,2807.41
26830,-3.5638,-0.7242,11.6394,1467,2807.41
26835,-1.4772,2.3978,9.5038,1499,2807.15
26840,1.9908,3.7601,10.2819,1477,2807.15
26845,-1.312,1.5024,11.4443,1461,2807.15
26850,-2.4313,-1.2833,12.0225,1466,2807.15
26855,-3.1639,1.7071,9.6618,1469,2807.15
26860,1.5646,3.3627,10.1969,1483,2807.15
26865,1.1875,2.387,11.048,1471,2807.15
26870,-1.5263,-1.0666,12.0991,1466,2807.15
26875,-4.1132,0.7566,10.3717,1464,2807.15
26880,0.8236,2.9353,9.8653,1479,2807.67
26885,2.2386,3.3112,10.6195,1469,2807.67
26890,-1.8304,-0.0431,12.0009,1461,2807.67
26895,-4.0713,-0.1544,11.2504,1469,2807.67
26900,-0.3555,2.7234,9.6199,1501,2807.67
26905,2.1871,3.8271,10.3633,1481,2807.67
26910,-2.2721,0.9912,11.6957,1463,2807.67
26915,-3.1292,-0.8655,11.8525,1465,2807.67
26920,-2.0411,2.15,9.4727,1503,2807.41
26925,1.8519,3.6188,10.2041,1467,2807.41
26930,-0.4238,1.7454,11.3796,1481,2807.41
26935,-1.998,-1.3659,12.0656,1469,2807.41
26940,-3.462,1.312,9.9491,1483,2807.41
26945,1.1337,3.1568,10.0628,1482,2807.28
26950,1.6807,2.7749,10.9822,1466,2807.28
26955,-1.4832,-0.7446,12.1362,1467,2807.28
26960,-4.0546,0.4465,10.6889,1467,2807.28
26965,0.425,2.8671,9.6893,1487,2807.15
26970,2.2326,3.6368,10.5393,1471,2807.15
26975,-2.2194,0.346,11.8716,1466,2807.15
26980,-3.5757,-0.3891,11.485,1465,2807.15
26985,-0.9529,2.5391,9.402,1495,2807.02
26990,1.9728,3.8439,10.2328,1477,2807.02
26995,-1.7837,1.2294,11.5245,1467,2807.02
27000,-2.6863,-1.1432,11.9423,1479,2807.02
27005,-2.6791,1.9261,9.5876,1487,2806.75
27010,1.6053,3.462,10.2232,1467,2806.75
27015,0.5303,2.1153,11.2085,1471,2806.75
27020,-1.6999,-1.2115,12.0943,1463,2806.75
27025,-3.875,1.0259,10.1323,1477,2806.75
27030,0.9469,3.0909,9.9647,1481,2806.49
27035,2.1284,3.0813,10.7691,1471,2806.49
27040,-1.6867,-0.3879,12.0225,1469,2806.49
27045,-3.9205,0.1053,11.0265,1463,2806.49
27050,-0.0814,2.7366,9.6151,1496,2806.75
27055,2.0446,3.705,10.331,1465,2806.75
27060,-2.2865,0.6764,11.7759,1469,2806.75
27065,-3.3962,-0.7087,11.7352,1466,2806.75
27070,-1.5287,2.3451,9.5062,1500,2807.02
27075,1.901,3.7709,10.2197,1479,2807.02
27080,-1.148,1.573,11.4946,1479,2807.02
27085,-2.3308,-1.2115,12.1087,1465,2807.02
27090,-3.1065,1.6352,9.7504,1465,2807.02
27095,1.4006,3.2884,10.1263,1485,2807.15
27100,1.2689,2.4361,11.0528,1469,2807.15
27105,-1.4329,-1.0343,12.0392,1460,2807.15
27110,-4.0809,0.6967,10.4004,1465,2807.15
27115,0.674,2.9161,9.8725,1491,2807.54
27120,2.1811,3.3962,10.7069,1469,2807.54
27125,-1.9561,0.0012,11.9447,1462,2807.54
27130,-3.9433,-0.1544,11.2911,1467,2807.54
27135,-0.4848,2.6803,9.5193,1501,2808.07
27140,2.1033,3.8511,10.3286,1477,2808.07
27145,-2.2793,1.0523,11.6705,1464,2808.07
27150,-3.0742,-0.9242,11.8788,1467,2808.07
27155,-2.1272,2.1679,9.4918,1501,2808.46
27160,1.7131,3.5434,10.1837,1465,2808.46
27165,-0.2418,1.8483,11.3078,1479,2808.46
27170,-1.9549,-1.3396,12.1075,1469,2808.46
27175,-3.5231,1.2941,9.9407,1481,2808.46
27180,1.1504,3.1101,10.1023,1485,2808.86
27185,1.7561,2.7797,10.8864,1465,2808.86
27190,-1.5814,-0.7027,12.0632,1459,2808.86
27195,-4.0797,0.4741,10.7464,1465,2808.86
27200,0.3747,2.8982,9.7552,1487,2809.38
27205,2.1871,3.5949,10.483,1471,2809.38
27210,-2.1476,0.4274,11.892,1468,2809.38
27215,-3.7062,-0.4621,11.497,1469,2809.38
27220,-0.9732,2.5091,9.4559,1501,2809.65
27225,2.0722,3.8032,10.2891,1480,2809.65
27230,-1.8244,1.2965,11.5879,1471,2809.65
27235,-2.7749,-1.2031,11.9195,1478,2809.65
27240,-2.6695,1.9441,9.5696,1507,2809.51
27245,1.7047,3.4728,10.2376,1469,2809.51
27250,0.4645,2.1249,11.248,1479,2809.51
27255,-1.7466,-1.257,12.0871,1463,2809.51
27260,-3.8906,1.0618,10.149,1465,2809.51
27265,1.0487,3.0813,9.9491,1485,2809.91
27270,2.1021,3.0993,10.7847,1471,2809.91
27275,-1.5359,-0.3723,12.0321,1477,2809.91
27280,-4.1707,0.1389,10.9032,1465,2809.91
27285,0.0862,2.7354,9.6259,1495,2810.3
27290,2.2122,3.6895,10.4208,1465,2810.3
27295,-2.3272,0.662,11.7974,1469,2810.3
27300,-3.5506,-0.6847,11.6502,1468,2810.3
27305,-1.4545,2.4301,9.4978,1499,2810.3
27310,2.0004,3.7709,10.2951,1480,2810.3
27315,-1.3396,1.5383,11.4251,1471,2810.3
27320,-2.4026,-1.2175,12.0488,1462,2810.3
27325,-3.1017,1.7166,9.6893,1467,2810.3
27330,1.5419,3.3459,10.1897,1485,2810.17
27335,1.142,2.3463,11.1187,1469,2810.17
27340,-1.5179,-1.136,12.1242,1467,2810.17
27345,-4.1312,0.7745,10.3118,1463,2810.17
27350,0.8655,2.9556,9.9024,1479,2810.17
27355,2.2051,3.2777,10.6374,1469,2810.17
27360,-1.7514,-0.0634,12.0452,1463,2810.17
27365,-4.221,-0.0922,11.145,1471,2810.17
27370,-0.267,2.7342,9.5577,1498,2809.65
27375,2.2063,3.8559,10.3753,1477,2809.65
27380,-2.3128,0.978,11.7543,1465,2809.65
27385,-3.2848,-0.8859,11.7112,1464,2809.65
27390,-1.9477,2.2254,9.4379,1501,2809.38
27395,1.9249,3.6284,10.2448,1465,2809.38
27400,-0.6153,1.7298,11.4036,1479,2809.38
27405,-2.1715,-1.3731,12.1506,1469,2809.38
27410,-3.5039,1.4593,9.9467,1481,2809.38
27415,1.3587,3.219,10.1155,1472,2809.25
27420,1.6245,2.6492,10.8996,1467,2809.25
27425,-1.5071,-0.8595,12.0165,1468,2809.25
27430,-4.2198,0.5411,10.5393,1464,2809.25
27435,0.6249,2.9521,9.8497,1491,2809.38
27440,2.2685,3.5578,10.5931,1471,2809.38
27445,-2.0231,0.2957,11.9734,1464,2809.38
27450,-3.8978,-0.3771,11.3485,1463,2809.38
27455,-0.6788,2.575,9.3937,1495,2809.38
27460,2.1009,3.7565,10.2268,1477,2809.38
27465,-1.998,1.1337,11.625,1462,2809.38
27470,-2.9736,-1.1768,11.9147,1481,2809.38
27475,-2.4624,2.0746,9.5852,1499,2809.78
27480,1.7621,3.5686,10.3022,1468,2809.78
27485,0.1353,2.0063,11.2563,1464,2809.78
27490,-1.8292,-1.2617,12.0883,1461,2809.78
27495,-3.863,1.1803,9.9874,1477,2809.78
27500,1.2869,3.0981,10.0688,1480,2810.44
27505,2.0722,2.9401,10.7595,1471,2810.44
27510,-1.5335,-0.4812,12.1637,1469,2810.44
27515,-4.2126,0.1963,10.817,1467,2810.44
27520,0.2322,2.8216,9.6403,1479,2810.57
27525,2.1943,3.644,10.398,1461,2810.57
27530,-2.2458,0.5602,11.8441,1470,2810.57
27535,-3.7984,-0.6261,11.5616,1467,2810.57
27540,-1.245,2.4732,9.5265,1497,2810.44
27545,2.0662,3.8116,10.325,1479,2810.44
27550,-1.5993,1.4102,11.5568,1466,2810.44
27555,-2.6707,-1.1863,12.038,1471,2810.44
27560,-2.9185,1.8256,9.6199,1470,2810.44
