timestamp_ms,ax,ay,az,acs_adc,rpm
1439,2.8204,4.0103,8.9735,1308,0.0
1444,1.0642,1.4676,11.6669,1300,0.0
1449,-4.361,-1.8663,13.544,1295,0.0
1454,-2.9592,2.3631,8.8897,1295,0.0
1459,2.5498,3.7697,8.6419,1305,0.0
1464,0.6201,1.2929,12.4151,1299,0.0
1469,-4.6723,-1.6628,13.3273,1297,0.0
1474,-2.2027,2.4744,8.5724,1299,3056.7
1479,2.6588,3.7781,8.7568,1301,3056.7
1484,0.1149,0.9553,12.7527,1301,3056.7
1489,-5.017,-1.3767,13.0855,1298,3056.7
1494,-1.5239,2.5678,8.345,1289,3056.39
1499,2.9006,3.8199,8.934,1301,3056.39
1504,-0.3855,0.6991,13.0688,1309,3056.39
1509,-5.296,-1.0451,12.8892,1303,3056.39
1514,-0.7805,2.733,8.1954,1295,3056.08
1519,3.0442,3.8331,9.1016,1299,3056.08
1524,-0.7123,0.3148,13.3716,1291,3056.08
1529,-5.6024,-0.6584,12.4606,1299,3056.08
1534,-0.1532,2.8228,8.0373,1301,3057.32
1539,3.2094,3.7852,9.2907,1302,3057.32
1544,-1.0283,-0.0215,13.6625,1299,3057.32
1549,-5.7413,-0.2322,12.2164,1293,3057.32
1554,0.4262,2.976,8.0086,1286,3057.01
1559,3.3746,3.699,9.5337,1303,3057.01
1564,-1.3647,-0.3986,13.8086,1294,3057.01
1569,-5.8239,0.1616,11.7615,1291,3057.01
1574,0.9301,3.0885,7.9476,1293,3056.86
1579,3.4656,3.5135,9.7935,1291,3056.86
1584,-1.7885,-0.7937,13.9438,1299,3056.86
1589,-5.8706,0.5662,11.4742,1301,3056.86
1594,1.3491,3.1987,7.9978,1291,3056.86
1599,3.474,3.3028,10.0916,1294,3056.86
1604,-2.1572,-1.1217,14.03,1300,3056.86
1609,-5.7748,0.9708,10.987,1304,3056.86
1614,1.6448,3.2777,8.0804,1291,3057.01
1619,3.3232,3.0394,10.4435,1303,3057.01
1624,-2.5965,-1.4425,14.1054,1295,3057.01
1629,-5.5282,1.33,10.489,1293,3057.01
1634,1.913,3.3627,8.1523,1299,3057.32
1639,2.9772,2.7533,10.7583,1301,3057.32
1644,-3.0191,-1.7514,13.9797,1292,3057.32
1649,-5.1008,1.6029,10.1227,1298,3057.17
1654,2.065,3.4704,8.2516,1291,3057.17
1659,2.4983,2.3727,11.1893,1301,3057.17
1664,-3.462,-1.8854,13.8888,1301,3057.17
1669,-4.5466,1.8962,9.6989,1299,3057.64
1674,2.2326,3.5638,8.3175,1293,3057.64
1679,2.0327,2.0698,11.5724,1293,3057.64
1684,-3.8607,-2.0004,13.7451,1300,3057.64
1689,-3.9133,2.0985,9.3182,1299,3057.32
1694,2.3703,3.638,8.4779,1293,3057.32
1699,1.4018,1.7035,11.9973,1294,3057.32
1704,-4.2713,-1.9237,13.6218,1291,3057.32
1709,-3.158,2.2817,9.0118,1301,3057.79
1714,2.5115,3.7026,8.5736,1301,3057.79
1719,0.8092,1.3886,12.3206,1289,3057.79
1724,-4.6017,-1.7657,13.3848,1291,3057.79
1729,-2.4768,2.4086,8.6706,1293,3057.79
1734,2.654,3.7505,8.7544,1299,3057.79
1739,0.2646,1.0463,12.6857,1299,3057.79
1744,-4.9967,-1.4856,13.1442,1293,3057.79
1749,-1.6903,2.5295,8.4324,1298,3057.64
1754,2.8096,3.7709,8.8825,1299,3057.64
1759,-0.237,0.6907,13.0448,1298,3057.64
1764,-5.2852,-1.1696,12.8664,1301,3057.64
1769,-0.9744,2.6983,8.2624,1292,3057.64
1774,2.9473,3.7697,9.0381,1301,3057.64
1779,-0.6081,0.4034,13.3477,1291,3057.64
1784,-5.5653,-0.7805,12.542,1299,3057.64
1789,-0.3208,2.8311,8.1128,1300,3057.79
1794,3.1615,3.7302,9.2871,1299,3057.79
1799,-0.9577,0.0323,13.5632,1294,3057.79
1804,-5.7664,-0.4022,12.2619,1294,3057.79
1809,0.2466,2.9556,8.0445,1299,3057.64
1814,3.3076,3.6847,9.481,1301,3057.64
1819,-1.2881,-0.3424,13.7152,1294,3057.64
1824,-5.9376,0.0946,11.9016,1291,3057.64
1829,0.8368,3.0287,8.0182,1294,3057.48
1834,3.4225,3.5422,9.6845,1295,3057.48
1839,-1.7035,-0.7051,13.9007,1293,3057.48
1844,-5.9484,0.4752,11.4946,1295,3057.48
1849,1.2079,3.1663,8.0134,1295,3057.01
1854,3.4105,3.304,10.0137,1291,3057.01
1859,-2.138,-1.0523,14.0133,1293,3057.01
1864,-5.8562,0.9182,11.1019,1303,3057.01
1869,1.5634,3.3004,8.0649,1293,3057.17
1874,3.2825,3.1077,10.3441,1299,3057.17
1879,-2.563,-1.4305,14.0456,1293,3057.17
1884,-5.5785,1.2749,10.6183,1293,3057.17
1889,1.8411,3.3543,8.163,1301,3056.86
1894,2.9556,2.7797,10.7344,1299,3056.86
1899,-3.0227,-1.7418,13.9343,1291,3056.86
1904,-5.1918,1.5981,10.234,1295,3057.48
1909,2.0051,3.4225,8.2384,1294,3057.48
1914,2.5905,2.4181,11.1199,1303,3057.48
1919,-3.4536,-1.9297,13.8732,1299,3057.48
1924,-4.6914,1.8663,9.821,1299,3057.32
1929,2.1823,3.4788,8.3438,1295,3057.32
1934,2.047,2.1308,11.467,1295,3057.32
1939,-3.8571,-1.9788,13.7846,1303,3057.32
1944,-4.0725,2.0734,9.3996,1301,3056.86
1949,2.3128,3.6583,8.4958,1301,3056.86
1954,1.4473,1.7777,11.7926,1293,3056.86
1959,-4.2497,-1.9213,13.6434,1295,3056.86
1964,-3.3758,2.2458,9.0357,1299,3057.17
1969,2.4325,3.6404,8.5677,1302,3057.17
1974,0.844,1.4437,12.2487,1293,3057.17
1979,-4.5801,-1.8304,13.4363,1295,3057.17
1984,-2.6348,2.4014,8.7388,1299,3057.48
1989,2.5486,3.7481,8.7305,1303,3057.48
1994,0.334,1.0965,12.6246,1297,3057.48
1999,-4.9416,-1.561,13.1885,1292,3057.48
2004,-1.8926,2.5319,8.4874,1300,3057.79
2009,2.7114,3.7397,8.8298,1299,3057.79
2014,-0.1293,0.7614,12.9861,1301,3057.79
2019,-5.2625,-1.2881,12.9538,1303,3057.79
2024,-1.1456,2.6923,8.2157,1297,3057.95
2029,2.9329,3.8415,9.0381,1295,3057.95
2034,-0.5842,0.4549,13.2316,1289,3057.95
2039,-5.515,-0.9194,12.651,1301,3057.95
2044,-0.4298,2.7402,8.0601,1298,3057.64
2049,3.0825,3.7721,9.2093,1297,3057.64
2054,-0.9278,0.0922,13.453,1291,3057.64
2059,-5.7521,-0.5076,12.3433,1292,3057.64
2064,0.1233,2.8659,8.023,1305,3057.64
2069,3.2465,3.7194,9.4092,1303,3057.64
2074,-1.312,-0.2143,13.6793,1292,3057.64
2079,-5.952,0.0156,11.9566,1295,3057.64
2084,0.6644,3.0047,8.0026,1293,3057.64
2089,3.3495,3.5614,9.7193,1298,3057.64
2094,-1.6544,-0.6321,13.9079,1295,3057.64
2099,-5.9867,0.4262,11.5652,1295,3057.64
2104,1.087,3.1328,7.9835,1294,3057.48
2109,3.377,3.4105,9.9886,1298,3057.48
2114,-2.1153,-0.9517,13.9486,1293,3057.48
2119,-5.879,0.8619,11.1701,1301,3057.48
2124,1.5227,3.2525,8.0481,1293,3057.64
2129,3.286,3.1448,10.3825,1299,3057.64
2134,-2.545,-1.4066,14.0157,1291,3057.64
2139,-5.6599,1.2127,10.7787,1303,3057.64
2144,1.7861,3.3303,8.1092,1294,3057.64
2149,3.1065,2.8766,10.6554,1289,3057.64
2154,-2.9784,-1.6735,13.9726,1289,3057.64
2159,-5.3271,1.5526,10.3274,1293,3057.64
2164,1.9692,3.4321,8.2408,1292,3058.26
2169,2.6624,2.5438,11.0708,1304,3058.26
2174,-3.3974,-1.8615,13.9139,1291,3058.26
2179,-4.8566,1.8124,9.9395,1301,3058.42
2184,2.0925,3.5338,8.3115,1299,3058.42
2189,2.1895,2.1715,11.3916,1301,3058.42
2194,-3.8571,-1.9632,13.8337,1299,3058.42
2199,-4.1922,2.0542,9.4595,1301,3057.95
2204,2.2434,3.614,8.4767,1302,3057.95
2209,1.5874,1.8184,11.8369,1290,3057.95
2214,-4.2054,-1.9082,13.6637,1299,3057.95
2219,-3.4943,2.2517,9.1351,1303,3057.95
2224,2.3846,3.6811,8.5677,1299,3057.95
2229,1.0092,1.4784,12.2176,1299,3057.95
2234,-4.6076,-1.7957,13.4375,1291,3057.95
2239,-2.7306,2.4457,8.7807,1299,3058.26
2244,2.5426,3.7158,8.7233,1301,3058.26
2249,0.4298,1.1349,12.5995,1295,3058.26
2254,-4.962,-1.5778,13.1932,1293,3058.26
2259,-1.9812,2.5534,8.5006,1295,3058.1
2264,2.7557,3.8056,8.7795,1301,3058.1
2269,-0.0826,0.8092,12.9155,1301,3058.1
2274,-5.2732,-1.2713,13.0017,1301,3058.1
2279,-1.2294,2.6755,8.2911,1293,3058.42
2284,2.9353,3.8678,9.0309,1301,3058.42
2289,-0.5507,0.4848,13.1777,1299,3058.42
2294,-5.5162,-0.8404,12.6761,1305,3058.42
2299,-0.5148,2.7725,8.1403,1301,3058.57
2304,3.1268,3.7816,9.1602,1300,3058.57
2309,-0.9098,0.1437,13.5584,1292,3058.57
2314,-5.8131,-0.4034,12.3876,1299,3058.57
2319,0.0982,2.8982,8.1271,1303,3058.57
2324,3.3004,3.7146,9.3793,1300,3058.57
2329,-1.2953,-0.1939,13.7116,1297,3058.57
2334,-5.9496,-0.0108,11.9842,1293,3058.57
2339,0.6943,3.0478,8.0349,1291,3058.42
2344,3.4261,3.5494,9.6618,1297,3058.42
2349,-1.6568,-0.5854,13.9199,1295,3058.42
2354,-5.9711,0.4441,11.6298,1291,3058.42
2359,1.1205,3.1627,8.0756,1293,3058.42
2364,3.4752,3.3483,9.9467,1295,3058.42
2369,-2.1213,-0.984,14.0456,1299,3058.42
2374,-5.9053,0.8787,11.1893,1303,3058.42
2379,1.4832,3.316,8.096,1292,3058.26
2384,3.3794,3.1699,10.2556,1294,3058.26
2389,-2.5355,-1.3671,14.0671,1291,3058.26
2394,-5.6743,1.2426,10.7607,1301,3058.26
2399,1.8028,3.3399,8.1726,1299,3058.26
2404,3.152,2.8874,10.5836,1292,3058.26
2409,-2.9233,-1.6005,14.0863,1291,3058.26
2414,-5.3307,1.573,10.3346,1293,3058.26
2419,1.9369,3.4345,8.2636,1293,3058.57
2424,2.745,2.5295,10.9918,1301,3058.57
2429,-3.3878,-1.7861,13.9498,1291,3058.57
2434,-4.8375,1.8675,9.8737,1297,3058.88
2439,2.1751,3.5123,8.4084,1298,3058.88
2444,2.2158,2.1787,11.3653,1299,3058.88
2449,-3.8128,-1.9321,13.8289,1295,3058.88
2454,-4.1827,2.0889,9.5086,1301,3058.88
2459,2.2817,3.638,8.4168,1302,3058.88
2464,1.5933,1.8064,11.7938,1293,3058.88
2469,-4.2006,-1.9058,13.6314,1295,3058.88
2474,-3.4776,2.2745,9.1267,1299,3059.2
2479,2.4098,3.7182,8.6227,1300,3059.2
2484,0.9685,1.4269,12.2559,1291,3059.2
2489,-4.6124,-1.7933,13.4494,1293,3059.2
2494,-2.7174,2.4373,8.8011,1299,3059.04
2499,2.6085,3.8104,8.7149,1304,3059.04
2504,0.3855,1.1708,12.5348,1299,3059.04
2509,-4.8985,-1.5718,13.198,1299,3059.04
2514,-1.9644,2.5881,8.4827,1299,3058.73
2519,2.7509,3.8104,8.8909,1299,3058.73
2524,-0.1113,0.7973,12.8521,1302,3058.73
2529,-5.2337,-1.2318,12.985,1301,3058.73
2534,-1.166,2.7007,8.3318,1297,3058.73
2539,2.9712,3.8223,9.0393,1303,3058.73
2544,-0.5339,0.4405,13.2256,1299,3058.73
2549,-5.5174,-0.8188,12.6234,1307,3058.73
2554,-0.4729,2.8084,8.1702,1303,3058.57
2559,3.1161,3.7757,9.165,1299,3058.57
2564,-0.9218,0.1496,13.5248,1293,3058.57
2569,-5.7533,-0.3783,12.2906,1293,3058.57
2574,0.1377,2.9987,8.096,1301,3059.04
2579,3.3052,3.7002,9.4056,1300,3059.04
2584,-1.3108,-0.1999,13.7726,1299,3059.04
2589,-5.9388,0.018,11.9363,1288,3059.04
2594,0.7314,3.0981,8.011,1294,3058.73
2599,3.4369,3.5961,9.742,1299,3058.73
2604,-1.664,-0.6201,13.8505,1293,3058.73
2609,-5.9831,0.431,11.5796,1295,3058.73
2614,1.2198,3.1663,8.0014,1294,3058.73
2619,3.5051,3.371,9.9623,1287,3058.73
2624,-2.0698,-1.0116,13.9821,1299,3058.73
2629,-5.873,0.8787,11.139,1299,3058.73
2634,1.549,3.3375,8.1475,1291,3058.88
2639,3.4034,3.1304,10.3394,1299,3058.88
2644,-2.5091,-1.3635,14.0743,1291,3058.88
2649,-5.7162,1.245,10.6889,1303,3058.88
2654,1.7813,3.3627,8.1954,1297,3058.88
2659,3.0969,2.8048,10.6279,1295,3058.88
2664,-2.964,-1.6628,14.0037,1291,3058.88
2669,-5.2756,1.5826,10.2891,1295,3058.88
2674,2.0435,3.5291,8.2959,1293,3058.88
2679,2.7007,2.5199,11.0648,1301,3058.88
2684,-3.4189,-1.8124,13.9151,1291,3058.88
2689,-4.7824,1.895,9.8557,1301,3059.04
2694,2.2242,3.565,8.4156,1299,3059.04
2699,2.1608,2.0973,11.461,1300,3059.04
2704,-3.8259,-1.9393,13.7619,1301,3059.04
2709,-4.1312,2.1081,9.481,1299,3059.35
2714,2.3355,3.638,8.5042,1299,3059.35
2719,1.5646,1.7681,11.7962,1295,3059.35
2724,-4.2569,-1.8878,13.6015,1294,3059.35
2729,-3.4069,2.296,9.0692,1301,3059.04
2734,2.4924,3.6919,8.6323,1300,3059.04
2739,0.9708,1.397,12.1925,1299,3059.04
2744,-4.6268,-1.7549,13.4219,1291,3059.04
2749,-2.636,2.4505,8.7185,1300,3059.35
2754,2.6827,3.8295,8.7903,1301,3059.35
2759,0.4118,1.1169,12.5839,1299,3059.35
2764,-4.9584,-1.488,13.0951,1299,3059.35
2769,-1.8316,2.5678,8.4815,1299,3059.2
2774,2.7904,3.7745,8.9364,1299,3059.2
2779,-0.1425,0.7326,12.9622,1302,3059.2
2784,-5.2912,-1.2258,12.87,1301,3059.2
2789,-1.0678,2.7426,8.3234,1295,3059.66
2794,2.982,3.8164,8.9938,1301,3059.66
2799,-0.5112,0.3831,13.283,1297,3059.66
2804,-5.5988,-0.7781,12.5277,1301,3059.66
2809,-0.3232,2.8647,8.2037,1305,3059.66
2814,3.1891,3.7996,9.2536,1300,3059.66
2819,-0.9469,0.0108,13.5823,1295,3059.66
2824,-5.7497,-0.3986,12.2631,1299,3059.66
2829,0.2753,2.9951,8.0613,1303,3059.82
2834,3.3974,3.6775,9.4116,1300,3059.82
2839,-1.312,-0.2933,13.7176,1292,3059.82
2844,-5.9544,0.1221,11.9183,1293,3059.82
2849,0.8619,3.0957,8.1056,1293,3060.29
2854,3.5075,3.4991,9.7169,1295,3060.29
2859,-1.719,-0.7278,13.9175,1295,3060.29
2864,-5.94,0.5339,11.4682,1291,3060.29
2869,1.2641,3.2322,8.0397,1298,3059.98
2874,3.535,3.3411,9.979,1287,3059.98
2879,-2.1117,-1.1001,14.0001,1295,3059.98
2884,-5.8526,0.9864,11.0157,1303,3059.98
2889,1.6364,3.3591,8.163,1291,3060.13
2894,3.3615,3.0215,10.3441,1295,3060.13
2899,-2.6085,-1.4724,14.0492,1293,3060.13
2904,-5.6,1.2929,10.5704,1302,3060.13
2909,1.8483,3.4141,8.2205,1303,3059.66
2914,3.0897,2.7138,10.7524,1297,3059.66
2919,-3.1196,-1.731,13.9618,1291,3059.66
2924,-5.1858,1.64,10.1071,1391,3059.2
2929,2.0638,3.4895,8.3115,1297,3059.2
2934,2.5953,2.3798,11.1115,1301,3059.2
2939,-3.5386,-1.8914,13.8337,1293,3059.2
2944,-4.6088,1.8806,9.7037,1304,3060.29
2949,2.247,3.553,8.4408,1301,3060.29
2954,2.0399,1.9956,11.5712,1293,3060.29
2959,-3.978,-1.9764,13.7762,1299,3060.29
2964,-3.9421,2.1679,9.2823,1303,3059.51
2969,2.3858,3.6607,8.5928,1301,3059.51
2974,1.4222,1.646,11.904,1293,3059.51
2979,-4.3586,-1.8914,13.5452,1293,3059.51
2984,-3.1508,2.3176,8.9304,1295,3059.66
2989,2.5546,3.717,8.661,1301,3059.66
2994,0.8296,1.3084,12.3062,1293,3059.66
2999,-4.7118,-1.7298,13.295,1287,3059.66
3004,-2.3703,2.466,8.6754,1299,3059.98
3009,2.7078,3.7302,8.7592,1305,3059.98
3014,0.2478,0.9254,12.6737,1293,3059.98
3019,-5.0781,-1.4676,13.0568,1295,3059.98
3024,-1.5921,2.5426,8.3785,1297,3060.13
3029,2.8563,3.7888,8.9423,1289,3060.13
3034,-0.2658,0.6069,13.0831,1301,3060.13
3039,-5.4109,-1.1277,12.7934,1307,3060.13
3044,-0.826,2.739,8.1942,1292,3060.44
3049,3.0777,3.79,9.074,1303,3060.44
3054,-0.6704,0.2658,13.38,1291,3060.44
3059,-5.6383,-0.7207,12.4534,1303,3060.44
3064,-0.1389,2.8563,8.0924,1295,3060.29
3069,3.2441,3.7338,9.3218,1300,3060.29
3074,-1.0223,-0.1089,13.5655,1292,3060.29
3079,-5.8359,-0.237,12.0871,1295,3060.29
3084,0.4453,2.9999,8.0481,1301,3060.44
3089,3.4453,3.6152,9.5026,1301,3060.44
3094,-1.4377,-0.4705,13.8385,1291,3060.44
3099,-6.0106,0.243,11.7543,1295,3060.44
3104,0.9349,3.1412,8.0756,1297,3060.6
3109,3.5326,3.4584,9.8031,1298,3060.6
3114,-1.889,-0.8954,13.9594,1299,3060.6
3119,-5.9568,0.6716,11.2958,1299,3060.6
3124,1.4138,3.2178,8.1044,1295,3060.6
3129,3.4369,3.1939,10.1706,1295,3060.6
3134,-2.3391,-1.2797,14.048,1291,3060.6
3139,-5.8131,1.0558,10.8661,1304,3060.6
3144,1.7035,3.3339,8.1139,1293,3060.76
3149,3.2789,2.9425,10.6003,1301,3060.76
3154,-2.8299,-1.6101,13.9726,1289,3060.76
3159,-5.4839,1.4401,10.4339,1294,3060.76
3164,1.9788,3.3914,8.2444,1299,3060.76
3169,2.9377,2.5965,10.9499,1301,3060.76
3174,-3.3112,-1.8316,13.9366,1277,3060.76
3179,-5.0063,1.7825,10.0161,1299,3059.98
3184,2.1512,3.5051,8.3929,1291,3059.98
3189,2.4732,2.2254,11.2252,1302,3059.98
3194,-3.7529,-1.9429,13.7978,1295,3059.98
3199,-4.397,2.0303,9.5624,1299,3061.69
3204,2.2398,3.5805,8.4731,1301,3061.69
3209,1.8268,1.8555,11.7292,1297,3061.69
3214,-4.136,-2.0063,13.6541,1302,3061.69
3219,-3.6703,2.2075,9.1638,1303,3060.6
3224,2.381,3.5949,8.5832,1299,3060.6
3229,1.1372,1.4365,12.0345,1301,3060.6
3234,-4.5466,-1.8675,13.4327,1295,3060.6
3239,-2.8479,2.4349,8.8538,1300,3060.91
3244,2.5654,3.7314,8.7029,1303,3060.91
3249,0.5423,1.1588,12.572,1295,3060.91
3254,-4.9632,-1.6532,13.1837,1298,3060.91
3259,-2.0147,2.5438,8.5461,1301,3060.76
3264,2.727,3.6727,8.7484,1299,3060.76
3269,-0.0072,0.7673,12.8856,1287,3060.76
3274,-5.3103,-1.306,12.9586,1295,3060.76
3279,-1.2713,2.715,8.3354,1298,3060.76
3284,2.9317,3.7876,9.0058,1303,3060.76
3289,-0.492,0.4322,13.2052,1293,3060.76
3294,-5.5581,-0.899,12.6246,1305,3060.76
3299,-0.5483,2.806,8.1762,1295,3060.6
3304,3.1184,3.7601,9.1267,1303,3060.6
3309,-0.8823,0.079,13.4399,1293,3060.6
3314,-5.7892,-0.4872,12.3038,1301,3060.6
3319,0.1652,2.9664,8.1068,1300,3060.91
3324,3.3255,3.699,9.3972,1299,3060.91
3329,-1.2354,-0.322,13.7295,1299,3060.91
3334,-6.0118,-0.0263,11.9626,1295,3060.91
3339,0.7051,3.0562,8.0924,1293,3060.91
3344,3.468,3.5243,9.6283,1299,3060.91
3349,-1.6915,-0.7159,13.9594,1299,3060.91
3354,-6.0298,0.4573,11.5365,1295,3060.91
3359,1.1576,3.2166,8.0984,1297,3060.91
3364,3.4764,3.3351,9.9383,1289,3060.91
3369,-2.132,-1.0487,14.0264,1301,3060.91
3374,-5.9472,0.9397,11.1522,1300,3060.91
3379,1.555,3.2334,8.0589,1293,3060.76
3384,3.3531,3.061,10.3046,1294,3060.76
3389,-2.7031,-1.4509,14.0695,1292,3060.76
3394,-5.7126,1.3192,10.6817,1305,3060.76
3399,1.7681,3.3878,8.2456,1295,3061.07
3404,3.0406,2.8371,10.7548,1293,3061.07
3409,-3.128,-1.7286,13.9738,1292,3061.07
3414,-5.266,1.6592,10.2089,1299,3061.07
3419,2.0506,3.4381,8.3522,1299,3061.38
3424,2.5893,2.3631,11.0947,1298,3061.38
3429,-3.5434,-1.9381,13.9654,1288,3061.38
3434,-4.7046,1.9237,9.7181,1297,3061.69
3439,2.1727,3.5877,8.43,1299,3061.69
3444,2.0662,2.071,11.491,1299,3061.69
3449,-4.0103,-1.9632,13.7331,1300,3061.69
3454,-4.0067,2.1368,9.347,1289,3061.85
3459,2.3463,3.6105,8.5377,1301,3061.85
3464,1.3491,1.646,11.9973,1297,3061.85
3469,-4.4125,-1.9285,13.5416,1297,3061.85
3474,-3.2154,2.3391,9.0621,1300,3061.54
3479,2.4612,3.7385,8.6742,1301,3061.54
3484,0.7709,1.2725,12.3661,1294,3061.54
3489,-4.8387,-1.7262,13.3465,1291,3061.54
3494,-2.3882,2.4948,8.6814,1297,3061.69
3499,2.6564,3.7242,8.7616,1300,3061.69
3504,0.1867,0.9457,12.7755,1298,3061.69
3509,-5.1978,-1.5119,13.0269,1299,3061.69
3514,-1.5742,2.6827,8.3354,1301,3061.54
3519,2.8575,3.8211,8.9459,1299,3061.54
3524,-0.3208,0.595,13.0436,1297,3061.54
3529,-5.4947,-1.0427,12.7755,1301,3061.54
3534,-0.7985,2.8012,8.2301,1295,3061.54
3539,3.0311,3.8164,9.1423,1301,3061.54
3544,-0.7482,0.2322,13.3525,1293,3061.54
3549,-5.7724,-0.644,12.3637,1288,3061.54
3554,-0.085,2.9066,8.1235,1301,3061.54
3559,3.2286,3.7409,9.3386,1299,3061.54
3564,-1.1552,-0.146,13.6266,1303,3061.54
3569,-5.9687,-0.1616,12.0668,1295,3061.54
3574,0.5303,3.0682,8.078,1299,3061.69
3579,3.4058,3.6057,9.5912,1301,3061.69
3584,-1.5706,-0.5195,13.8169,1289,3061.69
3589,-6.0801,0.2933,11.7124,1293,3061.69
3594,1.0594,3.1615,8.0553,1293,3061.85
3599,3.4788,3.4261,9.8785,1285,3061.85
3604,-2.0279,-0.9194,14.0085,1191,3061.85
3609,-6.0609,0.7661,11.2899,1228,3061.85
3614,1.4473,3.3064,8.1415,1247,3062.01
3619,3.4034,3.1663,10.3034,1209,3062.01
3624,-2.46,-1.312,14.0097,1177,3062.01
3629,-5.8155,1.2354,10.8314,1189,3062.01
3634,1.7442,3.3435,8.181,1178,3061.85
3639,3.2238,2.8754,10.6662,1187,3061.85
3644,-3.0023,-1.6125,14.0181,1165,3061.85
3649,-5.4755,1.5933,10.3681,1175,3061.85
3654,2.0027,3.4776,8.2384,1176,3061.69
3659,2.8012,2.5486,10.9607,1183,3061.69
3664,-3.4129,-1.8663,13.9486,1175,3061.69
3669,-4.8914,1.8244,9.9072,1175,3060.76
3674,2.1332,3.5231,8.424,1177,3060.76
3679,2.2577,2.1596,11.3952,1183,3060.76
3684,-3.8559,-1.9429,13.8457,1179,3060.76
3689,-4.2318,2.1165,9.5313,1177,3059.82
3694,2.2889,3.6308,8.4994,1173,3059.82
3699,1.5838,1.8184,11.795,1175,3059.82
3704,-4.282,-1.907,13.6517,1179,3059.82
3709,-3.4943,2.2541,9.1351,1183,3060.6
3714,2.4361,3.6799,8.6179,1197,3060.6
3719,0.9828,1.4521,12.2032,1181,3060.6
3724,-4.6783,-1.8028,13.3872,1187,3060.6
3729,-2.6851,2.4576,8.8059,1186,3059.51
3734,2.6037,3.7266,8.7269,1177,3059.51
3739,0.4094,1.1217,12.5803,1177,3059.51
3744,-5.035,-1.5407,13.149,1175,3059.51
3749,-1.9237,2.5809,8.4791,1177,3059.51
3754,2.7653,3.8235,8.8406,1178,3059.51
3759,-0.0874,0.7278,12.9395,1175,3059.51
3764,-5.3415,-1.2342,12.949,1172,3059.51
3769,-1.1576,2.7078,8.3282,1158,3059.51
3774,3.0035,3.8583,9.0285,1178,3059.51
3779,-0.5543,0.4393,13.2196,1181,3059.51
3784,-5.5988,-0.838,12.6294,1189,3059.51
3789,-0.4345,2.8096,8.2444,1179,3059.98
3794,3.152,3.7637,9.1734,1187,3059.98
3799,-0.9565,0.0539,13.5799,1181,3059.98
3804,-5.8706,-0.3687,12.2236,1175,3059.98
3809,0.2227,2.9652,8.1151,1189,3060.13
3814,3.3064,3.6895,9.4116,1191,3060.13
3819,-1.3348,-0.267,13.7846,1189,3060.13
3824,-6.0094,0.1161,11.9183,1187,3060.13
3829,0.7494,3.1137,8.0912,1189,3060.13
3834,3.4836,3.4991,9.7217,1191,3060.13
3839,-1.7454,-0.6919,13.9103,1189,3060.13
3844,-6.0226,0.5231,11.4575,1189,3060.13
3849,1.2282,3.1819,8.0924,1183,3060.6
3854,3.5087,3.3471,10.0449,1188,3060.6
3859,-2.1715,-1.075,13.9845,1195,3060.6
3864,-5.9304,0.9804,11.0648,1182,3060.6
3869,1.6053,3.3483,8.0984,1182,3060.6
3874,3.3674,3.0251,10.3441,1187,3060.6
3879,-2.6348,-1.4353,14.0157,1188,3060.6
3884,-5.6084,1.3635,10.6686,1197,3060.6
3889,1.816,3.4213,8.2229,1197,3060.44
3894,3.0969,2.7545,10.7021,1196,3060.44
3899,-3.0825,-1.7011,14.0336,1191,3060.44
3904,-5.2349,1.658,10.228,1191,3060.44
3909,2.0925,3.4812,8.3474,1195,3060.44
3914,2.6384,2.4062,11.133,1196,3060.44
3919,-3.5446,-1.9034,13.9031,1193,3060.44
3924,-4.6699,1.919,9.7504,1196,3060.44
3929,2.1931,3.5841,8.4408,1189,3060.44
3934,2.0279,2.0387,11.5963,1195,3060.44
3939,-3.9911,-1.9393,13.7463,1199,3060.44
3944,-3.9648,2.1524,9.3769,1194,3060.44
3949,2.3786,3.6164,8.5186,1193,3060.44
3954,1.4341,1.6352,12.0201,1191,3060.44
3959,-4.379,-1.9405,13.544,1197,3060.44
3964,-3.2118,2.3355,8.9663,1195,3060.6
3969,2.5522,3.7553,8.6431,1193,3060.6
3974,0.7865,1.3264,12.3649,1192,3060.6
3979,-4.7788,-1.6999,13.3082,1197,3060.6
3984,-2.3954,2.4684,8.6395,1193,3060.44
3989,2.7007,3.7792,8.7855,1191,3060.44
3994,0.2167,0.911,12.706,1192,3060.44
3999,-5.0566,-1.488,13.1071,1193,3060.44
4004,-1.5886,2.6097,8.4467,1192,3060.44
4009,2.897,3.8367,9.013,1195,3060.44
4014,-0.2957,0.6428,13.0723,1193,3060.44
4019,-5.4169,-1.0678,12.8054,1193,3060.44
4024,-0.8475,2.739,8.2193,1190,3060.13
4029,3.0706,3.7984,9.0609,1191,3060.13
4034,-0.6812,0.2765,13.368,1184,3060.13
4039,-5.6934,-0.6536,12.4582,1195,3060.13
4044,-0.152,2.903,8.1906,1191,3059.98
4049,3.2441,3.7266,9.323,1193,3059.98
4054,-1.075,-0.0383,13.6146,1189,3059.98
4059,-5.9113,-0.1891,12.1087,1197,3059.98
4064,0.4848,3.043,8.0302,1195,3059.66
4069,3.4381,3.6045,9.5373,1192,3059.66
4074,-1.482,-0.4585,13.8433,1191,3059.66
4079,-5.9687,0.2382,11.8226,1195,3059.66
4084,1.0355,3.1496,8.0505,1189,3059.35
4089,3.5398,3.4943,9.8318,1189,3059.35
4094,-1.8806,-0.8404,13.9043,1183,3059.35
4099,-5.964,0.7314,11.3689,1189,3059.35
4104,1.4198,3.2226,8.0589,1181,3059.51
4109,3.4848,3.2729,10.2244,1179,3059.51
4114,-2.3391,-1.2366,14.0791,1171,3059.51
4119,-5.7569,1.0678,10.8984,1191,3059.51
4124,1.6939,3.3303,8.078,1167,3059.35
4129,3.3016,2.9939,10.4615,1175,3059.35
4134,-2.8156,-1.4641,14.0815,1181,3059.35
4139,-5.4875,1.4078,10.4818,1191,3059.35
4144,1.9441,3.4488,8.2636,1189,3059.35
4149,2.8563,2.6408,10.9104,1183,3059.35
4154,-3.2729,-1.7861,14.0121,1183,3059.35
4159,-4.9895,1.7478,10.0796,1187,3059.35
4164,2.1763,3.5338,8.2612,1183,3059.66
4169,2.46,2.2948,11.3353,1195,3059.66
4174,-3.7278,-1.9142,13.8684,1180,3059.66
4179,-4.385,2.0171,9.6403,1197,3059.51
4184,2.3391,3.6224,8.4108,1187,3059.51
4189,1.8711,1.9106,11.7364,1187,3059.51
4194,-4.1156,-1.9525,13.6493,1191,3059.51
4199,-3.6835,2.1931,9.2213,1187,3059.82
4204,2.4672,3.6559,8.5174,1183,3059.82
4209,1.2354,1.5802,12.123,1181,3059.82
4214,-4.5334,-1.7957,13.526,1177,3059.82
4219,-2.9006,2.411,8.8789,1165,3060.13
4224,2.5893,3.7553,8.6754,1165,3060.13
4229,0.5423,1.2306,12.4475,1161,3060.13
4234,-4.8854,-1.6281,13.2926,1161,3060.13
4239,-2.1201,2.5187,8.5437,1163,3059.98
4244,2.7461,3.7517,8.7771,1169,3059.98
4249,0.0012,0.899,12.864,1167,3059.98
4254,-5.2134,-1.2761,13.0448,1163,3059.98
4259,-1.3048,2.6827,8.3318,1161,3059.98
4264,2.9413,3.7924,8.8933,1163,3059.98
4269,-0.4729,0.5638,13.2351,1163,3059.98
4274,-5.4755,-0.9625,12.7108,1166,3059.98
4279,-0.5938,2.7857,8.1702,1165,3059.98
4284,3.1424,3.7769,9.1016,1163,3059.98
4289,-0.8428,0.1963,13.5667,1163,3059.98
4294,-5.7533,-0.5183,12.4056,1168,3059.98
4299,0.0958,2.9317,8.0242,1167,3059.98
4304,3.3579,3.723,9.3326,1167,3059.98
4309,-1.2749,-0.146,13.6769,1167,3059.98
4314,-5.8957,-0.0934,12.0452,1171,3059.98
4319,0.6297,3.0347,7.9871,1173,3059.98
4324,3.4524,3.6117,9.5936,1169,3059.98
4329,-1.6676,-0.6057,13.8924,1171,3059.98
4334,-5.9472,0.3747,11.6634,1167,3059.98
4339,1.1444,3.1687,7.9906,1172,3060.13
4344,3.5458,3.4477,9.8928,1167,3060.13
4349,-2.0279,-0.9134,14.0683,1175,3060.13
4354,-5.9161,0.8499,11.2899,1227,3060.13
4359,1.5071,3.2848,8.0086,1237,3060.6
4364,3.4477,3.1663,10.2711,1237,3060.6
4369,-2.4828,-1.3384,14.0719,1235,3060.6
4374,-5.7054,1.2067,10.7571,1239,3060.6
4379,1.8088,3.3615,8.0685,1235,3060.76
4384,3.1759,2.8635,10.6458,1240,3060.76
4389,-2.9676,-1.5754,13.9833,1215,3060.76
4394,-5.3331,1.5838,10.3058,1235,3060.76
4399,2.065,3.4536,8.1762,1239,3061.07
4404,2.7928,2.5379,11.1582,1235,3061.07
4409,-3.4405,-1.8687,13.945,1241,3061.07
4414,-4.7645,1.8579,9.8701,1245,3061.22
4419,2.2565,3.5686,8.3163,1243,3061.22
4424,2.2649,2.2122,11.4682,1245,3061.22
4429,-3.8762,-1.9609,13.8062,1245,3061.22
4434,-4.1779,2.0997,9.4128,1251,3060.76
4439,2.3619,3.6416,8.406,1251,3060.76
4444,1.6005,1.7717,11.8932,1241,3060.76
4449,-4.2521,-1.9405,13.6469,1241,3060.76
4454,-3.3758,2.2302,9.0345,1253,3060.91
4459,2.5187,3.7062,8.5629,1253,3060.91
4464,0.9924,1.4305,12.2559,1241,3060.91
4469,-4.6699,-1.7717,13.4183,1243,3060.91
4474,-2.5558,2.4181,8.6371,1243,3060.91
4479,2.7078,3.7685,8.7436,1253,3060.91
4484,0.3304,1.069,12.6893,1243,3060.91
4489,-5.0087,-1.5179,13.1789,1241,3060.91
4494,-1.7729,2.563,8.4096,1241,3060.44
4499,2.8599,3.7721,8.8573,1245,3060.44
4504,-0.1616,0.7578,13.0616,1241,3060.44
4509,-5.3642,-1.1253,12.8473,1237,3060.44
4514,-0.9936,2.721,8.2492,1239,3060.76
4519,3.0382,3.8188,9.0118,1242,3060.76
4524,-0.6141,0.3496,13.3261,1243,3060.76
4529,-5.6288,-0.7841,12.5396,1245,3060.76
4534,-0.2562,2.8599,8.078,1237,3060.76
4539,3.2513,3.7481,9.2955,1245,3060.76
4544,-0.9912,0.0503,13.5596,1241,3060.76
4549,-5.8419,-0.3017,12.1985,1245,3060.76
4554,0.3603,2.9437,7.9631,1251,3060.76
4559,3.4213,3.6607,9.5014,1245,3060.76
4564,-1.4162,-0.3675,13.7607,1242,3060.76
4569,-5.9448,0.1197,11.8645,1242,3060.76
4574,0.8847,3.0442,7.9787,1242,3060.91
4579,3.5554,3.5338,9.7971,1246,3060.91
4584,-1.7957,-0.759,13.9678,1239,3060.91
4589,-5.9675,0.5914,11.4275,1243,3060.91
4594,1.3192,3.1651,7.9727,1242,3060.76
4599,3.4967,3.2633,10.0185,1242,3060.76
4604,-2.2553,-1.172,14.0157,1245,3060.76
4609,-5.861,0.9816,10.9547,1245,3060.76
4614,1.6759,3.3088,8.1008,1237,3061.22
4619,3.3543,3.0203,10.4722,1241,3061.22
4624,-2.733,-1.5024,14.036,1239,3061.22
4629,-5.5557,1.3408,10.4962,1252,3061.22
4634,1.9501,3.3387,8.1151,1244,3060.91
4639,3.0454,2.7019,10.8864,1243,3060.91
4644,-3.2561,-1.8016,14.0408,1237,3060.91
4649,-5.114,1.7262,10.1047,1237,3060.91
4654,2.1261,3.4812,8.2109,1245,3061.07
4659,2.5379,2.3439,11.303,1247,3061.07
4664,-3.7146,-1.9333,13.8888,1237,3061.07
4669,-4.4341,2.0231,9.6103,1244,3061.22
4674,2.2865,3.5362,8.3294,1239,3061.22
4679,1.8962,1.9142,11.6873,1247,3061.22
4684,-4.0893,-1.9752,13.7607,1245,3061.22
4689,-3.7457,2.1967,9.25,1240,3061.38
4694,2.411,3.6404,8.4635,1251,3061.38
4699,1.2306,1.6077,12.0799,1245,3061.38
4704,-4.4891,-1.8675,13.5356,1247,3061.38
4709,-2.8754,2.3367,8.8286,1240,3061.69
4714,2.5857,3.7074,8.5928,1247,3061.69
4719,0.5567,1.2246,12.5001,1245,3061.69
4724,-4.9093,-1.7322,13.2423,1243,3061.69
4729,-2.1129,2.5103,8.5437,1243,3061.69
4734,2.7665,3.7397,8.7137,1253,3061.69
4739,-0.0072,0.8727,12.8652,1244,3061.69
4744,-5.2146,-1.3539,13.0304,1243,3061.69
4749,-1.3408,2.6396,8.3175,1243,3061.38
4754,2.958,3.7948,8.9699,1243,3061.38
4759,-0.4345,0.5315,13.2663,1252,3061.38
4764,-5.5426,-0.9864,12.7348,1245,3061.38
4769,-0.5997,2.7569,8.1008,1245,3061.22
4774,3.1903,3.7493,9.086,1247,3061.22
4779,-0.8344,0.164,13.5177,1244,3061.22
4784,-5.8155,-0.5495,12.4463,1253,3061.22
4789,0.0563,2.9018,8.0134,1247,3060.76
4794,3.3208,3.7038,9.396,1245,3060.76
4799,-1.2977,-0.2334,13.7008,1244,3060.76
4804,-5.9436,-0.103,12.0189,1245,3060.76
4809,0.6847,2.9987,7.9691,1255,3060.76
4814,3.5003,3.5482,9.651,1249,3060.76
4819,-1.64,-0.5878,13.9438,1250,3060.76
4824,-6.0466,0.3759,11.6011,1243,3060.76
4829,1.154,3.1208,7.9607,1247,3060.6
4834,3.5135,3.3471,9.9838,1251,3060.6
4839,-2.1117,-1.0151,14.0348,1251,3060.6
4844,-5.9484,0.8009,11.1462,1243,3060.6
4849,1.5143,3.2322,8.0313,1253,3060.44
4854,3.4345,3.1328,10.3058,1245,3060.44
4859,-2.569,-1.3288,14.0611,1253,3060.44
4864,-5.7162,1.2234,10.7739,1253,3060.44
4869,1.7945,3.3363,8.0912,1245,3060.44
4874,3.1244,2.8299,10.7847,1246,3060.44
4879,-3.0418,-1.6999,13.963,1243,3060.44
4884,-5.3187,1.5431,10.2532,1251,3060.44
4889,2.0207,3.389,8.2013,1251,3060.13
4894,2.7557,2.4816,11.1055,1247,3060.13
4899,-3.5219,-1.913,13.9067,1243,3060.13
4904,-4.7465,1.8483,9.7851,1253,3060.44
4909,2.1943,3.4608,8.2875,1251,3060.44
4914,2.1416,2.1165,11.5161,1255,3060.44
4919,-3.8918,-1.968,13.7667,1245,3060.44
4924,-4.1049,2.0806,9.3158,1247,3060.76
4929,2.2853,3.6296,8.436,1247,3060.76
4934,1.4844,1.7454,11.9004,1255,3060.76
4939,-4.2808,-1.9597,13.6745,1262,3060.76
4944,-3.3363,2.2841,9.0405,1257,3059.82
4949,2.4972,3.7373,8.57,1263,3059.82
4954,0.8751,1.409,12.3002,1259,3059.82
4959,-4.6974,-1.7454,13.3968,1271,3059.82
4964,-2.5642,2.4038,8.7065,1260,3060.76
4969,2.6121,3.6619,8.7137,1263,3060.76
4974,0.2909,1.0391,12.736,1255,3060.76
4979,-5.0925,-1.5167,13.2124,1257,3060.76
4984,-1.7861,2.5941,8.3809,1257,3060.76
4989,2.8096,3.7553,8.8957,1269,3060.76
4994,-0.2346,0.7494,13.0233,1251,3060.76
4999,-5.4229,-1.1708,12.8904,1257,3060.76
5004,-1.0511,2.6971,8.2037,1259,3060.6
5009,3.0131,3.8068,9.0082,1261,3060.6
5014,-0.65,0.3591,13.3273,1263,3060.6
5019,-5.6802,-0.7638,12.542,1257,3060.6
5024,-0.243,2.818,8.0721,1243,3060.76
5029,3.2609,3.7529,9.25,1255,3060.76
5034,-1.0199,-0.0024,13.629,1251,3060.76
5039,-5.9017,-0.2909,12.2918,1253,3060.76
5044,0.3424,2.9161,8.0266,1253,3060.29
5049,3.383,3.6428,9.4715,1253,3060.29
5054,-1.4736,-0.3903,13.805,1247,3060.29
5059,-6.0382,0.1508,11.8525,1251,3060.29
5064,0.8487,3.061,8.0014,1254,3060.44
5069,3.4584,3.4931,9.7827,1257,3060.44
5074,-1.9166,-0.747,14.0516,1251,3060.44
5079,-6.0047,0.5638,11.4658,1254,3060.44
5084,1.318,3.1699,7.993,1256,3060.13
5089,3.4716,3.2501,10.155,1257,3060.13
5094,-2.3463,-1.166,14.0863,1255,3060.13
5099,-5.8646,1.0199,11.0516,1259,3060.13
5104,1.6472,3.2429,8.078,1257,3059.98
5109,3.3243,3.0167,10.5393,1253,3059.98
5114,-2.7833,-1.488,14.042,1251,3059.98
5119,-5.5186,1.4257,10.5716,1260,3059.98
5124,1.8723,3.3794,8.1822,1255,3059.98
5129,2.9616,2.6755,10.9056,1259,3059.98
5134,-3.2525,-1.7669,13.9666,1252,3059.98
5139,-5.1044,1.7095,10.0868,1252,3059.98
5144,2.0913,3.4608,8.2564,1261,3060.13
5149,2.484,2.3607,11.2923,1255,3060.13
5154,-3.6727,-1.9297,13.9055,1243,3060.13
5159,-4.525,1.9872,9.6379,1255,3059.66
5164,2.2338,3.5662,8.4503,1253,3059.66
5169,1.8747,2.0159,11.6873,1259,3059.66
5174,-4.1396,-1.9357,13.7176,1255,3059.66
5179,-3.8068,2.1524,9.2943,1259,3060.76
5184,2.381,3.6248,8.6084,1256,3060.76
5189,1.2641,1.6532,12.147,1253,3060.76
5194,-4.5298,-1.8651,13.5296,1253,3060.76
5199,-3.1065,2.3655,8.8466,1257,3060.76
5204,2.5043,3.7074,8.667,1256,3060.76
5209,0.6512,1.2713,12.469,1253,3060.76
5214,-4.9213,-1.6688,13.2651,1253,3060.76
5219,-2.2901,2.5307,8.5569,1255,3061.22
5224,2.6875,3.7769,8.819,1259,3061.22
5229,0.1233,0.9493,12.9107,1245,3061.22
5234,-5.2218,-1.3192,13.0532,1251,3061.22
5239,-1.4605,2.6791,8.3222,1244,3061.07
5244,2.9257,3.8463,8.9304,1253,3061.07
5249,-0.4369,0.5974,13.1693,1253,3061.07
5254,-5.5174,-0.9481,12.791,1247,3061.07
5259,-0.6728,2.7593,8.1774,1259,3061.07
5264,3.1412,3.8295,9.1578,1253,3061.07
5269,-0.8583,0.2358,13.4949,1252,3061.07
5274,-5.8083,-0.5303,12.4403,1257,3061.07
5279,-0.0036,2.8695,8.0625,1245,3060.76
5284,3.292,3.7625,9.341,1255,3060.76
5289,-1.2282,-0.1496,13.7343,1251,3060.76
5294,-5.9568,-0.0826,12.0333,1251,3060.76
5299,0.5866,3.0526,8.0206,1259,3061.69
5304,3.4584,3.6344,9.6414,1251,3061.69
5309,-1.6316,-0.5375,13.9295,1260,3061.69
5314,-6.0801,0.4154,11.6693,1251,3061.69
5319,1.0953,3.1161,7.9547,1254,3061.54
5324,3.486,3.4333,10.0197,1253,3061.54
5329,-2.0614,-0.9589,14.0192,1254,3061.54
5334,-5.9987,0.8583,11.2037,1247,3061.54
5339,1.5143,3.2717,8.0361,1253,3061.54
5344,3.4333,3.2034,10.3729,1255,3061.54
5349,-2.5163,-1.3276,14.0611,1256,3061.54
5354,-5.7257,1.2163,10.72,1255,3061.54
5359,1.8016,3.3627,8.1295,1254,3061.54
5364,3.1855,2.8659,10.6901,1252,3061.54
5369,-2.9796,-1.646,14.0516,1247,3061.54
5374,-5.363,1.5814,10.2975,1255,3061.54
5379,2.0207,3.462,8.2803,1252,3061.38
5384,2.7641,2.5786,11.0935,1247,3061.38
5389,-3.4788,-1.8591,13.9618,1251,3061.38
5394,-4.8243,1.8627,9.8533,1253,3061.38
5399,2.1775,3.4979,8.4084,1255,3061.22
5404,2.217,2.1476,11.5137,1255,3061.22
5409,-3.9002,-1.9285,13.8337,1251,3061.22
5414,-4.1228,2.0758,9.3757,1254,3060.76
5419,2.3487,3.62,8.5473,1251,3060.76
5424,1.6077,1.8543,12.0285,1255,3060.76
5429,-4.3634,-1.8794,13.6254,1253,3060.76
5434,-3.383,2.3032,9.0381,1251,3061.69
5439,2.4588,3.6727,8.6275,1255,3061.69
5444,0.9218,1.4006,12.3684,1250,3061.69
5449,-4.6938,-1.7729,13.3848,1251,3061.69
5454,-2.5798,2.4588,8.673,1253,3061.07
5459,2.6217,3.7816,8.7724,1257,3061.07
5464,0.3903,1.0594,12.6857,1247,3061.07
5469,-5.0793,-1.4437,13.1729,1247,3061.07
5474,-1.7717,2.6109,8.4384,1251,3061.69
5479,2.8623,3.8702,8.916,1259,3061.69
5484,-0.2059,0.6692,13.0759,1257,3061.69
5489,-5.4145,-1.1169,12.8581,1256,3061.69
5494,-0.9529,2.6492,8.2181,1261,3061.69
5499,3.0526,3.8152,9.1219,1259,3061.69
5504,-0.65,0.3352,13.2938,1261,3061.69
5509,-5.7018,-0.7015,12.536,1269,3061.69
5514,-0.2095,2.8503,8.1056,1260,3061.54
5519,3.2657,3.7888,9.2955,1269,3061.54
5524,-1.0738,0.0215,13.6434,1277,3061.54
5529,-5.873,-0.2622,12.1829,1291,3061.54
5534,0.4238,2.9401,8.005,1289,3061.69
5539,3.4668,3.6679,9.5636,1279,3061.69
5544,-1.4377,-0.3926,13.9055,1279,3061.69
5549,-6.0178,0.2382,11.8154,1277,3061.69
5554,0.9469,3.1184,7.9523,1279,3061.69
5559,3.5506,3.4812,9.8222,1275,3061.69
5564,-1.9082,-0.8056,13.9654,1269,3061.69
5569,-5.9963,0.6812,11.3557,1279,3061.69
5574,1.4222,3.2501,8.0014,1287,3062.16
5579,3.5147,3.2813,10.2089,1279,3062.16
5584,-2.3487,-1.2175,14.048,1276,3062.16
5589,-5.8466,1.1109,10.92,1299,3062.16
5594,1.7609,3.3698,8.0637,1291,3062.01
5599,3.3387,3.0275,10.55,1291,3062.01
5604,-2.8299,-1.5323,14.0037,1288,3062.01
5609,-5.5246,1.3958,10.4663,1294,3062.01
5614,1.9704,3.4189,8.2552,1288,3061.85
5619,3.0047,2.6157,10.9523,1291,3061.85
5624,-3.3052,-1.7921,14.0288,1279,3061.85
5629,-5.0242,1.7741,9.9563,1276,3061.85
5634,2.1775,3.4907,8.3366,1287,3061.85
5639,2.4553,2.3008,11.3713,1291,3061.85
5644,-3.7757,-1.9178,13.8672,1273,3061.85
5649,-4.4173,2.0099,9.5912,1293,3062.01
5654,2.2996,3.5949,8.3546,1289,3062.01
5659,1.8423,1.8878,11.825,1295,3062.01
5664,-4.2114,-1.9501,13.6841,1275,3062.01
5669,-3.6176,2.3008,9.1399,1274,3061.22
5674,2.4983,3.7074,8.5617,1277,3061.22
5679,1.1612,1.5897,12.2439,1273,3061.22
5684,-4.6005,-1.8304,13.4853,1274,3061.22
5689,-2.8012,2.399,8.746,1273,3061.54
5694,2.6528,3.7577,8.6718,1269,3061.54
5699,0.48,1.1839,12.5684,1264,3061.54
5704,-4.9656,-1.585,13.2304,1260,3061.54
5709,-2.0075,2.563,8.4851,1274,3061.22
5714,2.7952,3.8116,8.819,1271,3061.22
5719,-0.0287,0.8847,12.8856,1257,3061.22
5724,-5.3211,-1.2186,12.9478,1262,3061.22
5729,-1.1768,2.6707,8.2396,1263,3061.69
5734,3.0095,3.79,9.0261,1269,3061.69
5739,-0.5195,0.4633,13.2747,1288,3061.69
5744,-5.6036,-0.8643,12.6534,1277,3061.69
5749,-0.4525,2.8024,8.1139,1279,3061.85
5754,3.2429,3.7661,9.2488,1275,3061.85
5759,-0.8835,0.1281,13.5907,1263,3061.85
5764,-5.8047,-0.3831,12.2607,1267,3061.85
5769,0.2071,2.9688,7.9918,1267,3061.69
5774,3.3794,3.6931,9.4535,1259,3061.69
5779,-1.324,-0.2981,13.7966,1269,3061.69
5784,-6.0082,0.0455,11.8549,1257,3061.69
5789,0.7937,3.0526,7.9547,1263,3062.01
5794,3.5219,3.5829,9.7815,1272,3062.01
5799,-1.7214,-0.6692,13.9546,1261,3062.01
5804,-6.0442,0.5399,11.5257,1257,3062.01
5809,1.3001,3.2106,7.9942,1259,3062.01
5814,3.5314,3.3423,10.1059,1255,3062.01
5819,-2.1799,-1.1253,13.9953,1255,3062.01
5824,-5.9496,0.9301,11.0241,1253,3062.01
5829,1.6376,3.2813,8.0828,1255,3062.01
5834,3.4117,3.0825,10.477,1247,3062.01
5839,-2.6647,-1.4162,14.0743,1253,3062.01
5844,-5.6767,1.3348,10.489,1255,3062.01
5849,1.9034,3.4022,8.1379,1263,3062.01
5854,3.061,2.7569,10.8386,1270,3062.01
5859,-3.1568,-1.6939,14.0097,1269,3062.01
5864,-5.2218,1.6364,10.1155,1271,3062.01
5869,2.0937,3.4716,8.3187,1272,3061.69
5874,2.6181,2.399,11.3318,1264,3061.69
5879,-3.6117,-1.8687,13.9055,1262,3061.69
5884,-4.6268,1.9513,9.6426,1267,3062.16
5889,2.3296,3.5997,8.4001,1270,3062.16
5894,1.9848,1.9776,11.7064,1269,3062.16
5899,-4.0797,-2.0111,13.6781,1267,3062.16
5904,-3.8714,2.1464,9.2368,1268,3061.85
5909,2.4505,3.6859,8.5281,1269,3061.85
5914,1.3348,1.6269,12.1051,1263,3061.85
5919,-4.4448,-1.8699,13.5632,1275,3061.85
5924,-3.0861,2.3918,8.9064,1275,3062.01
5929,2.5941,3.7649,8.6215,1271,3062.01
5934,0.7195,1.2929,12.4894,1269,3062.01
5939,-4.8411,-1.6508,13.2914,1273,3062.01
5944,-2.2494,2.49,8.5748,1273,3061.85
5949,2.7821,3.784,8.8334,1279,3061.85
5954,0.0958,0.9685,12.8066,1269,3061.85
5959,-5.138,-1.2893,13.0173,1269,3061.85
5964,-1.4246,2.6432,8.2636,1271,3061.69
5969,2.9556,3.8355,9.0237,1275,3061.69
5974,-0.3687,0.5914,13.1932,1273,3061.69
5979,-5.5534,-0.9433,12.6988,1271,3061.69
5984,-0.6512,2.806,8.1642,1277,3062.16
5989,3.1508,3.784,9.177,1275,3062.16
5994,-0.7961,0.2442,13.4794,1275,3062.16
5999,-5.7688,-0.516,12.299,1279,3062.16
6004,0.0575,2.9568,8.0337,1269,3061.85
6009,3.3291,3.6883,9.3697,1261,3061.85
6014,-1.1684,-0.1963,13.7176,1255,3061.85
6019,-5.9388,-0.0814,11.9902,1269,3061.85
6024,0.6752,3.0394,7.9296,1277,3062.01
6029,3.5087,3.6583,9.663,1273,3062.01
6034,-1.6041,-0.559,13.8648,1261,3062.01
6039,-6.0549,0.3711,11.6107,1259,3062.01
6044,1.1492,3.1639,8.0266,1259,3062.32
6049,3.5303,3.3926,10.0042,1262,3062.32
6054,-2.047,-0.9948,13.9738,1251,3062.32
6059,-5.9376,0.8332,11.1797,1256,3062.32
6064,1.5143,3.2777,8.0721,1261,3062.47
6069,3.4704,3.1328,10.3058,1256,3062.47
6074,-2.5438,-1.3276,14.1102,1255,3062.47
6079,-5.7593,1.2139,10.6722,1266,3062.47
6084,1.8723,3.3782,8.0721,1257,3062.79
6089,3.1675,2.7988,10.738,1253,3062.79
6094,-2.988,-1.6544,14.03,1257,3062.79
6099,-5.296,1.6245,10.1837,1263,3062.79
6104,2.0913,3.4752,8.2265,1261,3062.63
6109,2.7737,2.4672,11.1462,1257,3062.63
6114,-3.4931,-1.8902,13.8708,1244,3062.63
6119,-4.7297,1.8699,9.7659,1247,3062.63
6124,2.2434,3.5398,8.3486,1253,3062.47
6129,2.1512,2.0746,11.6035,1261,3062.47
6134,-3.96,-1.9704,13.7559,1256,3062.47
6139,-4.0091,2.1213,9.2751,1259,3062.63
6144,2.4553,3.6129,8.4707,1254,3062.63
6149,1.5227,1.7214,11.9507,1253,3062.63
6154,-4.3682,-1.8735,13.635,1255,3062.63
6159,-3.2406,2.2649,8.9352,1251,3062.47
6164,2.5331,3.705,8.6107,1254,3062.47
6169,0.8559,1.33,12.3541,1245,3062.47
6174,-4.7609,-1.7394,13.307,1250,3062.47
6179,-2.405,2.4541,8.6191,1245,3062.47
6184,2.721,3.723,8.7448,1259,3062.47
6189,0.2873,0.9697,12.7623,1255,3062.47
6194,-5.1236,-1.4246,13.0927,1255,3062.47
6199,-1.6161,2.6516,8.3665,1251,3062.16
6204,2.9042,3.7816,8.8992,1261,3062.16
6209,-0.267,0.6249,13.0879,1256,3062.16
6214,-5.4791,-0.9996,12.7407,1254,3062.16
6219,-0.8272,2.7869,8.1391,1255,3062.32
6224,3.0706,3.7338,9.1195,1253,3062.32
6229,-0.6428,0.2334,13.4494,1263,3062.32
6234,-5.776,-0.6692,12.4247,1257,3062.32
6239,-0.0563,2.9281,8.0266,1251,3062.47
6244,3.3339,3.7601,9.3649,1251,3062.47
6249,-1.1049,-0.1137,13.7212,1255,3062.47
6254,-5.8945,-0.1628,12.0883,1257,3062.47
6259,0.5279,2.9832,7.944,1257,3062.47
6264,3.4716,3.6152,9.6367,1251,3062.47
6269,-1.494,-0.51,13.8301,1241,3062.47
6274,-6.0406,0.2789,11.5891,1245,3062.47
6279,1.0678,3.1125,7.9847,1261,3062.63
6284,3.6164,3.4668,9.9491,1255,3062.63
6289,-1.9656,-0.9529,13.9486,1245,3062.63
6294,-5.9891,0.7518,11.1654,1254,3062.63
6299,1.4605,3.2501,8.0721,1254,3062.63
6304,3.4955,3.146,10.24,1255,3062.63
6309,-2.4265,-1.3252,14.0396,1253,3062.63
6314,-5.7844,1.1756,10.7512,1254,3062.63
6319,1.7777,3.3639,8.1451,1251,3062.32
6324,3.2777,2.8886,10.6063,1251,3062.32
6329,-2.9125,-1.6484,14.0456,1247,3062.32
6334,-5.4157,1.5083,10.2699,1255,3062.32
6339,2.053,3.4333,8.2456,1258,3062.63
6344,2.8539,2.496,11.0756,1255,3062.63
6349,-3.4321,-1.8854,13.9295,1246,3062.63
6354,-4.8147,1.8148,9.8294,1245,3062.63
6359,2.2673,3.48,8.321,1261,3062.63
6364,2.2613,2.1823,11.5005,1257,3062.63
6369,-3.9241,-1.9656,13.7559,1244,3062.63
6374,-4.1647,2.0387,9.3865,1250,3062.63
6379,2.3439,3.5398,8.4228,1258,3062.63
6384,1.6532,1.7442,11.8896,1258,3062.63
6389,-4.3215,-1.992,13.5572,1257,3062.63
6394,-3.3519,2.2948,8.9902,1253,3061.54
6399,2.5139,3.632,8.667,1251,3061.54
6404,0.9924,1.4533,12.2188,1245,3061.54
6409,-4.6938,-1.8172,13.3501,1255,3061.54
6414,-2.5391,2.4433,8.6874,1254,3062.32
6419,2.6432,3.6871,8.7987,1251,3062.32
6424,0.3783,1.0116,12.6486,1247,3062.32
6429,-5.029,-1.5682,13.0412,1243,3062.32
6434,-1.7454,2.6013,8.3785,1247,3061.54
6439,2.8467,3.7804,8.9328,1255,3061.54
6444,-0.1197,0.7123,13.0185,1251,3061.54
6449,-5.3941,-1.2031,12.797,1245,3061.54
6454,-0.99,2.7354,8.2193,1251,3061.54
6459,3.0335,3.7745,9.0621,1251,3061.54
6464,-0.571,0.3268,13.362,1252,3061.54
6469,-5.7138,-0.7554,12.457,1252,3061.54
6474,-0.2646,2.8252,8.0792,1245,3061.38
6479,3.2058,3.7721,9.3338,1257,3061.38
6484,-1.0343,-0.0419,13.6051,1246,3061.38
6489,-5.9125,-0.3089,12.1757,1253,3061.38
6494,0.3783,2.9748,7.9871,1243,3061.22
6499,3.4117,3.6356,9.566,1251,3061.22
6504,-1.4509,-0.4669,13.775,1243,3061.22
6509,-6.013,0.17,11.8106,1247,3061.22
6514,0.9074,3.0813,7.9643,1255,3060.6
6519,3.5171,3.4836,9.8629,1252,3060.6
6524,-1.8723,-0.8308,13.9881,1241,3060.6
6529,-5.9999,0.6416,11.3497,1245,3060.6
6534,1.3934,3.1759,8.0649,1245,3060.6
6539,3.5015,3.2477,10.1897,1245,3060.6
6544,-2.3343,-1.233,14.0408,1246,3060.6
6549,-5.8598,1.0391,10.902,1245,3060.6
6554,1.6819,3.3208,8.1104,1247,3060.76
6559,3.2753,2.9999,10.6003,1255,3060.76
6564,-2.8132,-1.5981,14.0109,1255,3060.76
6569,-5.5474,1.3946,10.4459,1257,3060.76
6574,1.9261,3.3471,8.2085,1251,3060.91
6579,2.9688,2.6312,10.92,1255,3060.91
6584,-3.3016,-1.8567,13.9977,1253,3060.91
6589,-5.0697,1.7035,10.0006,1263,3060.91
6594,2.1177,3.4201,8.3055,1263,3061.22
6599,2.4924,2.2709,11.3437,1255,3061.22
6604,-3.7697,-1.9656,13.8313,1247,3061.22
6609,-4.4664,1.9585,9.6055,1257,3061.22
6614,2.2924,3.5602,8.4563,1259,3061.22
6619,1.8675,1.9082,11.7292,1263,3061.22
6624,-4.1683,-1.9585,13.6841,1255,3061.22
6629,-3.7182,2.223,9.1255,1257,3060.91
6634,2.3762,3.5937,8.5413,1257,3060.91
6639,1.2258,1.5814,12.1709,1257,3060.91
6644,-4.5897,-1.8914,13.4817,1262,3060.91
6649,-2.9149,2.3499,8.7831,1256,3060.76
6654,2.5546,3.6751,8.7305,1261,3060.76
6659,0.5375,1.16,12.5696,1259,3060.76
6664,-4.9871,-1.6556,13.2172,1256,3060.76
6669,-2.1201,2.4816,8.5018,1255,3060.76
6674,2.7162,3.7481,8.8502,1256,3060.76
6679,0.0359,0.8535,12.9359,1251,3060.76
6684,-5.2888,-1.3479,12.9562,1255,3060.76
6689,-1.3312,2.6504,8.3151,1251,3060.6
6694,2.9102,3.8032,9.0046,1257,3060.6
6699,-0.4489,0.4705,13.2076,1255,3060.6
6704,-5.6072,-0.9637,12.6797,1255,3060.6
6709,-0.6093,2.7773,8.096,1256,3061.07
6714,3.122,3.7565,9.2021,1251,3061.07
6719,-0.8787,0.1305,13.4877,1259,3061.07
6724,-5.8538,-0.5088,12.3026,1257,3061.07
6729,0.0551,2.897,8.023,1251,3061.54
6734,3.316,3.7242,9.4918,1255,3061.54
6739,-1.2845,-0.249,13.6972,1251,3061.54
6744,-6.0226,-0.0275,11.9985,1257,3061.54
6749,0.6835,2.9987,7.9823,1257,3061.69
6754,3.4441,3.5721,9.7576,1255,3061.69
6759,-1.7059,-0.65,13.8792,1257,3061.69
6764,-6.0729,0.4274,11.4862,1253,3061.69
6769,1.154,3.1603,8.0565,1257,3061.54
6774,3.4692,3.3854,9.9886,1247,3061.54
6779,-2.1584,-1.0523,13.9917,1253,3061.54
6784,-6.0346,0.9158,11.0923,1257,3061.54
6789,1.5502,3.2753,8.0493,1251,3061.85
6794,3.3507,3.1101,10.3825,1254,3061.85
6799,-2.6588,-1.4186,14.048,1256,3061.85
6804,-5.7509,1.3336,10.6734,1257,3061.85
6809,1.8328,3.3758,8.1666,1257,3061.69
6814,3.0861,2.8299,10.8194,1253,3061.69
6819,-3.1208,-1.7071,13.957,1253,3061.69
6824,-5.3163,1.5969,10.2017,1261,3061.69
6829,2.0578,3.4309,8.2384,1257,3062.01
6834,2.7019,2.484,11.1929,1245,3062.01
6839,-3.6093,-1.9118,13.8995,1253,3062.01
6844,-4.7441,1.9345,9.7983,1253,3062.01
6849,2.1955,3.5542,8.4036,1260,3062.01
6854,2.0818,2.1057,11.5808,1259,3062.01
6859,-4.0402,-1.9944,13.8122,1251,3062.01
6864,-4.0701,2.1213,9.2823,1257,3062.01
6869,2.3427,3.644,8.5353,1255,3062.01
6874,1.4126,1.6999,11.9531,1257,3062.01
6879,-4.4556,-1.901,13.6314,1258,3062.01
6884,-3.2657,2.3703,8.9711,1251,3061.54
6889,2.4612,3.7553,8.6802,1256,3061.54
6894,0.7398,1.3791,12.4391,1251,3061.54
6899,-4.8459,-1.7298,13.3525,1255,3061.54
6904,-2.4325,2.4517,8.6383,1257,3061.07
6909,2.6791,3.7493,8.8143,1258,3061.07
6914,0.1664,0.9768,12.7683,1253,3061.07
6919,-5.2062,-1.4449,13.1178,1253,3061.07
6924,-1.6305,2.6396,8.4563,1250,3061.38
6929,2.8551,3.8583,8.934,1257,3061.38
6934,-0.2777,0.7051,13.1286,1247,3061.38
6939,-5.5414,-1.0762,12.8174,1257,3061.38
6944,-0.8188,2.7761,8.187,1254,3061.54
6949,3.0466,3.8164,9.1219,1253,3061.54
6954,-0.8068,0.2442,13.3381,1255,3061.54
6959,-5.7652,-0.6393,12.5085,1253,3061.54
6964,-0.1089,2.909,8.0565,1245,3061.38
6969,3.2417,3.8259,9.3051,1261,3061.38
6974,-1.136,-0.0599,13.6458,1254,3061.38
6979,-5.9807,-0.1484,12.1218,1261,3061.38
6984,0.4968,3.0299,8.0409,1253,3061.07
6989,3.377,3.6392,9.56,1251,3061.07
6994,-1.6149,-0.5171,13.86,1256,3061.07
6999,-6.0861,0.3172,11.7495,1257,3061.07
7004,1.0151,3.1651,7.9942,1263,3061.38
7009,3.5267,3.5267,9.8952,1257,3061.38
7014,-2.0303,-0.8535,14.0576,1251,3061.38
7019,-6.0154,0.7685,11.3294,1257,3061.38
7024,1.4748,3.2525,8.0086,1255,3061.07
7029,3.4333,3.2346,10.2975,1255,3061.07
7034,-2.4588,-1.2653,14.0971,1259,3061.07
7039,-5.8287,1.1684,10.8565,1255,3061.07
7044,1.7526,3.3902,8.1008,1259,3061.22
7049,3.2549,2.982,10.6626,1252,3061.22
7054,-2.9257,-1.5526,14.0025,1256,3061.22
7059,-5.4408,1.5407,10.4016,1257,3061.22
7064,1.968,3.4309,8.2061,1255,3060.91
7069,2.8335,2.5905,11.0325,1257,3060.91
7074,-3.3423,-1.8004,13.9151,1250,3060.91
7079,-4.9452,1.804,9.8845,1261,3060.91
7084,2.1392,3.5159,8.3067,1261,3061.07
7089,2.3284,2.2326,11.3988,1247,3061.07
7094,-3.8822,-1.8723,13.872,1253,3061.07
7099,-4.3,2.0734,9.4619,1253,3061.07
7104,2.3176,3.626,8.4695,1256,3061.38
7109,1.7214,1.8364,11.8393,1267,3061.38
7114,-4.2282,-1.889,13.6541,1256,3061.38
7119,-5.1858,1.658,10.1418,1258,3060.91
7124,2.4421,3.7194,8.5892,1255,3060.91
7129,2.6396,2.4074,11.2372,1255,3060.91
7134,-3.5937,-1.8854,13.89,1261,3060.91
7139,-4.6029,1.9501,9.6678,1261,3060.91
7144,2.6492,3.7697,8.7293,1259,3060.91
7149,2.1225,2.0315,11.6562,1253,3060.91
7154,-4.0055,-1.9537,13.7152,1257,3060.91
7159,-3.8451,2.1703,9.2416,1259,3060.76
7164,2.4624,3.6631,8.4851,1261,3060.76
7169,1.4329,1.6628,12.0368,1255,3060.76
7174,-4.4209,-1.8926,13.5775,1252,3060.76
7179,-3.14,2.3391,8.8346,1257,3060.6
7184,2.5905,3.7182,8.6622,1259,3060.6
7189,0.7925,1.2773,12.4522,1252,3060.6
7194,-4.7573,-1.725,13.2998,1250,3060.6
7199,-2.3355,2.5103,8.5413,1254,3060.91
7204,2.7701,3.7721,8.8059,1272,3060.91
7209,0.2095,0.9577,12.8042,1259,3060.91
7214,-5.1356,-1.3791,13.0532,1260,3060.91
7219,-1.494,2.6384,8.3845,1245,3060.76
7224,2.9233,3.7625,8.9747,1258,3060.76
7229,-0.2861,0.6009,13.1741,1251,3060.76
7234,-5.4468,-1.0271,12.7024,1257,3060.76
7239,-0.7817,2.7665,8.1535,1259,3060.13
7244,3.1376,3.7541,9.1315,1259,3060.13
7249,-0.7398,0.3065,13.4626,1255,3060.13
7254,-5.6934,-0.6273,12.3948,1257,3060.13
7259,-0.0922,2.9185,8.0098,1259,3059.66
7264,3.3136,3.7553,9.3925,1267,3059.66
7269,-1.1301,-0.1245,13.6577,1253,3059.66
7274,-5.8957,-0.1879,12.0345,1259,3059.66
7279,0.4896,2.9951,7.9607,1257,3059.35
7284,3.4872,3.65,9.6307,1253,3059.35
7289,-1.4581,-0.5171,13.8696,1257,3059.35
7294,-5.9915,0.2873,11.6119,1256,3059.35
7299,1.0139,3.1448,7.993,1255,3059.35
7304,3.553,3.4405,9.8892,1253,3059.35
7309,-1.8794,-0.8559,13.9917,1251,3059.35
7314,-5.9388,0.6871,11.224,1256,3059.35
7319,1.4042,3.231,8.0852,1255,3059.2
7324,3.468,3.1975,10.1502,1255,3059.2
7329,-2.2757,-1.2558,13.9821,1245,3059.2
7334,-5.8107,1.0714,10.7811,1253,3059.2
7339,1.7777,3.3722,8.0852,1261,3059.04
7344,3.2884,3.0155,10.6147,1254,3059.04
7349,-2.8144,-1.5706,14.0396,1253,3059.04
7354,-5.5162,1.4293,10.3621,1259,3059.04
7359,1.9692,3.3531,8.1846,1257,3059.04
7364,2.9293,2.5905,10.9223,1259,3059.04
7369,-3.2154,-1.81,13.9115,1255,3059.04
7374,-5.017,1.7909,9.9419,1255,3059.51
7379,2.1823,3.4584,8.327,1259,3059.51
7384,2.4696,2.2733,11.3856,1253,3059.51
7389,-3.6763,-1.9321,13.7858,1257,3059.51
7394,-4.4041,1.9776,9.499,1261,3058.73
7399,2.302,3.5326,8.436,1259,3058.73
7404,1.8627,1.8579,11.7627,1255,3058.73
7409,-4.0953,-2.0051,13.6853,1253,3058.73
7414,-3.6691,2.2075,9.1183,1255,3060.29
7419,2.472,3.6703,8.5904,1261,3060.29
7424,1.2127,1.5658,12.1087,1254,3060.29
7429,-4.4508,-1.8567,13.4387,1247,3060.29
7434,-2.9066,2.32,8.8143,1254,3059.51
7439,2.5977,3.6919,8.7376,1256,3059.51
7444,0.6177,1.2151,12.4606,1253,3059.51
7449,-4.871,-1.6747,13.2196,1250,3059.51
7454,-2.0985,2.5235,8.5317,1256,3059.82
7459,2.7414,3.7733,8.8957,1263,3059.82
7464,0.0838,0.8906,12.87,1259,3059.82
7469,-5.217,-1.3324,12.9802,1259,3059.82
7474,-1.3156,2.6288,8.3007,1253,3059.82
7479,2.9269,3.7625,8.9938,1263,3059.82
7484,-0.3699,0.4513,13.1885,1255,3059.82
7489,-5.5055,-0.9697,12.6534,1260,3059.82
7494,-0.6105,2.7952,8.1187,1260,3059.66
7499,3.1077,3.7697,9.2273,1260,3059.66
7504,-0.8248,0.1652,13.4387,1257,3059.66
7509,-5.7521,-0.5387,12.3888,1255,3059.66
7514,0.079,2.8695,8.0254,1258,3059.66
7519,3.3674,3.6895,9.4355,1262,3059.66
7524,-1.2103,-0.2286,13.6565,1253,3059.66
7529,-5.9065,-0.1508,11.9914,1257,3059.66
7534,0.6393,3.0574,7.999,1258,3059.66
7539,3.474,3.6296,9.6391,1258,3059.66
7544,-1.6137,-0.5662,13.8936,1257,3059.66
7549,-6.0202,0.3328,11.6238,1257,3059.66
7554,1.1265,3.1184,7.9667,1255,3060.13
7559,3.5051,3.4081,9.9766,1253,3060.13
7564,-2.0818,-0.9912,13.9582,1253,3060.13
7569,-5.9292,0.7649,11.2073,1263,3060.13
7574,1.4868,3.2382,8.0373,1257,3060.44
7579,3.4309,3.1879,10.3298,1259,3060.44
7584,-2.5331,-1.3144,14.0025,1251,3060.44
7589,-5.7772,1.1827,10.7164,1256,3060.44
7594,1.8076,3.2896,8.0804,1272,3060.44
7599,3.1879,2.8515,10.7069,1271,3060.44
7604,-2.9449,-1.658,13.9869,1261,3060.44
7609,-5.375,1.5874,10.234,1269,3061.22
7614,2.0387,3.4297,8.2073,1267,3061.22
7619,2.8048,2.5187,11.1163,1270,3061.22
7624,-3.4381,-1.8974,13.8971,1263,3061.22
7629,-4.8495,1.8064,9.821,1259,3061.07
7634,2.1859,3.5135,8.321,1263,3061.07
7639,2.1871,2.1332,11.5113,1253,3061.07
7644,-3.8918,-2.0051,13.781,1259,3061.07
7649,-4.148,2.0446,9.3458,1259,3061.22
7654,2.3296,3.5889,8.4491,1257,3061.22
7659,1.5742,1.7897,11.9375,1258,3061.22
7664,-4.3443,-1.9477,13.6517,1253,3061.22
7669,-3.4237,2.2505,9.0309,1259,3061.22
7674,2.4816,3.6751,8.6072,1261,3061.22
7679,0.905,1.3862,12.311,1256,3061.22
7684,-4.7106,-1.8028,13.3189,1257,3061.22
7689,-2.5965,2.4421,8.6766,1252,3061.54
7694,2.6372,3.7062,8.7233,1259,3061.54
7699,0.3819,1.0846,12.6857,1259,3061.54
7704,-5.1224,-1.5179,13.1573,1257,3061.54
7709,-1.8148,2.5989,8.3929,1257,3061.69
7714,2.7617,3.7541,8.8669,1259,3061.69
7719,-0.2406,0.6464,13.046,1253,3061.69
7724,-5.3546,-1.2103,12.8221,1258,3061.69
7729,-0.9816,2.7509,8.187,1259,3062.01
7734,3.0047,3.784,9.1494,1260,3062.01
7739,-0.595,0.322,13.3728,1255,3062.01
7744,-5.7676,-0.7434,12.5468,1257,3062.01
7749,-0.2418,2.8826,8.0098,1260,3062.01
7754,3.1939,3.7804,9.3194,1253,3062.01
7759,-1.0403,-0.0922,13.5811,1257,3062.01
7764,-5.9077,-0.2921,12.1302,1255,3062.01
7769,0.4118,2.9473,7.9476,1255,3062.01
7774,3.3866,3.6955,9.5804,1257,3062.01
7779,-1.4281,-0.413,13.854,1253,3062.01
7784,-6.0657,0.1903,11.7795,1255,3062.01
7789,0.8847,3.0957,8.017,1256,3062.32
7794,3.4752,3.4716,9.8809,1251,3062.32
7799,-1.8962,-0.8272,13.9343,1255,3062.32
7804,-6.0897,0.6416,11.2731,1261,3062.32
7809,1.3683,3.2358,7.9823,1255,3062.47
7814,3.4991,3.2645,10.2268,1259,3062.47
7819,-2.4026,-1.2079,14.0432,1249,3062.47
7824,-5.8706,1.0846,10.9152,1259,3062.47
7829,1.719,3.3124,8.0948,1261,3062.94
7834,3.3004,2.9461,10.5908,1261,3062.94
7839,-2.891,-1.5862,14.0121,1254,3062.94
7844,-5.5019,1.4533,10.4363,1261,3063.1
7849,1.9549,3.4034,8.2313,1256,3063.1
7854,2.9664,2.6408,11.0002,1269,3063.1
7859,-3.3603,-1.8459,14.0121,1259,3063.1
7864,-5.023,1.7777,9.9359,1253,3063.1
7869,2.2146,3.5195,8.3187,1259,3063.1
7874,2.3954,2.2326,11.3701,1256,3063.1
7879,-3.8044,-1.9369,13.9067,1263,3063.1
7884,-4.3682,2.0027,9.5457,1257,3063.26
7889,2.2924,3.5757,8.4791,1258,3063.26
7894,1.7681,1.7849,11.8405,1255,3063.26
7899,-4.2916,-1.9429,13.6386,1255,3063.26
7904,-3.5829,2.2565,9.0704,1255,3063.41
7909,2.4648,3.705,8.5497,1263,3063.41
7914,1.0546,1.4772,12.2523,1255,3063.41
7919,-4.6723,-1.8136,13.4255,1257,3063.41
7924,-2.7078,2.4409,8.7855,1253,3063.41
7929,2.5774,3.6978,8.7029,1261,3063.41
7934,0.4417,1.069,12.6234,1255,3063.41
7939,-5.0578,-1.5754,13.1178,1247,3063.41
7944,-1.8747,2.6061,8.4144,1251,3063.57
7949,2.8371,3.7637,8.8406,1255,3063.57
7954,-0.1041,0.7147,13.0209,1253,3063.57
7959,-5.4408,-1.2306,12.9275,1257,3063.57
7964,-1.0534,2.6815,8.2001,1255,3063.73
7969,3.0358,3.8056,8.9866,1257,3063.73
7974,-0.6428,0.3747,13.2711,1253,3063.73
7979,-5.691,-0.7925,12.6498,1257,3063.73
7984,-0.3256,2.8539,8.0972,1259,3063.73
7989,3.2585,3.7924,9.1818,1256,3063.73
7994,-1.0068,0.0204,13.6062,1253,3063.73
7999,-5.9065,-0.3053,12.2416,1255,3063.73
8004,0.3472,2.9521,7.9763,1253,3063.73
8009,3.4105,3.6416,9.4739,1257,3063.73
8014,-1.5,-0.4226,13.8816,1255,3063.73
8019,-6.0861,0.1879,11.8238,1254,3063.73
8024,0.9242,3.1017,7.9918,1254,3063.41
8029,3.5207,3.4812,9.8102,1251,3063.41
8034,-1.9489,-0.7985,14.024,1255,3063.41
8039,-6.0478,0.6428,11.3892,1258,3063.41
8044,1.3815,3.1795,8.017,1255,3063.1
8049,3.4884,3.2717,10.1682,1251,3063.1
8054,-2.4373,-1.2294,14.0336,1247,3063.1
8059,-5.8754,1.0774,10.9176,1260,3063.1
8064,1.7119,3.3375,8.0337,1257,3063.1
8069,3.3052,2.9233,10.6255,1253,3063.1
8074,-2.9305,-1.5778,14.0276,1245,3063.1
8079,-5.4899,1.4222,10.5117,1257,3062.32
8084,1.9704,3.3998,8.1606,1254,3062.32
8089,2.9113,2.5857,10.9487,1257,3062.32
8094,-3.4309,-1.8148,13.9797,1253,3062.32
8099,-4.9943,1.8052,9.9874,1253,3062.79
8104,2.162,3.4644,8.3306,1255,3062.79
8109,2.381,2.2302,11.4287,1253,3062.79
8114,-3.8164,-1.9249,13.8995,1259,3062.79
8119,-4.3227,2.0446,9.5289,1255,3062.47
8124,2.2769,3.5626,8.412,1257,3062.47
8129,1.7406,1.8471,11.7555,1247,3062.47
8134,-4.227,-1.9477,13.6709,1253,3062.47
8139,-3.5913,2.2721,9.1315,1251,3062.32
8144,2.4445,3.6966,8.5461,1256,3062.32
8149,1.0798,1.4724,12.287,1239,3062.32
8154,-4.6627,-1.8328,13.3968,1247,3062.32
8159,-2.7306,2.4421,8.7736,1251,3062.47
8164,2.624,3.705,8.6993,1255,3062.47
8169,0.4645,1.0702,12.6809,1251,3062.47
8174,-5.0601,-1.6245,13.2423,1251,3062.47
8179,-1.9393,2.5989,8.5054,1251,3062.47
8184,2.794,3.796,8.8645,1257,3062.47
8189,-0.0814,0.7638,13.0065,1251,3062.47
8194,-5.3774,-1.2594,12.9419,1260,3062.47
8199,-1.1372,2.7114,8.2181,1247,3062.47
8204,3.0227,3.7888,9.019,1255,3062.47
8209,-0.5555,0.3759,13.2699,1249,3062.47
8214,-5.6874,-0.8595,12.645,1251,3062.47
8219,-0.3555,2.8575,8.1247,1259,3062.94
8224,3.2465,3.8176,9.2308,1257,3062.94
8229,-1.0116,0.0311,13.6122,1251,3062.94
8234,-5.9125,-0.3508,12.2344,1251,3062.94
8239,0.3065,2.9149,8.0637,1251,3062.79
8244,3.3854,3.6464,9.4415,1253,3062.79
8249,-1.4401,-0.3771,13.8744,1245,3062.79
8254,-6.104,0.1568,11.8453,1247,3062.79
8259,0.8799,3.0933,7.9667,1251,3062.79
8264,3.547,3.4967,9.7923,1247,3062.79
8269,-1.9201,-0.7889,14.0049,1252,3062.79
8274,-6.0729,0.5854,11.4586,1255,3062.79
8279,1.3276,3.2058,8.011,1251,3062.47
8284,3.4692,3.3076,10.1239,1251,3062.47
8289,-2.3487,-1.1696,14.0827,1244,3062.47
8294,-5.8993,1.0702,11.0073,1261,3062.47
8299,1.6688,3.3267,8.0732,1255,3062.47
8304,3.3507,3.0287,10.5046,1246,3062.47
8309,-2.8515,-1.4964,14.0264,1247,3062.47
8314,-5.5976,1.4473,10.5345,1247,3062.47
8319,1.9034,3.4058,8.1942,1253,3062.47
8324,2.9724,2.6647,10.8876,1253,3062.47
8329,-3.2836,-1.7897,14.0396,1243,3062.47
8334,-5.1116,1.7633,10.0245,1245,3062.47
8339,2.0877,3.5494,8.2504,1253,3062.47
8344,2.4948,2.3236,11.3294,1251,3062.47
8349,-3.7864,-1.9225,13.9594,1247,3062.47
8354,-4.4664,2.0027,9.6594,1247,3061.85
8359,2.2398,3.5949,8.4635,1255,3061.85
8364,1.7705,1.8519,11.7256,1247,3061.85
8369,-4.1587,-1.98,13.6577,1244,3061.85
8374,-3.7409,2.2206,9.2225,1240,3061.07
8379,2.4349,3.6859,8.4898,1252,3061.07
8384,1.1935,1.5778,12.1362,1245,3061.07
8389,-4.5765,-1.8627,13.4853,1243,3061.07
8394,-2.9425,2.4217,8.8681,1246,3060.76
8399,2.5235,3.7804,8.5964,1251,3060.76
8404,0.5351,1.2246,12.5696,1239,3060.76
8409,-4.9093,-1.6664,13.2866,1243,3060.76
8414,-2.1272,2.4972,8.4803,1241,3060.76
8419,2.7785,3.8235,8.8322,1251,3060.76
8424,-0.0036,0.8871,12.9012,1247,3060.76
8429,-5.2732,-1.2366,13.0185,1251,3060.76
8434,-1.3384,2.6923,8.3055,1241,3060.76
8439,2.9317,3.863,8.989,1260,3060.76
8444,-0.4848,0.492,13.2495,1252,3060.76
8449,-5.5522,-0.9254,12.6713,1259,3060.76
8454,-0.5962,2.7797,8.1367,1261,3060.44
8459,3.1496,3.7948,9.1973,1259,3060.44
8464,-0.9026,0.1676,13.5452,1259,3060.44
8469,-5.8,-0.4178,12.3565,1255,3060.44
8474,0.1113,2.9712,8.017,1261,3060.44
8479,3.2573,3.7098,9.3685,1261,3060.44
8484,-1.2905,-0.1927,13.7451,1254,3060.44
8489,-5.9759,-0.0299,12.0177,1253,3060.44
8494,0.6608,3.1053,8.011,1256,3060.6
8499,3.4381,3.5961,9.6905,1256,3060.6
8504,-1.7035,-0.5878,13.945,1256,3060.6
8509,-6.0454,0.4142,11.5963,1254,3060.6
8514,1.154,3.1807,7.9535,1253,3060.6
8519,3.5267,3.4297,10.0413,1253,3060.6
8524,-2.138,-0.99,13.9666,1243,3060.6
8529,-5.9268,0.911,11.2073,1253,3060.6
8534,1.5275,3.2884,8.011,1245,3061.07
8539,3.4105,3.1568,10.3441,1257,3061.07
8544,-2.5798,-1.3683,14.0552,1258,3061.07
8549,-5.7257,1.3156,10.7105,1261,3061.07
8554,1.8064,3.4117,8.1355,1271,3060.6
8559,3.1364,2.812,10.7428,1273,3060.6
8564,-3.0478,-1.6412,14.0803,1261,3060.6
8569,-5.3271,1.6053,10.2783,1259,3061.69
8574,2.0231,3.4728,8.278,1260,3061.69
8579,2.7007,2.4612,11.1618,1271,3061.69
8584,-3.4692,-1.8699,13.9785,1259,3061.69
8589,-4.7537,1.9178,9.7648,1256,3061.07
8594,2.2098,3.5997,8.3809,1263,3061.07
8599,2.1416,2.1572,11.5939,1255,3061.07
8604,-3.9492,-1.9034,13.7547,1254,3061.07
8609,-4.0677,2.0925,9.408,1251,3061.22
8614,2.4062,3.6416,8.4659,1243,3061.22
8619,1.494,1.731,12.0261,1242,3061.22
8624,-4.3551,-1.9142,13.611,1243,3061.22
8629,-3.3076,2.3583,8.9974,1245,3061.38
8634,2.5402,3.723,8.5688,1255,3061.38
8639,0.8571,1.3779,12.4163,1247,3061.38
8644,-4.7369,-1.719,13.447,1246,3061.38
8649,-2.5331,2.4816,8.6754,1243,3061.54
8654,2.7066,3.8056,8.7149,1253,3061.54
8659,0.2837,1.0307,12.7192,1251,3061.54
8664,-5.1164,-1.4305,13.1298,1241,3061.54
8669,-1.6484,2.636,8.3725,1245,3061.69
8674,2.8802,3.8331,8.9579,1250,3061.69
8679,-0.2574,0.7027,13.1286,1243,3061.69
8684,-5.4169,-1.0953,12.876,1251,3061.69
8689,-0.8918,2.745,8.2253,1247,3061.54
8694,3.0801,3.8259,9.0393,1253,3061.54
8699,-0.723,0.2897,13.4063,1243,3061.54
8704,-5.6838,-0.6644,12.5372,1243,3061.54
8709,-0.158,2.9149,8.1008,1251,3061.54
8714,3.298,3.7864,9.2871,1251,3061.54
8719,-1.1349,-0.0024,13.6948,1253,3061.54
8724,-5.8981,-0.1891,12.1338,1245,3061.54
8729,0.4788,3.0035,7.9966,1243,3061.07
8734,3.4608,3.6655,9.5373,1247,3061.07
8739,-1.5083,-0.4441,13.8732,1243,3061.07
8744,-5.9472,0.2574,11.7711,1243,3061.07
8749,0.984,3.1448,8.011,1245,3061.22
8754,3.5446,3.5099,9.845,1245,3061.22
8759,-1.8567,-0.8368,13.975,1253,3061.22
8764,-5.9759,0.7242,11.3569,1250,3061.22
8769,1.4437,3.2417,7.9906,1241,3061.07
8774,3.5231,3.2406,10.2472,1243,3061.07
8779,-2.3296,-1.2234,14.0025,1239,3061.07
8784,-5.7916,1.1229,10.8793,1245,3061.07
8789,1.731,3.3914,8.0637,1251,3060.44
8794,3.298,2.958,10.5453,1243,3060.44
8799,-2.8216,-1.4928,14.0097,1245,3060.44
8804,-5.4995,1.4509,10.4591,1241,3060.44
8809,1.9597,3.4572,8.2157,1244,3060.44
8814,2.9616,2.6061,10.9283,1243,3060.44
8819,-3.3064,-1.7502,14.0109,1240,3060.44
8824,-5.0039,1.7861,9.9311,1243,3060.6
8829,2.1679,3.5099,8.327,1242,3060.6
8834,2.4157,2.2661,11.4156,1259,3060.6
8839,-3.7254,-1.9357,13.8086,1247,3060.6
8844,-4.3826,2.0387,9.5732,1239,3060.29
8849,2.3116,3.632,8.4132,1244,3060.29
8854,1.8495,1.9249,11.7926,1241,3060.29
8859,-4.1563,-1.9297,13.6493,1245,3060.29
8864,-3.6559,2.2565,9.2057,1240,3059.98
8869,2.484,3.711,8.5796,1243,3059.98
8874,1.1995,1.5287,12.1637,1245,3059.98
8879,-4.5191,-1.8399,13.3896,1239,3059.98
8884,-2.8467,2.3703,8.8011,1241,3060.13
8889,2.6252,3.7565,8.7352,1241,3060.13
8894,0.5842,1.1803,12.5755,1243,3060.13
8899,-4.8902,-1.634,13.2567,1245,3060.13
8904,-2.0686,2.545,8.4922,1239,3060.29
8909,2.7988,3.8235,8.8286,1245,3060.29
8914,0.0371,0.8619,12.8904,1247,3060.29
8919,-5.2218,-1.2833,12.9502,1241,3060.29
8924,-1.2426,2.6624,8.2684,1240,3060.29
8929,2.9868,3.8056,8.9807,1247,3060.29
8934,-0.5064,0.48,13.2471,1241,3060.29
8939,-5.5234,-0.9457,12.6534,1247,3060.29
8944,-0.5483,2.7952,8.1391,1245,3059.82
8949,3.1999,3.7733,9.1219,1242,3059.82
8954,-0.8775,0.1939,13.538,1243,3059.82
8959,-5.7581,-0.5267,12.311,1243,3059.82
8964,0.1269,2.9305,8.0122,1253,3060.13
8969,3.371,3.699,9.4176,1247,3060.13
8974,-1.2282,-0.2143,13.7475,1241,3060.13
8979,-5.8682,-0.0144,11.995,1243,3060.13
8984,0.7147,3.1053,7.9416,1241,3060.13
8989,3.4967,3.6392,9.7252,1244,3060.13
8994,-1.6029,-0.5997,13.8481,1243,3060.13
8999,-5.9532,0.3807,11.6047,1235,3060.13
9004,1.1708,3.1723,8.017,1241,3059.82
9009,3.5638,3.3662,9.9874,1239,3059.82
9014,-2.059,-1.0307,13.9929,1238,3059.82
9019,-5.9388,0.8332,11.0887,1245,3059.82
9024,1.5538,3.2801,8.0242,1241,3059.66
9029,3.4477,3.1699,10.3226,1239,3059.66
9034,-2.5223,-1.2845,14.03,1237,3059.66
9039,-5.7174,1.1624,10.6937,1243,3059.66
9044,1.81,3.3603,8.1511,1243,3059.35
9049,3.1496,2.8012,10.6877,1237,3059.35
9054,-2.9724,-1.6759,14.0432,1233,3059.35
9059,-5.3379,1.5455,10.2999,1243,3059.35
9064,2.047,3.4201,8.2193,1241,3059.35
9069,2.8072,2.4972,11.1211,1245,3059.35
9074,-3.4345,-1.8184,13.8672,1245,3059.35
9079,-4.8016,1.8543,9.8162,1239,3059.2
9084,2.1799,3.5099,8.4001,1244,3059.2
9089,2.223,2.0853,11.5233,1241,3059.2
9094,-3.7888,-2.0016,13.7188,1247,3059.2
9099,-4.1384,2.0734,9.3972,1251,3058.88
9104,2.3487,3.6212,8.4803,1251,3058.88
9109,1.6376,1.8148,11.8513,1241,3058.88
9114,-4.2772,-1.9453,13.6577,1233,3058.88
9119,-3.4488,2.2482,9.0178,1245,3058.1
9124,2.4828,3.6655,8.5928,1245,3058.1
9129,0.8811,1.4198,12.2116,1243,3058.1
9134,-4.5526,-1.8328,13.3908,1241,3058.1
9139,-2.6647,2.405,8.6215,1245,3058.88
9144,2.654,3.7385,8.734,1251,3058.88
9149,0.3926,1.1289,12.6043,1244,3058.88
9154,-4.9392,-1.567,13.1681,1241,3058.88
9159,-1.8543,2.5414,8.4659,1244,3058.1
9164,2.8156,3.7625,8.8178,1245,3058.1
9169,-0.1269,0.7494,12.9431,1249,3058.1
9174,-5.284,-1.2582,12.8605,1245,3058.1
9179,-1.1289,2.6719,8.2588,1243,3058.26
9184,2.9748,3.7553,9.013,1251,3058.26
9189,-0.5483,0.4393,13.2603,1243,3058.26
9194,-5.5474,-0.8679,12.5779,1247,3058.26
9199,-0.4369,2.8778,8.0828,1247,3058.1
9204,3.2034,3.7852,9.1506,1245,3058.1
9209,-0.9361,0.0539,13.5069,1245,3058.1
9214,-5.77,-0.4848,12.2775,1247,3058.1
9219,0.2023,2.9233,7.9715,1251,3057.48
9224,3.3447,3.6871,9.4499,1247,3057.48
9229,-1.3252,-0.2574,13.7068,1244,3057.48
9234,-5.9436,-0.0192,11.965,1245,3057.48
9239,0.7578,3.0191,7.9236,1245,3057.32
9244,3.4692,3.5889,9.6438,1243,3057.32
9249,-1.6879,-0.6165,13.8971,1243,3057.32
9254,-5.9795,0.3915,11.6131,1236,3057.32
9259,1.1624,3.1544,7.9727,1251,3057.64
9264,3.5099,3.3052,9.9144,1243,3057.64
9269,-2.1057,-1.0104,13.9869,1245,3057.64
9274,-5.9256,0.8224,11.0864,1253,3057.64
9279,1.5215,3.2633,7.9775,1246,3057.64
9284,3.4046,3.1723,10.3657,1245,3057.64
9289,-2.5738,-1.2965,14.1473,1245,3057.64
9294,-5.6802,1.1839,10.7883,1253,3057.64
9299,1.7478,3.3375,8.163,1253,3057.48
9304,3.1005,2.8096,10.6997,1244,3057.48
9309,-2.9389,-1.719,13.939,1245,3057.48
9314,-5.2613,1.5119,10.246,1249,3057.48
9319,2.0099,3.395,8.2361,1251,3057.79
9324,2.7605,2.557,11.1426,1255,3057.79
9329,-3.4093,-1.8747,13.9618,1245,3057.79
9334,-4.8231,1.8471,9.8306,1253,3058.42
9339,2.144,3.5135,8.3677,1251,3058.42
9344,2.1943,2.15,11.3988,1253,3058.42
9349,-3.7517,-1.998,13.8313,1252,3058.42
9354,-4.2425,2.0458,9.4475,1247,3057.95
9359,2.223,3.6571,8.5461,1258,3057.95
9364,1.5622,1.8136,11.8513,1244,3057.95
9369,-4.1911,-1.9417,13.6206,1255,3057.95
9374,-3.5183,2.1847,9.0082,1255,3057.64
9379,2.4648,3.65,8.5916,1257,3057.64
9384,0.9864,1.4688,12.1973,1252,3057.64
9389,-4.5957,-1.8076,13.4315,1250,3057.64
9394,-2.7653,2.3511,8.7927,1256,3057.32
9399,2.5582,3.6943,8.752,1259,3057.32
9404,0.395,1.1815,12.5492,1252,3057.32
9409,-4.9285,-1.6209,13.1406,1251,3057.32
9414,-2.0303,2.5546,8.4515,1250,3057.01
9419,2.7294,3.7469,8.8155,1254,3057.01
9424,-0.0431,0.8212,12.9251,1247,3057.01
9429,-5.2792,-1.3551,12.9586,1250,3057.01
9434,-1.2653,2.6743,8.2708,1251,3057.48
9439,2.9652,3.7984,9.0309,1241,3057.48
9444,-0.48,0.5076,13.1753,1251,3057.48
9449,-5.5462,-0.9086,12.6785,1255,3057.48
9454,-0.5327,2.7617,8.096,1245,3057.79
9459,3.1364,3.796,9.2189,1251,3057.79
9464,-0.8942,0.1377,13.4913,1247,3057.79
9469,-5.7652,-0.5171,12.3888,1253,3057.79
9474,0.0646,2.9341,8.0481,1257,3057.64
9479,3.2825,3.6931,9.4272,1253,3057.64
9484,-1.2797,-0.2047,13.805,1251,3057.64
9489,-5.9209,-0.0539,12.0141,1252,3057.64
9494,0.6201,3.0035,8.0385,1253,3057.95
9499,3.456,3.5841,9.6331,1255,3057.95
9504,-1.6556,-0.5902,13.969,1245,3057.95
9509,-5.9951,0.3651,11.643,1253,3057.95
9514,1.087,3.134,8.0397,1253,3057.95
9519,3.4872,3.4285,10.003,1245,3057.95
9524,-2.1153,-0.9421,13.9762,1246,3057.95
9529,-5.8993,0.7829,11.2252,1251,3057.95
9534,1.4485,3.2202,8.0469,1246,3058.1
9539,3.4129,3.1496,10.3298,1251,3058.1
9544,-2.4936,-1.33,14.0192,1240,3058.1
9549,-5.7042,1.2019,10.8266,1253,3058.1
9554,1.7549,3.3686,8.1187,1253,3057.95
9559,3.1735,2.903,10.6255,1253,3057.95
9564,-2.9485,-1.646,14.0264,1244,3057.95
9569,-5.3463,1.5419,10.4244,1247,3057.95
9574,1.9896,3.4285,8.2217,1253,3057.79
9579,2.788,2.5953,11.0097,1255,3057.79
9584,-3.3866,-1.8352,13.9654,1244,3057.79
9589,-4.8973,1.7717,9.8809,1251,3057.95
9594,2.1572,3.5087,8.2887,1251,3057.95
9599,2.2494,2.2254,11.4263,1255,3057.95
9604,-3.7888,-1.919,13.9151,1251,3057.95
9609,-4.3251,1.974,9.5181,1246,3058.42
9614,2.2218,3.5686,8.4827,1255,3058.42
9619,1.6927,1.8579,11.8537,1245,3058.42
9624,-4.2222,-1.9213,13.6817,1250,3058.42
9629,-3.5853,2.2122,9.0992,1252,3058.26
9634,2.4469,3.6619,8.5485,1251,3058.26
9639,1.0654,1.5323,12.1781,1253,3058.26
9644,-4.549,-1.8304,13.4243,1251,3058.26
9649,-2.8455,2.4026,8.7831,1240,3058.26
9654,2.545,3.7146,8.7317,1259,3058.26
9659,0.4561,1.142,12.5492,1251,3058.26
9664,-4.9105,-1.6281,13.2866,1247,3058.26
9669,-2.0578,2.5726,8.521,1245,3057.95
9674,2.7366,3.7984,8.8334,1255,3057.95
9679,-0.0886,0.8619,12.8365,1253,3057.95
9684,-5.2134,-1.3204,13.0304,1251,3057.95
9689,-1.2845,2.6504,8.2839,1253,3057.95
9694,2.9329,3.814,9.013,1255,3057.95
9699,-0.5171,0.5016,13.2112,1251,3057.95
9704,-5.4719,-0.9493,12.7132,1256,3057.95
9709,-0.6393,2.7246,8.1139,1246,3058.42
9714,3.1352,3.7924,9.1889,1252,3058.42
9719,-0.9218,0.1927,13.4841,1246,3058.42
9724,-5.7904,-0.5255,12.4127,1247,3058.42
9729,0.0706,2.9113,8.1175,1249,3058.57
9734,3.3267,3.7026,9.396,1245,3058.57
9739,-1.3084,-0.1496,13.7427,1245,3058.57
9744,-5.9173,-0.0802,12.0213,1245,3058.57
9749,0.6297,3.0287,7.9655,1245,3058.88
9754,3.4357,3.5829,9.669,1254,3058.88
9759,-1.6628,-0.5543,13.8768,1245,3058.88
9764,-6.0166,0.4226,11.6298,1245,3058.88
9769,1.0834,3.128,8.0361,1247,3058.88
9774,3.5039,3.4297,9.9539,1245,3058.88
9779,-2.0877,-0.9637,13.9223,1247,3058.88
9784,-5.8969,0.8116,11.2563,1253,3058.88
9789,1.4317,3.2429,8.0266,1247,3059.04
9794,3.4345,3.2058,10.2699,1249,3059.04
9799,-2.5295,-1.3144,14.0899,1245,3059.04
9804,-5.7533,1.2294,10.8457,1257,3059.04
9809,1.7633,3.383,8.1487,1253,3059.04
9814,3.1615,2.9353,10.5812,1254,3059.04
9819,-2.97,-1.579,14.0576,1247,3059.04
9824,-5.4001,1.5107,10.3645,1247,3059.04
9829,2.0183,3.4273,8.2408,1253,3058.57
9834,2.7773,2.5726,11.0504,1255,3058.57
9839,-3.4093,-1.7202,13.9857,1245,3058.57
9844,-4.8997,1.8004,9.9407,1251,3058.88
9849,2.1344,3.5267,8.2851,1241,3058.88
9854,2.2278,2.223,11.4742,1250,3058.88
9859,-3.8379,-1.9213,13.8588,1253,3058.88
9864,-4.276,2.0315,9.5445,1243,3058.42
9869,2.2793,3.644,8.4168,1253,3058.42
9874,1.6843,1.8615,11.8573,1245,3058.42
9879,-4.1887,-1.9034,13.6877,1256,3058.42
9884,-3.547,2.2661,9.1004,1247,3059.66
9889,2.4421,3.7122,8.5377,1249,3059.66
9894,0.99,1.5143,12.2332,1255,3059.66
9899,-4.6292,-1.828,13.5129,1253,3059.66
9904,-2.7869,2.3918,8.7999,1252,3060.44
9909,2.5438,3.7972,8.7221,1259,3060.44
9914,0.3819,1.1337,12.5696,1251,3060.44
9919,-4.9524,-1.579,13.2854,1251,3060.44
9924,-1.9345,2.5199,8.4958,1246,3059.66
9929,2.8395,3.8822,8.8334,1253,3059.66
9934,-0.1137,0.8487,12.955,1246,3059.66
9939,-5.2601,-1.221,12.9814,1255,3059.66
9944,-1.1899,2.6348,8.339,1253,3059.66
9949,2.982,3.8211,8.9795,1253,3059.66
9954,-0.5674,0.5207,13.2651,1247,3059.66
9959,-5.5557,-0.8404,12.6534,1259,3059.66
9964,-0.4752,2.8299,8.1427,1253,3059.66
9969,3.1639,3.7876,9.2165,1269,3059.66
9974,-0.9625,0.1796,13.5691,1247,3059.66
9979,-5.7892,-0.4238,12.3313,1255,3059.66
9984,0.1772,2.9724,8.0349,1262,3060.13
9989,3.3004,3.7409,9.4128,1253,3060.13
9994,-1.3982,-0.2538,13.7738,1251,3060.13
9999,-5.8921,0.0287,11.9734,1253,3060.13
10004,0.7602,3.1412,7.9547,1247,3060.6
10009,3.4907,3.6727,9.76,1253,3060.6
10014,-1.7681,-0.6081,13.9223,1243,3060.6
10019,-5.9783,0.4884,11.6023,1253,3060.6
10024,1.1923,3.1963,8.0517,1252,3060.6
10029,3.5255,3.3866,9.9898,1252,3060.6
10034,-2.2206,-0.99,14.0456,1254,3060.6
10039,-5.8909,0.8811,11.145,1257,3060.6
10044,1.579,3.2908,8.0421,1245,3060.91
10049,3.3567,3.158,10.3669,1247,3060.91
10054,-2.6695,-1.3455,14.0947,1247,3060.91
10059,-5.6551,1.3012,10.6279,1260,3060.91
10064,1.8531,3.4058,8.1558,1256,3060.76
10069,3.1388,2.7785,10.7081,1253,3060.76
10074,-3.1388,-1.6125,14.0073,1251,3060.76
10079,-5.2613,1.6388,10.2173,1251,3060.76
10084,2.0818,3.5147,8.2528,1253,3060.76
10089,2.6719,2.4457,11.1749,1257,3060.76
10094,-3.5578,-1.8292,13.8971,1244,3060.76
10099,-4.6807,1.9261,9.7588,1251,3060.91
10104,2.2565,3.5889,8.3426,1253,3060.91
10109,2.1141,2.0435,11.582,1257,3060.91
10114,-3.972,-1.9369,13.7655,1251,3060.91
10119,-3.984,2.1524,9.3937,1251,3060.76
10124,2.4253,3.6775,8.5258,1254,3060.76
10129,1.4437,1.7549,11.9866,1245,3060.76
10134,-4.3443,-1.8172,13.635,1245,3060.76
10139,-3.219,2.308,8.9112,1245,3060.91
10144,2.5582,3.7445,8.6048,1244,3060.91
10149,0.7793,1.3611,12.3194,1239,3060.91
10154,-4.7405,-1.7238,13.4099,1240,3060.91
10159,-2.3942,2.4983,8.6443,1241,3061.07
10164,2.7593,3.8355,8.746,1247,3061.07
10169,0.2251,0.9936,12.7252,1240,3061.07
10174,-5.0961,-1.4126,13.0915,1241,3061.07
10179,-1.5778,2.6073,8.333,1239,3060.76
10184,2.9485,3.7936,8.8765,1243,3060.76
10189,-0.3124,0.6476,13.046,1243,3060.76
10194,-5.3882,-1.0977,12.7767,1245,3060.76
10199,-0.8092,2.7904,8.187,1240,3061.07
10204,3.1077,3.796,9.0082,1242,3061.07
10209,-0.7147,0.31,13.4063,1239,3061.07
10214,-5.6144,-0.6524,12.4989,1243,3061.07
10219,-0.1089,2.9317,8.0601,1243,3061.07
10224,3.3148,3.7721,9.2668,1240,3061.07
10229,-1.1337,-0.073,13.6745,1238,3061.07
10234,-5.8826,-0.1748,12.1877,1239,3061.07
10239,0.5399,3.0586,7.9847,1241,3061.38
10244,3.4919,3.6787,9.5445,1241,3061.38
10249,-1.5455,-0.4525,13.7858,1229,3061.38
10254,-5.9532,0.2693,11.7675,1238,3061.38
10259,1.0391,3.1424,8.0086,1239,3061.38
10264,3.6081,3.4824,9.8246,1235,3061.38
10269,-1.9465,-0.8188,13.9857,1235,3061.38
10274,-5.9472,0.7051,11.3401,1230,3061.38
10279,1.4066,3.2394,8.0254,1236,3061.22
10284,3.5721,3.2561,10.143,1230,3061.22
10289,-2.4193,-1.2115,14.0779,1235,3061.22
10294,-5.7964,1.0774,10.8338,1243,3061.22
10299,1.7573,3.3315,8.108,1235,3061.85
10304,3.3088,2.9461,10.5381,1229,3061.85
10309,-2.8383,-1.5838,14.0288,1229,3061.85
10314,-5.375,1.4736,10.3992,1239,3061.85
10319,2.0195,3.45,8.157,1250,3062.16
10324,2.964,2.6061,10.9343,1239,3062.16
10329,-3.3998,-1.7454,13.9714,1226,3062.16
10334,-4.9428,1.8076,9.9539,1239,3061.69
10339,2.2266,3.5255,8.2768,1237,3061.69
10344,2.3547,2.2206,11.3856,1242,3061.69
10349,-3.7852,-1.9752,13.8493,1237,3061.69
10354,-4.2162,2.0626,9.493,1238,3062.32
10359,2.3942,3.6188,8.3713,1241,3062.32
10364,1.7693,1.8507,11.7555,1231,3062.32
10369,-4.2222,-1.8842,13.6936,1239,3062.32
10374,-3.5195,2.2613,9.1207,1239,3062.32
10379,2.5211,3.6955,8.4934,1235,3062.32
10384,1.0942,1.4377,12.153,1225,3062.32
10389,-4.5837,-1.8124,13.3956,1225,3062.32
10394,-2.6552,2.4469,8.7149,1236,3062.32
10399,2.7426,3.7086,8.6778,1239,3062.32
10404,0.4345,1.1253,12.5839,1225,3062.32
10409,-4.9285,-1.5598,13.2328,1227,3062.32
10414,-1.8411,2.5929,8.4443,1224,3062.16
10419,2.8491,3.7625,8.8011,1233,3062.16
10424,-0.1281,0.7183,12.9359,1227,3062.16
10429,-5.3103,-1.2617,12.8557,1227,3062.16
10434,-1.0546,2.7174,8.2253,1229,3062.01
10439,3.0897,3.7948,9.0154,1231,3062.01
10444,-0.6045,0.395,13.3106,1228,3062.01
10449,-5.6096,-0.8643,12.5923,1235,3062.01
10454,-0.2993,2.8671,8.0218,1239,3062.32
10459,3.3124,3.7541,9.1842,1230,3062.32
10464,-1.0068,0.0072,13.5763,1235,3062.32
10469,-5.7964,-0.419,12.2487,1235,3062.32
10474,0.3184,2.9281,7.9942,1256,3062.47
10479,3.5123,3.6308,9.5158,1257,3062.47
10484,-1.3683,-0.4058,13.8181,1263,3062.47
10489,-5.9747,0.0634,11.8705,1247,3062.47
10494,0.9445,3.0825,7.944,1253,3062.63
10499,3.5997,3.5231,9.6833,1247,3062.63
10504,-1.8208,-0.814,13.9462,1251,3062.63
10509,-5.9699,0.5076,11.4108,1241,3062.63
10514,1.3455,3.1699,8.0254,1253,3062.47
10519,3.5518,3.2944,10.0784,1245,3062.47
10524,-2.3308,-1.154,14.0707,1245,3062.47
10529,-5.8682,0.9685,10.9666,1241,3062.47
10534,1.7071,3.2896,8.0577,1241,3062.01
10539,3.4237,2.9892,10.4651,1242,3062.01
10544,-2.7761,-1.5263,13.9738,1229,3062.01
10549,-5.5522,1.324,10.501,1239,3062.01
10554,1.9692,3.3686,8.187,1245,3061.38
10559,3.0394,2.6408,10.9128,1241,3061.38
10564,-3.3076,-1.8004,13.9642,1235,3061.38
10569,-5.0697,1.719,10.0521,1240,3061.38
10574,2.1572,3.4453,8.3067,1240,3062.01
10579,2.5522,2.2817,11.3138,1245,3062.01
10584,-3.7362,-1.974,13.8481,1239,3062.01
10589,-4.4053,1.9309,9.5756,1237,3061.69
10594,2.3056,3.5494,8.4551,1247,3061.69
10599,1.8603,1.8579,11.7053,1241,3061.69
10604,-4.0941,-1.9944,13.7559,1244,3061.69
10609,-3.6703,2.2075,9.1674,1243,3061.22
10614,2.4756,3.6691,8.4707,1247,3061.22
10619,1.2534,1.5359,12.0811,1243,3061.22
10624,-4.5071,-1.8615,13.5452,1243,3061.22
10629,-2.879,2.3595,8.7939,1245,3062.47
10634,2.6073,3.6823,8.6084,1250,3062.47
10639,0.5531,1.1444,12.4929,1245,3062.47
10644,-4.9033,-1.6939,13.2758,1241,3062.47
10649,-2.0267,2.551,8.5186,1240,3061.85
10654,2.7689,3.7302,8.8035,1250,3061.85
10659,0.0192,0.8607,12.9359,1245,3061.85
10664,-5.302,-1.3132,12.9634,1236,3061.85
10669,-1.2917,2.6755,8.3438,1241,3061.69
10674,2.9628,3.7314,8.9447,1251,3061.69
10679,-0.4357,0.4585,13.2471,1251,3061.69
10684,-5.5629,-0.9984,12.645,1246,3061.69
10689,-0.5519,2.7845,8.0721,1241,3061.07
10694,3.1831,3.7697,9.1889,1245,3061.07
10699,-0.9206,0.1448,13.538,1239,3061.07
10704,-5.8119,-0.5267,12.3373,1245,3061.07
10709,0.1245,2.9365,7.9571,1246,3062.16
10714,3.3674,3.7026,9.4008,1241,3062.16
10719,-1.2905,-0.316,13.7295,1241,3062.16
10724,-5.9711,-0.0922,11.9818,1241,3062.16
10729,0.7171,3.0023,8.0038,1246,3062.01
10734,3.5446,3.5506,9.6283,1251,3062.01
10739,-1.7131,-0.6919,13.9498,1239,3062.01
10744,-6.0777,0.3974,11.5281,1229,3062.01
10749,1.2139,3.0885,7.993,1244,3062.01
10754,3.5554,3.2813,9.9982,1239,3062.01
10759,-2.1955,-1.0762,14.0947,1243,3062.01
10764,-5.9616,0.8392,11.1522,1247,3062.01
10769,1.5814,3.2813,8.0278,1243,3061.69
10774,3.383,3.0873,10.3837,1242,3061.69
10779,-2.6875,-1.4257,14.0576,1241,3061.69
10784,-5.685,1.2809,10.653,1251,3061.69
10789,1.8328,3.3519,8.1068,1251,3061.54
10794,3.1244,2.7438,10.7607,1241,3061.54
10799,-3.1771,-1.7549,13.9606,1245,3061.54
10804,-5.1775,1.6233,10.2173,1243,3061.54
10809,2.083,3.4034,8.2205,1247,3061.85
10814,2.6444,2.3906,11.1019,1255,3061.85
10819,-3.5937,-1.9417,13.9283,1240,3061.85
10824,-4.6591,1.9166,9.7025,1243,3062.16
10829,2.1871,3.5374,8.2851,1242,3062.16
10834,2.077,2.0063,11.5293,1239,3062.16
10839,-4.0737,-1.9884,13.7894,1241,3062.16
10844,-3.9349,2.1308,9.3326,1239,3062.32
10849,2.393,3.6715,8.4623,1245,3062.32
10854,1.3551,1.6544,12.0261,1239,3062.32
10859,-4.4353,-1.9285,13.5715,1243,3062.32
10864,-3.1687,2.3128,8.9184,1241,3062.01
10869,2.5139,3.6763,8.6191,1241,3062.01
10874,0.7039,1.2594,12.4582,1229,3062.01
10879,-4.8518,-1.7178,13.3177,1230,3062.01
10884,-2.3547,2.5019,8.6335,1237,3062.01
10889,2.6695,3.7266,8.7676,1241,3062.01
10894,0.146,0.9278,12.7958,1242,3062.01
10899,-5.2313,-1.4856,13.0795,1241,3062.01
10904,-1.5119,2.6432,8.3019,1240,3061.85
10909,2.8862,3.8176,8.8921,1241,3061.85
10914,-0.413,0.6081,13.1837,1244,3061.85
10919,-5.5366,-1.0834,12.8114,1247,3061.85
10924,-0.7075,2.7557,8.1558,1241,3061.85
10929,3.0957,3.796,9.1518,1243,3061.85
10934,-0.8212,0.2119,13.4566,1239,3061.85
10939,-5.7772,-0.6512,12.4834,1251,3061.85
10944,-0.0335,2.8659,8.0361,1243,3062.32
10949,3.3028,3.7373,9.3254,1237,3062.32
10954,-1.2151,-0.1089,13.7331,1239,3062.32
10959,-5.952,-0.182,12.0835,1239,3062.32
10964,0.5435,3.0095,7.9703,1241,3062.79
10969,3.4369,3.6093,9.5624,1239,3062.79
10974,-1.6592,-0.5555,13.9283,1227,3062.79
10979,-6.0801,0.3232,11.649,1231,3062.79
10984,1.093,3.1364,8.0266,1237,3062.01
10989,3.4812,3.4297,9.9527,1235,3062.01
10994,-2.1009,-0.9637,14.0192,1239,3062.01
10999,-5.9807,0.7793,11.1749,1239,3062.01
11004,1.4868,3.2058,7.9847,1237,3060.76
11009,3.3938,3.1627,10.2412,1227,3060.76
11014,-2.6061,-1.336,14.1174,1253,3060.76
11019,-5.7736,1.1887,10.8062,1243,3060.76
11024,1.7454,3.371,8.1056,1236,3059.66
11029,3.1364,2.873,10.6542,1237,3059.66
11034,-3.0347,-1.664,14.0492,1239,3059.66
11039,-5.3882,1.506,10.3465,1229,3059.66
11044,2.0291,3.4417,8.2444,1243,3058.73
11049,2.7438,2.5546,11.0624,1236,3058.73
11054,-3.4488,-1.8304,13.957,1229,3058.73
11059,-4.8279,1.834,9.9168,1237,3058.42
11064,2.1344,3.5398,8.3378,1241,3058.42
11069,2.1847,2.1871,11.4215,1241,3058.42
11074,-3.8367,-1.9573,13.8612,1241,3058.42
11079,-4.2844,2.0195,9.4846,1242,3058.1
11084,2.2853,3.6212,8.4527,1241,3058.1
11089,1.6616,1.8699,11.7938,1239,3058.1
11094,-4.2629,-1.9393,13.6218,1245,3058.1
11099,-3.5578,2.2434,9.1243,1243,3057.32
11104,2.4122,3.6835,8.6203,1240,3057.32
11109,0.9481,1.47,12.1937,1233,3057.32
11114,-4.6244,-1.8088,13.4087,1239,3057.32
11119,-2.7629,2.3894,8.7616,1239,3058.1
11124,2.5343,3.7326,8.7544,1243,3058.1
11129,0.4381,1.1732,12.5839,1237,3058.1
11134,-4.968,-1.6269,13.2375,1239,3058.1
11139,-2.0027,2.5678,8.5964,1239,3057.01
11144,2.7246,3.8295,8.8657,1241,3057.01
11149,-0.1221,0.8715,12.9335,1235,3057.01
11154,-5.2218,-1.324,12.9873,1235,3057.01
11159,-1.2773,2.6193,8.2684,1239,3057.17
11164,2.8994,3.8547,9.0249,1235,3057.17
11169,-0.5531,0.5171,13.1753,1241,3057.17
11174,-5.5557,-0.9541,12.6785,1237,3057.17
11179,-0.5543,2.7833,8.1918,1235,3057.32
11184,3.1424,3.8188,9.2129,1229,3057.32
11189,-0.9206,0.2334,13.4015,1234,3057.32
11194,-5.7844,-0.5028,12.4307,1242,3057.32
11199,0.0515,2.903,8.0649,1237,3057.17
11204,3.2681,3.7493,9.4056,1228,3057.17
11209,-1.3036,-0.1616,13.7224,1227,3057.17
11214,-5.9364,-0.0742,12.0213,1229,3057.17
11219,0.5997,3.0107,8.0373,1240,3057.32
11224,3.4369,3.6428,9.7049,1235,3057.32
11229,-1.6376,-0.5052,13.8552,1228,3057.32
11234,-5.9879,0.3352,11.6215,1237,3057.32
11239,1.0546,3.1448,8.0361,1237,3057.17
11244,3.4955,3.4405,9.9443,1236,3057.17
11249,-2.0698,-0.8799,13.9857,1229,3057.17
11254,-5.9077,0.7709,11.2276,1240,3057.17
11259,1.4976,3.2465,8.0421,1239,3057.17
11264,3.3998,3.2884,10.3262,1237,3057.17
11269,-2.496,-1.2725,14.1138,1243,3057.17
11274,-5.7449,1.142,10.8481,1245,3057.17
11279,1.719,3.3124,8.1295,1245,3057.01
11284,3.2154,2.982,10.6027,1237,3057.01
11289,-2.8766,-1.5969,14.0216,1229,3057.01
11294,-5.448,1.4772,10.4303,1244,3057.01
11299,2.0063,3.4081,8.2277,1243,3056.55
11304,2.8455,2.6863,10.9726,1236,3056.55
11309,-3.3112,-1.7777,13.9307,1228,3056.55
11314,-4.9835,1.7119,9.979,1241,3056.55
11319,2.1392,3.5386,8.2983,1235,3056.39
11324,2.3451,2.2889,11.3653,1245,3056.39
11329,-3.6895,-1.883,13.8517,1235,3056.39
11334,-4.3622,1.9668,9.5876,1240,3057.01
11339,2.2685,3.6069,8.4958,1237,3057.01
11344,1.8244,1.9537,11.7579,1242,3057.01
11349,-4.124,-1.9321,13.7008,1238,3057.01
11354,-3.711,2.1703,9.2296,1239,3056.86
11359,2.4193,3.7062,8.5581,1243,3056.86
11364,1.1851,1.5874,12.1099,1239,3056.86
11369,-4.4317,-1.8842,13.4877,1240,3056.86
11374,-2.9676,2.3463,8.8921,1245,3056.7
11379,2.5738,3.79,8.7065,1235,3056.7
11384,0.6237,1.3144,12.4546,1237,3056.7
11389,-4.7932,-1.6939,13.3261,1237,3056.7
11394,-2.2254,2.5007,8.5712,1247,3056.39
11399,2.7461,3.8463,8.8334,1245,3056.39
11404,0.0263,0.9649,12.7204,1243,3056.39
11409,-5.114,-1.4126,13.0652,1237,3056.39
11414,-1.476,2.6025,8.3462,1242,3056.7
11419,2.9078,3.8355,8.9938,1253,3056.7
11424,-0.3699,0.6488,13.0855,1243,3056.7
11429,-5.3882,-1.0702,12.7324,1243,3056.7
11434,-0.8176,2.739,8.1846,1247,3057.01
11439,3.1053,3.8427,9.1614,1241,3057.01
11444,-0.7901,0.322,13.3716,1240,3057.01
11449,-5.6383,-0.6536,12.4427,1239,3057.01
11454,-0.1425,2.8683,8.0792,1239,3057.01
11459,3.2262,3.7852,9.3506,1241,3057.01
11464,-1.1265,0.0108,13.6613,1237,3057.01
11469,-5.7856,-0.261,12.0799,1240,3057.01
11474,0.4501,3.0275,8.0493,1245,3057.48
11479,3.395,3.6751,9.5972,1251,3057.48
11484,-1.4569,-0.4106,13.8349,1247,3057.48
11489,-5.9723,0.1676,11.7807,1245,3057.48
11494,0.9589,3.1651,8.0313,1247,3057.17
11499,3.4884,3.559,9.8821,1253,3057.17
11504,-1.8687,-0.7805,13.9043,1245,3057.17
11509,-5.9221,0.6201,11.3832,1242,3057.17
11514,1.4054,3.2441,8.0529,1245,3057.48
11519,3.4931,3.3243,10.1263,1241,3057.48
11524,-2.247,-1.1516,14.0456,1239,3057.48
11529,-5.8371,0.9888,10.9786,1240,3057.48
11534,1.6831,3.322,8.0864,1239,3057.48
11539,3.3279,3.055,10.4447,1228,3057.48
11544,-2.7222,-1.4653,14.0755,1235,3057.48
11549,-5.5234,1.3479,10.5285,1245,3057.48
11554,1.9249,3.4081,8.2025,1244,3057.32
11559,2.9556,2.7461,10.8469,1245,3057.32
11564,-3.1029,-1.6879,13.9977,1241,3057.32
11569,-5.108,1.6221,10.1143,1241,3057.32
11574,2.0818,3.5111,8.2756,1256,3057.32
11579,2.5307,2.3762,11.1857,1255,3057.32
11584,-3.5781,-1.8962,13.8481,1243,3057.32
11589,-4.5538,1.9704,9.663,1245,3057.64
11594,2.2338,3.5961,8.4539,1251,3057.64
11599,1.9956,2.0411,11.6095,1253,3057.64
11604,-3.9708,-1.9764,13.7463,1251,3057.64
11609,-3.9169,2.1261,9.2668,1245,3057.64
11614,2.3894,3.6512,8.5509,1251,3057.64
11619,1.3491,1.6412,11.9399,1245,3057.64
11624,-4.3622,-1.8866,13.5907,1255,3057.64
11629,-3.2094,2.2757,8.9196,1246,3057.32
11634,2.563,3.7517,8.6455,1253,3057.32
11639,0.7638,1.3803,12.3194,1244,3057.32
11644,-4.6878,-1.7813,13.3608,1243,3057.32
11649,-2.405,2.4229,8.6766,1245,3057.17
11654,2.7318,3.79,8.7412,1245,3057.17
11659,0.2442,1.0187,12.6402,1240,3057.17
11664,-5.0314,-1.4688,13.0819,1239,3057.17
11669,-1.6388,2.5857,8.406,1234,3057.48
11674,2.8587,3.8044,8.8609,1243,3057.48
11679,-0.2646,0.7314,13.0017,1239,3057.48
11684,-5.296,-1.1768,12.8497,1235,3057.48
11689,-0.9529,2.7629,8.2181,1235,3057.48
11694,3.0167,3.8116,9.1051,1237,3057.48
11699,-0.7027,0.3795,13.3189,1240,3057.48
11704,-5.5869,-0.7817,12.5791,1241,3057.48
11709,-0.2538,2.8563,8.0577,1239,3057.48
11714,3.2058,3.8164,9.3134,1243,3057.48
11719,-1.0475,-0.0084,13.5284,1243,3057.48
11724,-5.7616,-0.3711,12.2104,1243,3057.48
11729,0.3603,2.9257,7.9775,1245,3057.17
11734,3.3435,3.6955,9.4463,1246,3057.17
11739,-1.3838,-0.3316,13.7475,1250,3057.17
11744,-5.9568,0.073,11.8681,1243,3057.17
11749,0.8344,3.1137,8.011,1247,3056.86
11754,3.4632,3.5638,9.7492,1250,3056.86
11759,-1.7968,-0.7075,13.9355,1239,3056.86
11764,-5.9209,0.4645,11.4539,1241,3056.86
11769,1.3168,3.1675,7.9344,1243,3056.7
11774,3.5314,3.3459,10.0389,1245,3056.7
11779,-2.1751,-1.0511,14.0073,1240,3056.7
11784,-5.8263,0.8775,11.0552,1239,3056.7
11789,1.585,3.2884,8.0685,1237,3056.86
11794,3.3447,3.0957,10.392,1237,3056.86
11799,-2.5714,-1.421,13.9678,1237,3056.86
11804,-5.6443,1.2115,10.5991,1241,3056.86
11809,1.883,3.3495,8.1379,1235,3056.86
11814,3.0969,2.8024,10.7907,1241,3056.86
11819,-3.0131,-1.7059,13.9043,1239,3056.86
11824,-5.1715,1.5622,10.1586,1237,3056.86
11829,2.0554,3.4357,8.2444,1243,3056.7
11834,2.6516,2.484,11.1223,1239,3056.7
11839,-3.4393,-1.9489,13.8313,1235,3056.7
11844,-4.701,1.8064,9.7348,1260,3056.7
11849,2.2661,3.5494,8.4443,1241,3056.7
11854,2.1368,2.1284,11.5245,1251,3056.7
11859,-3.8702,-1.962,13.8098,1239,3056.7
11864,-4.0773,2.0111,9.3948,1245,3057.01
11869,2.3475,3.5937,8.4946,1241,3057.01
11874,1.5251,1.7909,11.8453,1239,3057.01
11879,-4.2042,-1.9644,13.5895,1241,3057.01
11884,-3.3842,2.211,9.0249,1239,3055.77
11889,2.4624,3.6667,8.6419,1239,3055.77
11894,0.9732,1.4557,12.2332,1237,3055.77
11899,-4.5813,-1.8639,13.3465,1239,3055.77
11904,-2.6552,2.3715,8.7209,1239,3055.3
11909,2.5726,3.7122,8.7736,1237,3055.3
11914,0.3711,1.1648,12.5983,1235,3055.3
11919,-4.8507,-1.6484,13.1418,1237,3055.3
11924,-1.8986,2.4948,8.4779,1235,3055.46
11929,2.7043,3.7601,8.8825,1239,3055.46
11934,-0.1448,0.7973,12.9,1241,3055.46
11939,-5.1511,-1.3743,12.9239,1243,3055.46
11944,-1.2079,2.6408,8.2432,1241,3055.77
11949,2.9425,3.8247,9.0237,1239,3055.77
11954,-0.4764,0.5028,13.1717,1239,3055.77
11959,-5.4875,-0.996,12.6546,1245,3055.77
11964,-0.5279,2.7473,8.1032,1238,3055.77
11969,3.1184,3.8032,9.2177,1237,3055.77
11974,-0.8655,0.1532,13.4375,1241,3055.77
11979,-5.7233,-0.5974,12.3277,1243,3055.77
11984,0.0551,2.9066,8.0469,1239,3055.77
11989,3.2956,3.7266,9.3673,1240,3055.77
11994,-1.1983,-0.1664,13.7128,1236,3055.77
11999,-5.8945,-0.1999,11.9471,1241,3055.77
12004,0.5997,3.0155,8.0206,1243,3055.77
12009,3.4225,3.5949,9.651,1231,3055.77
12014,-1.5874,-0.5411,13.8002,1241,3055.77
12019,-5.9484,0.2466,11.6681,1239,3055.77
12024,1.0726,3.0909,8.0565,1235,3055.61
12029,3.4656,3.4069,9.979,1231,3055.61
12034,-1.9573,-0.9002,13.9762,1251,3055.61
12039,-5.8993,0.662,11.2815,1237,3055.61
12044,1.4485,3.1508,8.0349,1229,3055.92
12049,3.4034,3.2274,10.24,1231,3055.92
12054,-2.4804,-1.2617,13.9426,1237,3055.92
12059,-5.7952,1.0355,10.8625,1235,3055.92
12064,1.7262,3.3076,8.157,1230,3056.23
12069,3.1879,2.9808,10.5716,1227,3056.23
12074,-2.8204,-1.5814,13.9773,1228,3056.23
12079,-5.4696,1.4054,10.3657,1254,3056.23
12084,1.9333,3.4129,8.2073,1230,3056.08
12089,2.9066,2.6576,10.914,1237,3056.08
12094,-3.2813,-1.8124,14.0085,1234,3056.08
12099,-5.0386,1.7059,10.0401,1233,3056.08
12104,2.0698,3.4895,8.2791,1239,3055.77
12109,2.3595,2.3487,11.2803,1235,3055.77
12114,-3.6943,-1.895,13.8552,1229,3055.77
12119,-4.476,1.9213,9.5828,1231,3055.61
12124,2.2015,3.5626,8.3941,1231,3055.61
12129,1.8567,1.9656,11.6741,1237,3055.61
12134,-4.0247,-1.9716,13.7403,1237,3055.61
12139,-3.7745,2.1823,9.2751,1234,3055.77
12144,2.3308,3.6452,8.5449,1236,3055.77
12149,1.2653,1.6723,12.0404,1225,3055.77
12154,-4.44,-1.913,13.5632,1239,3055.77
12159,-3.1137,2.3008,8.9124,1237,3055.46
12164,2.4696,3.7409,8.679,1236,3055.46
12169,0.6045,1.318,12.4283,1229,3055.46
12174,-4.7381,-1.7514,13.4195,1235,3055.46
12179,-2.4014,2.4529,8.594,1234,3055.61
12184,2.6193,3.7972,8.8083,1235,3055.61
12189,0.0802,1.0439,12.73,1225,3055.61
12194,-5.0578,-1.5251,13.113,1229,3055.61
12199,-1.6544,2.5678,8.4132,1227,3055.61
12204,2.8036,3.8307,8.9914,1237,3055.61
12209,-0.3508,0.7147,13.0711,1229,3055.61
12214,-5.3714,-1.1612,12.8533,1231,3055.61
12219,-0.9038,2.7306,8.2301,1235,3055.77
12224,2.9664,3.8283,9.104,1227,3055.77
12229,-0.7015,0.4178,13.3561,1236,3055.77
12234,-5.6108,-0.759,12.5504,1237,3055.77
12239,-0.334,2.8371,8.1104,1229,3055.61
12244,3.146,3.8008,9.3386,1231,3055.61
12249,-1.057,0.0706,13.5955,1225,3055.61
12254,-5.8514,-0.3819,12.2607,1237,3055.61
12259,0.3053,2.9628,8.0146,1233,3055.46
12264,3.292,3.7362,9.5481,1229,3055.46
12269,-1.4688,-0.2909,13.7224,1225,3055.46
12274,-5.9352,0.0144,11.9375,1228,3055.46
12279,0.7805,3.0143,7.9667,1236,3055.61
12284,3.4261,3.6093,9.7971,1233,3055.61
12289,-1.8136,-0.6752,13.8792,1229,3055.61
12294,-6.0035,0.5016,11.5113,1233,3055.61
12299,1.2234,3.1723,8.0313,1225,3055.61
12304,3.4081,3.4429,10.082,1229,3055.61
12309,-2.1835,-1.0199,14.0288,1225,3055.61
12314,-5.8514,0.9122,11.1306,1227,3055.61
12319,1.5742,3.2836,8.0732,1229,3055.61
12324,3.2932,3.1891,10.4339,1223,3055.61
12329,-2.5845,-1.3623,13.9893,1237,3055.61
12334,-5.6719,1.2055,10.6805,1239,3055.61
12339,1.7585,3.395,8.1786,1231,3055.92
12344,3.0993,2.8766,10.7236,1229,3055.92
12349,-2.9856,-1.6388,13.9606,1226,3055.92
12354,-5.29,1.5203,10.2687,1241,3055.92
12359,1.9537,3.4596,8.3019,1229,3055.61
12364,2.6516,2.5965,11.1019,1228,3055.61
12369,-3.3926,-1.8052,13.9139,1215,3055.61
12374,-4.8004,1.828,9.8916,1229,3055.61
12379,2.1488,3.5314,8.3378,1229,3055.61
12384,2.1512,2.2446,11.4335,1235,3055.61
12389,-3.7936,-1.9297,13.8002,1223,3055.61
12394,-4.2473,2.0626,9.4511,1231,3055.77
12399,2.2553,3.644,8.497,1225,3055.77
12404,1.5897,1.8783,11.8022,1229,3055.77
12409,-4.1803,-1.9285,13.6781,1227,3055.77
12414,-3.5398,2.2075,9.0992,1227,3055.15
12419,2.4277,3.7134,8.6586,1233,3055.15
12424,1.0151,1.561,12.1877,1227,3055.15
12429,-4.5203,-1.81,13.5225,1225,3055.15
12434,-2.8335,2.3906,8.8143,1229,3056.08
12439,2.5881,3.7972,8.7305,1229,3056.08
12444,0.4549,1.2306,12.5025,1227,3056.08
12449,-4.8255,-1.5778,13.2531,1225,3056.08
12454,-2.0961,2.5402,8.5581,1229,3055.77
12459,2.7461,3.8451,8.8849,1227,3055.77
12464,0.012,0.9409,12.87,1225,3055.77
12469,-5.132,-1.3731,12.9622,1227,3055.77
12474,-1.3587,2.6396,8.3103,1233,3055.92
12479,2.8922,3.8283,8.9974,1229,3055.92
12484,-0.4298,0.5806,13.1681,1227,3055.92
12489,-5.4109,-1.008,12.7575,1221,3055.92
12494,-0.6955,2.8,8.2061,1227,3055.92
12499,3.0969,3.802,9.183,1227,3055.92
12504,-0.8535,0.2933,13.3896,1227,3055.92
12509,-5.6802,-0.5986,12.4558,1233,3055.92
12514,-0.0168,2.8994,8.0146,1225,3055.92
12519,3.2729,3.7673,9.3434,1225,3055.92
12524,-1.2043,-0.0862,13.6362,1224,3055.92
12529,-5.7928,-0.1975,12.159,1227,3055.92
12534,0.5567,2.9928,8.0517,1233,3055.92
12539,3.4393,3.6799,9.5636,1228,3055.92
12544,-1.5419,-0.395,13.8971,1225,3055.92
12549,-5.9556,0.2239,11.7867,1225,3055.92
12554,0.9625,3.1532,7.9763,1229,3056.23
12559,3.5422,3.5267,9.8019,1231,3056.23
12564,-1.9166,-0.7542,13.9833,1225,3056.23
12569,-5.9376,0.662,11.4179,1227,3056.23
12574,1.3707,3.2262,8.017,1225,3056.23
12579,3.4776,3.2836,10.1562,1229,3056.23
12584,-2.296,-1.1636,14.0097,1227,3056.23
12589,-5.7114,1.0558,10.9654,1225,3056.23
12594,1.7011,3.3603,8.0445,1227,3056.08
12599,3.298,3.0706,10.4794,1225,3056.08
12604,-2.7354,-1.5036,14.0456,1227,3056.08
12609,-5.4791,1.3443,10.586,1233,3056.08
12614,1.9333,3.3866,8.1463,1224,3056.23
12619,3.0035,2.7246,10.8146,1231,3056.23
12624,-3.1304,-1.7561,13.9678,1224,3056.23
12629,-5.0649,1.646,10.094,1231,3056.23
12634,2.1141,3.5207,8.2612,1229,3056.23
12639,2.5558,2.4373,11.2384,1229,3056.23
12644,-3.5793,-1.8986,13.9522,1227,3056.23
12649,-4.5298,1.9106,9.6654,1227,3056.23
12654,2.2853,3.5674,8.3474,1227,3056.39
12659,1.986,2.0183,11.5748,1235,3056.39
12664,-4.0139,-1.9824,13.7403,1227,3056.39
12669,-3.8786,2.0973,9.2967,1227,3056.55
12674,2.4193,3.6332,8.4276,1227,3056.55
12679,1.3898,1.7394,11.9854,1229,3056.55
12684,-4.367,-1.895,13.5919,1231,3056.55
12689,-3.14,2.3176,8.9172,1228,3056.7
12694,2.5774,3.6751,8.5174,1228,3056.7
12699,0.8056,1.3791,12.3565,1213,3056.7
12704,-4.6795,-1.8435,13.3956,1229,3056.7
12709,-2.3727,2.4517,8.6311,1227,3057.01
12714,2.7031,3.7864,8.6921,1230,3057.01
12719,0.2286,1.069,12.7012,1226,3057.01
12724,-4.9823,-1.4988,13.1956,1223,3057.01
12729,-1.6556,2.5115,8.3773,1225,3057.01
12734,2.9078,3.7912,8.8753,1229,3057.01
12739,-0.2813,0.6716,12.9754,1229,3057.01
12744,-5.2732,-1.2234,12.9443,1229,3057.01
12749,-0.9421,2.6815,8.1882,1227,3056.86
12754,3.0562,3.808,9.0166,1233,3056.86
12759,-0.6716,0.4238,13.3668,1235,3056.86
12764,-5.5773,-0.814,12.6354,1230,3056.86
12769,-0.2514,2.8287,8.0816,1223,3057.01
12774,3.2944,3.7445,9.1554,1230,3057.01
12779,-1.0499,0.0215,13.4626,1229,3057.01
12784,-5.7784,-0.4561,12.1266,1235,3057.01
12789,0.2658,2.9796,8.0589,1230,3057.01
12794,3.4058,3.6631,9.4667,1231,3057.01
12799,-1.3384,-0.2753,13.8098,1221,3057.01
12804,-5.9161,-0.0156,12.0045,1230,3057.01
12809,0.8308,3.0885,7.9727,1235,3057.01
12814,3.5207,3.571,9.7384,1231,3057.01
12819,-1.7502,-0.6572,13.8816,1235,3057.01
12824,-5.9328,0.4154,11.5556,1229,3057.01
12829,1.2689,3.1675,8.0469,1229,3057.17
12834,3.5039,3.3615,10.1359,1235,3057.17
12839,-2.1129,-1.0906,13.9893,1230,3057.17
12844,-5.8754,0.8619,11.0828,1227,3057.17
12849,1.5909,3.2202,8.0266,1228,3057.32
12854,3.4548,3.1137,10.3058,1227,3057.32
12859,-2.6228,-1.3862,14.0456,1234,3057.32
12864,-5.6671,1.2234,10.7176,1238,3057.32
12869,1.828,3.3794,8.1319,1225,3057.01
12874,3.1173,2.7581,10.7464,1227,3057.01
12879,-3.0299,-1.6999,13.9881,1228,3057.01
12884,-5.2625,1.494,10.2771,1237,3057.01
12889,2.0806,3.4405,8.2265,1231,3057.01
12894,2.7509,2.4995,11.0995,1230,3057.01
12899,-3.4824,-1.8842,13.9929,1230,3057.01
12904,-4.725,1.7765,9.839,1227,3057.01
12909,2.2266,3.5279,8.2983,1235,3057.32
12914,2.2601,2.1332,11.4682,1235,3057.32
12919,-3.8738,-1.98,13.7403,1225,3057.32
12924,-4.1025,2.0901,9.432,1231,3057.48
12929,2.3415,3.5638,8.3929,1229,3057.48
12934,1.6185,1.7957,11.9303,1237,3057.48
12939,-4.2701,-1.9692,13.6637,1235,3057.48
12944,-3.4022,2.2733,9.0273,1229,3057.48
12949,2.4912,3.6727,8.5114,1229,3057.48
12954,0.9086,1.4808,12.22,1229,3057.48
12959,-4.6256,-1.8399,13.4195,1239,3057.48
12964,-2.654,2.3846,8.7245,1233,3057.64
12969,2.6264,3.717,8.7197,1230,3057.64
12974,0.3005,1.1516,12.6462,1233,3057.64
12979,-4.938,-1.5455,13.2184,1228,3057.64
12984,-1.8974,2.5462,8.4144,1229,3057.64
12989,2.7833,3.7493,8.7915,1235,3057.64
12994,-0.1664,0.7745,12.9933,1227,3057.64
12999,-5.2816,-1.2905,12.9921,1229,3057.64
13004,-1.1648,2.7078,8.2791,1227,3057.79
13009,2.9748,3.7709,8.9376,1227,3057.79
13014,-0.5447,0.4669,13.2842,1235,3057.79
13019,-5.5964,-0.9134,12.6546,1235,3057.79
13024,-0.4693,2.8264,8.1343,1229,3057.79
13029,3.1556,3.7122,9.1363,1227,3057.79
13034,-0.929,0.1077,13.5272,1229,3057.79
13039,-5.7988,-0.4717,12.3996,1238,3057.79
13044,0.1472,2.9568,8.0134,1223,3058.26
13049,3.3315,3.6871,9.3697,1231,3058.26
13054,-1.3132,-0.2358,13.69,1225,3058.26
13059,-5.9532,-0.0622,12.0704,1231,3058.26
13064,0.7039,3.061,7.9499,1231,3058.73
13069,3.4752,3.5398,9.6271,1231,3058.73
13074,-1.7502,-0.6093,13.945,1233,3058.73
13079,-6.0286,0.4034,11.6657,1233,3058.73
13084,1.1971,3.1077,7.9895,1229,3058.88
13089,3.5087,3.3567,9.9707,1237,3058.88
13094,-2.1512,-1.0343,14.0468,1228,3058.88
13099,-5.9221,0.8464,11.1606,1231,3058.88
13104,1.4964,3.2585,7.9906,1226,3059.04
13109,3.4213,3.1376,10.2735,1227,3059.04
13114,-2.6228,-1.342,14.1066,1231,3059.04
13119,-5.7413,1.2486,10.7416,1237,3059.04
13124,1.7813,3.3579,8.096,1228,3058.73
13129,3.1771,2.8264,10.6686,1229,3058.73
13134,-3.0466,-1.6843,14.0001,1229,3058.73
13139,-5.3103,1.6041,10.2891,1239,3058.73
13144,1.9848,3.4429,8.2025,1231,3058.57
13149,2.7366,2.5079,11.0983,1231,3058.57
13154,-3.4656,-1.8507,14.0121,1231,3058.57
13159,-4.7417,1.834,9.8749,1227,3058.57
13164,2.1883,3.4931,8.2612,1237,3058.26
13169,2.1835,2.1416,11.5065,1237,3058.26
13174,-3.9002,-1.9692,13.8253,1225,3058.26
13179,-4.1623,2.0925,9.4834,1235,3059.04
13184,2.314,3.5889,8.4156,1227,3059.04
13189,1.549,1.7526,11.88,1231,3059.04
13194,-4.3084,-1.9453,13.7092,1230,3059.04
13199,-3.3914,2.2434,9.0573,1231,3058.42
13204,2.4888,3.7026,8.5497,1235,3058.42
13209,0.9313,1.4653,12.2523,1227,3058.42
13214,-4.6795,-1.8316,13.4853,1239,3058.42
13219,-2.6432,2.405,8.7101,1237,3058.26
13224,2.6264,3.7206,8.6706,1228,3058.26
13229,0.3627,1.1253,12.6749,1227,3058.26
13234,-5.0135,-1.5335,13.2328,1228,3058.26
13239,-1.9297,2.5702,8.4719,1229,3058.26
13244,2.8144,3.7996,8.8358,1229,3058.26
13249,-0.1101,0.8284,12.9694,1227,3058.26
13254,-5.3067,-1.2594,12.9682,1229,3058.26
13259,-1.136,2.6959,8.2995,1231,3058.57
13264,2.9413,3.7781,8.9771,1230,3058.57
13269,-0.5662,0.4381,13.3094,1228,3058.57
13274,-5.6228,-0.8894,12.6713,1226,3058.57
13279,-0.4429,2.8335,8.102,1229,3058.26
13284,3.1675,3.802,9.1973,1227,3058.26
13289,-0.99,0.1508,13.544,1227,3058.26
13294,-5.7988,-0.4776,12.372,1237,3058.26
13299,0.1389,2.9006,8.0242,1225,3058.42
13304,3.3722,3.6907,9.4008,1229,3058.42
13309,-1.3336,-0.2298,13.7643,1223,3058.42
13314,-5.9819,0.0371,12.0309,1230,3058.42
13319,0.735,3.0251,8.0026,1231,3058.73
13324,3.5015,3.5733,9.6582,1231,3058.73
13329,-1.7334,-0.5722,13.9917,1227,3058.73
13334,-6.0334,0.4764,11.5592,1231,3058.73
13339,1.148,3.134,7.9978,1231,3059.04
13344,3.4812,3.3411,9.9479,1233,3059.04
13349,-2.1919,-1.0223,14.0743,1225,3059.04
13354,-5.9161,0.8859,11.1737,1230,3059.04
13359,1.5179,3.2908,8.0469,1225,3059.04
13364,3.3938,3.1508,10.3094,1229,3059.04
13369,-2.6169,-1.3755,14.0671,1231,3059.04
13374,-5.715,1.2546,10.7416,1237,3059.04
13379,1.8447,3.3471,8.1008,1227,3058.42
13384,3.1268,2.8467,10.6865,1233,3058.42
13389,-3.0754,-1.7454,14.0348,1224,3058.42
13394,-5.2732,1.5886,10.3202,1235,3058.42
13399,1.98,3.4632,8.2217,1229,3058.26
13404,2.7114,2.5331,11.078,1229,3058.26
13409,-3.4895,-1.8292,13.9378,1227,3058.26
13414,-4.7848,1.8747,9.8677,1229,3058.26
13419,2.1763,3.5111,8.3378,1237,3058.42
13424,2.1668,2.1416,11.4718,1231,3058.42
13429,-3.9037,-1.9477,13.8445,1223,3058.42
13434,-4.1791,2.1117,9.4523,1227,3059.2
13439,2.3212,3.6069,8.4001,1228,3059.2
13444,1.5718,1.7442,11.8501,1234,3059.2
13449,-4.2964,-1.9142,13.6817,1231,3059.2
13454,-3.3974,2.2613,9.1195,1235,3058.88
13459,2.472,3.6332,8.5066,1231,3058.88
13464,0.9649,1.4102,12.2894,1209,3058.88
13469,-4.725,-1.8064,13.4829,1235,3058.88
13474,-2.6348,2.4612,8.7747,1230,3058.73
13479,2.6492,3.7769,8.6287,1225,3058.73
13484,0.3591,1.1085,12.7012,1225,3058.73
13489,-5.0434,-1.5526,13.1609,1225,3058.73
13494,-1.8854,2.5965,8.4611,1229,3058.42
13499,2.806,3.8199,8.819,1233,3058.42
13504,-0.1377,0.7949,13.0029,1224,3058.42
13509,-5.3702,-1.2246,13.0005,1225,3058.42
13514,-1.1444,2.7019,8.2504,1228,3058.57
13519,2.9916,3.8535,9.0321,1227,3058.57
13524,-0.6297,0.4645,13.2998,1215,3058.57
13529,-5.6276,-0.8272,12.6785,1221,3058.57
13534,-0.4334,2.8048,8.1295,1227,3058.42
13539,3.1639,3.7553,9.159,1227,3058.42
13544,-1.0044,0.1161,13.5284,1223,3058.42
13549,-5.8407,-0.3651,12.3672,1227,3058.42
13554,0.1879,2.9688,8.0804,1224,3058.57
13559,3.383,3.6955,9.3506,1224,3058.57
13564,-1.3838,-0.2717,13.7894,1223,3058.57
13569,-6.0226,0.085,11.9327,1225,3058.57
13574,0.7673,3.1005,7.9727,1229,3058.88
13579,3.5039,3.5554,9.6822,1223,3058.88
13584,-1.7358,-0.6572,14.0001,1213,3058.88
13589,-5.9939,0.5363,11.5508,1223,3058.88
13594,1.1768,3.1963,8.005,1224,3059.2
13599,3.4907,3.3303,9.985,1228,3059.2
13604,-2.1871,-1.0702,14.0061,1221,3059.2
13609,-5.9053,0.8882,11.1713,1223,3059.2
13614,1.5311,3.3124,8.084,1222,3059.04
13619,3.3746,3.1388,10.3513,1224,3059.04
13624,-2.6444,-1.3922,14.1007,1223,3059.04
13629,-5.6527,1.2941,10.7129,1225,3059.04
13634,1.8052,3.3854,8.1882,1216,3058.57
13639,3.0885,2.7892,10.7236,1215,3058.57
13644,-3.0921,-1.658,14.0683,1215,3058.57
13649,-5.266,1.6257,10.2723,1227,3058.57
13654,1.986,3.5314,8.2241,1215,3058.73
13659,2.7114,2.4672,11.1091,1227,3058.73
13664,-3.5051,-1.8711,13.939,1214,3058.73
13669,-4.7609,1.8675,9.7659,1223,3058.73
13674,2.2075,3.5638,8.3606,1229,3058.88
13679,2.1404,2.1021,11.582,1225,3058.88
13684,-3.9241,-1.913,13.8133,1207,3058.88
13689,-4.1168,2.132,9.3673,1224,3059.04
13694,2.3463,3.6727,8.4539,1223,3059.04
13699,1.5012,1.7705,11.9171,1225,3059.04
13704,-4.3239,-1.8974,13.6613,1215,3059.04
13709,-3.3603,2.2817,9.0501,1215,3058.73
13714,2.4708,3.717,8.5724,1223,3058.73
13719,0.9218,1.4425,12.3242,1223,3058.73
13724,-4.7681,-1.7693,13.4183,1223,3058.73
13729,-2.6013,2.4684,8.6766,1223,3058.88
13734,2.6588,3.8032,8.7125,1214,3058.88
13739,0.2825,1.1097,12.6378,1222,3058.88
13744,-5.017,-1.4988,13.1753,1215,3058.88
13749,-1.8052,2.6157,8.4025,1215,3058.73
13754,2.8084,3.8223,8.8502,1227,3058.73
13759,-0.1712,0.7805,12.9754,1223,3058.73
13764,-5.3798,-1.1432,12.9443,1215,3058.73
13769,-1.0391,2.7019,8.2396,1214,3059.04
13774,3.0897,3.7888,8.995,1213,3059.04
13779,-0.6548,0.4154,13.2878,1224,3059.04
13784,-5.636,-0.7817,12.6366,1215,3059.04
13789,-0.3448,2.9149,8.1139,1213,3058.73
13794,3.2238,3.7745,9.2344,1223,3058.73
13799,-1.0247,0.0934,13.611,1225,3058.73
13804,-5.8107,-0.3615,12.3002,1225,3058.73
13809,0.2682,3.0406,8.0266,1212,3058.57
13814,3.3866,3.6703,9.4008,1225,3058.57
13819,-1.3886,-0.3268,13.7918,1223,3058.57
13824,-5.9376,0.0814,11.9135,1222,3058.57
13829,0.8152,3.1089,7.9918,1224,3058.57
13834,3.4895,3.5638,9.7013,1223,3058.57
13839,-1.7729,-0.6991,13.8876,1221,3058.57
13844,-5.9999,0.5195,11.576,1223,3058.57
13849,1.2785,3.2154,8.0098,1223,3058.88
13854,3.5314,3.3615,10.0556,1229,3058.88
13859,-2.1644,-1.0606,14.0588,1221,3058.88
13864,-5.8562,0.9206,11.1211,1223,3058.88
13869,1.6209,3.2836,8.0924,1221,3058.88
13874,3.4261,3.1089,10.337,1223,3058.88
13879,-2.6025,-1.4269,14.0444,1224,3058.88
13884,-5.6336,1.3527,10.6614,1227,3058.88
13889,1.8783,3.4165,8.1463,1215,3058.57
13894,3.1149,2.7557,10.7332,1215,3058.57
13899,-3.0167,-1.6831,14.0863,1223,3058.57
13904,-5.211,1.6245,10.2256,1229,3058.57
13909,2.1165,3.5303,8.1965,1216,3058.73
13914,2.6695,2.4409,11.1175,1225,3058.73
13919,-3.541,-1.9058,13.8756,1215,3058.73
13924,-4.6735,1.9656,9.7719,1215,3058.73
13929,2.2817,3.5614,8.3582,1225,3059.04
13934,2.1452,2.1105,11.5724,1225,3059.04
13939,-3.9337,-1.9597,13.799,1211,3059.04
13944,-4.0139,2.1105,9.3697,1223,3058.88
13949,2.381,3.6583,8.406,1214,3058.88
13954,1.5311,1.7107,11.9183,1231,3058.88
13959,-4.3275,-1.907,13.7068,1224,3058.88
13964,-3.2753,2.3176,8.9842,1223,3058.73
13969,2.5774,3.7242,8.5162,1221,3058.73
13974,0.8655,1.4461,12.3277,1223,3058.73
13979,-4.6938,-1.7322,13.4015,1229,3058.73
13984,-2.4768,2.4517,8.6431,1225,3058.42
13989,2.7114,3.7709,8.7137,1223,3058.42
13994,0.2454,1.0187,12.6653,1223,3058.42
13999,-4.063,-1.98,13.7319,1223,3058.42
14004,-1.6843,2.5678,8.406,1215,3058.26
14009,2.873,3.8164,8.7879,1223,3058.26
14014,1.2474,1.6017,12.0728,1215,3058.26
14019,-4.464,-1.8986,13.5033,1221,3058.26
14024,-2.9365,2.3487,8.8454,1213,3058.26
14029,2.5666,3.6799,8.6287,1214,3058.26
14034,0.5614,1.1899,12.4953,1231,3058.26
14039,-4.8183,-1.725,13.2531,1223,3058.26
14044,-2.1967,2.5283,8.5234,1215,3058.42
14049,2.7306,3.7409,8.7628,1215,3058.42
14054,0.0802,0.917,12.8245,1225,3058.42
14059,-5.1571,-1.421,13.0664,1223,3058.42
14064,-1.4042,2.6432,8.3258,1212,3057.95
14069,2.8706,3.7529,8.9639,1223,3057.95
14074,-0.3555,0.559,13.1466,1213,3057.95
14079,-5.4755,-1.075,12.8078,1223,3057.95
14084,-0.6991,2.7378,8.1547,1225,3058.57
14089,3.128,3.7589,9.1387,1221,3058.57
14094,-0.7649,0.2502,13.4518,1222,3058.57
14099,-5.7353,-0.5962,12.396,1224,3058.57
14104,-0.0874,2.879,8.0601,1225,3057.95
14109,3.2609,3.6907,9.2751,1227,3057.95
14114,-1.1169,-0.152,13.708,1215,3057.95
14119,-5.9077,-0.1975,12.1123,1222,3057.95
14124,0.4944,3.0347,8.0146,1212,3057.79
14129,3.4309,3.6033,9.5457,1222,3057.79
14134,-1.5048,-0.4729,13.8181,1223,3057.79
14139,-6.0226,0.2442,11.7136,1225,3057.79
14144,1.0283,3.1424,7.9835,1221,3057.48
14149,3.5015,3.456,9.8414,1215,3057.48
14154,-1.9142,-0.8823,13.9127,1222,3057.48
14159,-6.013,0.6584,11.3365,1229,3057.48
14164,1.3527,3.2094,8.0254,1223,3057.48
14169,3.4644,3.2154,10.1754,1223,3057.48
14174,-2.3164,-1.2905,13.9953,1215,3057.48
14179,-5.8538,1.087,10.9032,1223,3057.48
14184,1.6855,3.31,8.1139,1227,3057.79
14189,3.2992,2.9592,10.5405,1225,3057.79
14194,-2.788,-1.579,14.0599,1213,3057.79
14199,-5.5115,1.4281,10.4675,1227,3058.26
14204,1.8603,3.389,8.1906,1214,3058.26
14209,2.9078,2.6384,10.9008,1223,3058.26
14214,-3.2477,-1.8148,13.9989,1225,3058.26
14219,-5.0434,1.7154,10.0556,1223,3057.95
14224,2.0937,3.4728,8.2899,1215,3057.95
14229,2.4421,2.2721,11.3234,1215,3057.95
14234,-3.705,-1.9477,13.8648,1226,3057.95
14239,-4.4664,1.919,9.6331,1225,3057.79
14244,2.2565,3.5159,8.3809,1223,3057.79
14249,1.8112,1.9417,11.6957,1213,3057.79
14254,-4.1013,-1.9836,13.7104,1215,3057.79
14259,-3.7876,2.1895,9.2763,1215,3057.95
14264,2.3463,3.626,8.5736,1222,3057.95
14269,1.245,1.6412,12.0895,1212,3057.95
14274,-4.4867,-1.9034,13.5404,1214,3057.95
14279,-3.073,2.3296,8.8741,1215,3057.95
14284,2.472,3.6883,8.6933,1223,3057.95
14289,0.6225,1.2653,12.4546,1215,3057.95
14294,-4.8471,-1.6999,13.38,1208,3057.95
14299,-2.3236,2.5319,8.5964,1214,3058.57
14304,2.6456,3.7912,8.8346,1215,3058.57
14309,0.091,0.9768,12.8042,1214,3058.57
14314,-5.1942,-1.3815,13.0999,1223,3058.57
14319,-1.5838,2.5977,8.3163,1213,3058.42
14324,2.8479,3.7589,8.849,1215,3058.42
14329,-0.3603,0.6309,13.1454,1213,3058.42
14334,-5.5366,-1.0475,12.8006,1223,3058.42
14339,-0.7542,2.8012,8.2229,1222,3058.26
14344,3.0538,3.8032,9.0477,1213,3058.26
14349,-0.7901,0.3148,13.4207,1212,3058.26
14354,-5.7712,-0.6321,12.5241,1214,3058.26
14359,-0.1676,2.8754,8.1008,1223,3058.26
14364,3.219,3.7685,9.2799,1221,3058.26
14369,-1.1911,-0.0622,13.7164,1209,3058.26
14374,-5.9927,-0.2023,12.2044,1215,3058.26
14379,0.4992,3.0335,8.0146,1213,3058.26
14384,3.4069,3.6236,9.5445,1215,3058.26
14389,-1.5838,-0.4357,13.787,1214,3058.26
14394,-5.9759,0.255,11.7926,1199,3058.26
14399,0.9625,3.1352,8.0302,1215,3057.95
14404,3.4584,3.456,9.8737,1215,3057.95
14409,-1.9417,-0.838,14.0157,1215,3057.95
14414,-5.9807,0.7015,11.3772,1227,3057.95
14419,1.318,3.2154,8.0421,1229,3058.42
14424,3.4608,3.2561,10.1155,1223,3058.42
14429,-2.3619,-1.2007,14.1174,1213,3058.42
14434,-5.8323,1.1001,10.9762,1227,3058.42
14439,1.6544,3.377,8.0852,1227,3058.73
14444,3.2406,2.988,10.5153,1223,3058.73
14449,-2.7892,-1.5514,14.0887,1213,3058.73
14454,-5.4923,1.4545,10.5165,1222,3058.73
14459,1.8986,3.4369,8.1642,1215,3058.73
14464,2.9042,2.6935,10.9188,1227,3058.73
14469,-3.298,-1.7609,14.0384,1223,3058.73
14474,-5.0733,1.7406,10.0928,1223,3059.04
14479,2.0614,3.5015,8.2193,1221,3059.04
14484,2.4217,2.3583,11.3365,1223,3059.04
14489,-3.7302,-1.9046,13.9091,1227,3059.04
14494,-4.4999,2.0147,9.6702,1226,3058.73
14499,2.2314,3.5578,8.4001,1225,3058.73
14504,1.8926,1.9836,11.7076,1215,3058.73
14509,-4.0857,-1.9297,13.7691,1222,3058.73
14514,-3.8535,2.2146,9.2584,1215,3058.42
14519,2.375,3.6799,8.503,1222,3058.42
14524,1.2258,1.6376,12.0416,1221,3058.42
14529,-4.5083,-1.8627,13.5787,1207,3058.42
14534,-3.0586,2.3547,8.8729,1221,3058.57
14539,2.5355,3.7517,8.6084,1221,3058.57
14544,0.6009,1.2689,12.4762,1215,3058.57
14549,-4.8674,-1.6903,13.3716,1213,3058.57
14554,-2.2577,2.5007,8.576,1215,3058.26
14559,2.6935,3.796,8.764,1221,3058.26
14564,0.1077,0.9888,12.8664,1225,3058.26
14569,-5.1607,-1.3467,13.0676,1229,3058.26
14574,-1.5024,2.6635,8.4025,1215,3058.42
14579,2.9137,3.8523,8.9244,1223,3058.42
14584,-0.3915,0.6752,13.131,1213,3058.42
14589,-5.4708,-1.0283,12.7587,1223,3058.42
14594,-0.8176,2.745,8.1714,1224,3058.1
14599,3.1268,3.8415,9.0884,1224,3058.1
14604,-0.7997,0.3065,13.4279,1214,3058.1
14609,-5.7018,-0.6357,12.4726,1213,3058.1
14614,-0.1281,2.9305,8.0804,1225,3058.26
14619,3.298,3.7781,9.3398,1223,3058.26
14624,-1.166,0.0012,13.6541,1211,3058.26
14629,-5.8754,-0.1604,12.159,1213,3058.26
14634,0.4633,3.0239,8.0098,1211,3058.57
14639,3.4237,3.6595,9.5517,1213,3058.57
14644,-1.5167,-0.419,13.8313,1215,3058.57
14649,-5.9699,0.2849,11.7196,1213,3058.57
14654,0.9924,3.1591,8.0601,1213,3058.73
14659,3.5123,3.4824,9.8665,1213,3058.73
14664,-1.8591,-0.7925,13.9857,1213,3058.73
14669,-5.9568,0.7039,11.3473,1223,3058.73
14674,1.3384,3.2813,8.0002,1215,3058.73
14679,3.4536,3.2178,10.143,1221,3058.73
14684,-2.3224,-1.2282,14.0456,1211,3058.73
14689,-5.8012,1.1313,10.9176,1223,3058.73
14694,1.7406,3.3926,8.0948,1224,3058.42
14699,3.3291,3.0167,10.5297,1221,3058.42
14704,-2.7797,-1.482,14.0312,1205,3058.42
14709,-5.5222,1.4246,10.5129,1215,3058.57
14714,1.9297,3.401,8.1786,1215,3058.57
14719,2.9712,2.6324,10.8781,1227,3058.57
14724,-3.2262,-1.7753,14.0192,1215,3058.57
14729,-5.0649,1.725,10.064,1215,3058.26
14734,2.1177,3.5123,8.2983,1224,3058.26
14739,2.5379,2.3355,11.2863,1223,3058.26
14744,-3.6715,-1.8783,13.89,1224,3058.26
14749,-4.4831,1.992,9.5876,1223,3057.79
14754,2.2505,3.6021,8.3761,1224,3057.79
14759,1.8878,1.9237,11.6382,1213,3057.79
14764,-4.0438,-1.9752,13.8217,1222,3057.79
14769,-3.7505,2.1871,9.2572,1216,3057.95
14774,2.411,3.7122,8.5736,1223,3057.95
14779,1.3072,1.6137,12.0117,1213,3057.95
14784,-4.4819,-1.816,13.5428,1213,3057.95
14789,-3.0251,2.3679,8.91,1212,3058.42
14794,2.5498,3.7685,8.6,1223,3058.42
14799,0.6476,1.2629,12.4175,1215,3058.42
14804,-4.7884,-1.6975,13.392,1213,3058.42
14809,-2.2601,2.5235,8.594,1214,3058.42
14814,2.7617,3.7948,8.7053,1221,3058.42
14819,0.1317,0.984,12.7503,1223,3058.42
14824,-5.1631,-1.409,13.0173,1222,3058.42
14829,-1.4796,2.6408,8.339,1213,3058.57
14834,2.9688,3.8116,8.9304,1221,3058.57
14839,-0.3639,0.65,13.1322,1213,3058.57
14844,-5.4432,-1.0391,12.797,1222,3058.57
14849,-0.7721,2.7749,8.1223,1222,3058.42
14854,3.1316,3.7757,9.1004,1215,3058.42
14859,-0.7853,0.2789,13.3573,1214,3058.42
14864,-5.6683,-0.589,12.4343,1213,3058.42
14869,-0.0862,2.8994,8.0242,1225,3058.73
14874,3.3255,3.7445,9.3099,1223,3058.73
14879,-1.087,-0.079,13.623,1221,3058.73
14884,-5.8419,-0.1772,12.1326,1213,3058.73
14889,0.5231,3.0179,8.0194,1213,3059.04
14894,3.5015,3.5901,9.5086,1215,3059.04
14899,-1.4485,-0.4645,13.8229,1213,3059.04
14904,-6.0202,0.2478,11.71,1213,3059.04
14909,1.0056,3.1735,8.0014,1215,3059.04
14914,3.5733,3.4596,9.8485,1213,3059.04
14919,-1.8747,-0.8428,13.9821,1215,3059.04
14924,-5.9508,0.6788,11.3641,1224,3059.04
14929,1.415,3.2453,8.0673,1211,3058.57
14934,3.5087,3.2417,10.1586,1221,3058.57
14939,-2.3475,-1.1935,14.0109,1211,3058.57
14944,-5.794,1.0642,10.9092,1223,3058.57
14949,1.7214,3.322,8.0756,1223,3057.79
14954,3.3483,2.9676,10.5536,1221,3057.79
14959,-2.7869,-1.5526,13.9678,1213,3057.79
14964,-5.5043,1.4078,10.4615,1221,3057.79
14969,1.9441,3.4022,8.181,1214,3057.32
14974,2.9928,2.6384,10.9164,1226,3057.32
14979,-3.201,-1.7561,13.9869,1213,3057.32
14984,-5.0601,1.7107,10.0389,1213,3057.01
14989,2.1296,3.5338,8.3055,1207,3057.01
14994,2.4684,2.2637,11.3066,1225,3057.01
14999,-3.5937,-1.9417,13.8493,1224,3057.01
15004,-4.4784,1.9429,9.5864,1213,3057.32
15009,2.308,3.6045,8.3869,1213,3057.32
15014,1.8794,1.9166,11.7124,1213,3057.32
15019,-4.0115,-2.0099,13.6924,1213,3057.32
15024,-3.7888,2.1356,9.244,1213,3057.17
15029,2.3978,3.7002,8.5222,1223,3057.17
15034,1.2953,1.634,12.0428,1215,3057.17
15039,-4.4053,-1.9309,13.5404,1215,3057.17
15044,-3.0658,2.3056,8.8909,1215,3057.79
15049,2.5534,3.6907,8.673,1215,3057.79
15054,0.7147,1.33,12.3984,1214,3057.79
15059,-4.7465,-1.7573,13.2782,1222,3057.79
15064,-2.3164,2.4756,8.6335,1213,3057.95
15069,2.6719,3.7457,8.8155,1222,3057.95
15074,0.2023,0.9541,12.73,1223,3057.95
15079,-5.0613,-1.4533,13.0424,1222,3057.95
15084,-1.5658,2.6217,8.3234,1212,3058.26
15089,2.8683,3.796,8.9411,1221,3058.26
15094,-0.243,0.5974,13.0939,1215,3058.26
15099,-5.4025,-1.0762,12.7563,1215,3058.26
15104,-0.7841,2.7605,8.1954,1221,3058.42
15109,3.1029,3.7613,9.1147,1215,3058.42
15114,-0.7099,0.2705,13.3728,1215,3058.42
15119,-5.6527,-0.6656,12.4606,1221,3058.42
15124,-0.1616,2.9209,8.163,1225,3058.57
15129,3.2597,3.6966,9.3039,1221,3058.57
15134,-1.0403,-0.067,13.6182,1223,3058.57
15139,-5.9077,-0.249,12.0895,1213,3058.57
15144,0.4872,3.0418,7.999,1213,3058.88
15149,3.456,3.6607,9.5385,1223,3058.88
15154,-1.3922,-0.431,13.8074,1221,3058.88
15159,-6.0035,0.1377,11.7663,1213,3058.88
15164,0.9661,3.1137,7.9703,1213,3059.04
15169,3.5099,3.4488,9.7947,1212,3059.04
15174,-1.8543,-0.8308,13.9019,1221,3059.04
15179,-5.9903,0.6273,11.3569,1223,3059.04
15184,1.3515,3.2118,8.0445,1213,3058.73
15189,3.4895,3.2621,10.2077,1212,3058.73
15194,-2.2434,-1.2594,14.0085,1213,3058.73
15199,-5.8335,1.0283,10.8984,1225,3058.73
15204,1.6783,3.3124,8.1187,1221,3058.26
15209,3.3076,2.9269,10.4303,1213,3058.26
15214,-2.7174,-1.5131,14.0468,1213,3058.26
15219,-5.5749,1.3731,10.5046,1212,3058.26
15224,1.9561,3.4333,8.2265,1215,3057.95
15229,2.988,2.6384,10.8661,1216,3057.95
15234,-3.1699,-1.7849,14.0181,1211,3057.95
15239,-5.1272,1.6879,10.0126,1214,3057.95
15244,2.1045,3.4656,8.2732,1213,3057.95
15249,2.5067,2.2541,11.2468,1215,3057.95
15254,-3.6224,-1.9836,13.872,1223,3057.95
15259,-4.5298,1.9405,9.657,1210,3057.95
15264,2.2541,3.559,8.424,1222,3057.95
15269,1.9094,2.0039,11.6729,1211,3057.95
15274,-4.0247,-1.9597,13.7343,1221,3057.95
15279,-3.8199,2.1644,9.2656,1223,3057.95
15284,2.3846,3.5889,8.5413,1213,3057.95
15289,1.3539,1.6388,12.05,1215,3057.95
15294,-4.4388,-1.9154,13.532,1213,3057.95
15299,-3.1304,2.3068,8.8262,1221,3058.1
15304,2.5319,3.7062,8.7221,1229,3058.1
15309,0.68,1.306,12.3625,1211,3058.1
15314,-4.7836,-1.7262,13.3261,1215,3058.1
15319,-2.3284,2.4193,8.5832,1213,3057.95
15324,2.6372,3.735,8.8119,1215,3057.95
15329,0.1772,0.9313,12.6941,1223,3057.95
15334,-5.1116,-1.5107,13.0616,1225,3057.95
15339,-1.5706,2.6097,8.3869,1222,3057.79
15344,2.8287,3.7828,8.9651,1223,3057.79
15349,-0.2622,0.6596,13.0472,1213,3057.79
15354,-5.4312,-1.0894,12.809,1227,3057.79
15359,-0.8092,2.7605,8.2253,1222,3057.95
15364,3.0227,3.8044,9.0896,1223,3057.95
15369,-0.6823,0.2813,13.3249,1211,3057.95
15374,-5.6671,-0.741,12.4606,1224,3057.95
15379,-0.1712,2.8814,8.09,1227,3057.79
15384,3.2226,3.7637,9.2883,1224,3057.79
15389,-1.0355,-0.0275,13.6242,1216,3057.79
15394,-5.9256,-0.2921,12.1925,1222,3057.79
15399,0.4058,2.9784,8.0062,1215,3058.42
15404,3.3902,3.6643,9.5888,1225,3058.42
15409,-1.4174,-0.4752,13.7774,1214,3058.42
15414,-5.9795,0.1568,11.8166,1211,3058.42
15419,0.9242,3.0825,7.9978,1221,3058.42
15424,3.4991,3.5207,9.7983,1215,3058.42
15429,-1.8256,-0.7925,13.9438,1224,3058.42
15434,-6.013,0.6141,11.382,1225,3058.42
15439,1.3048,3.1975,8.084,1221,3058.57
15444,3.456,3.2358,10.1215,1213,3058.57
15449,-2.2721,-1.2055,14.0623,1213,3058.57
15454,-5.867,1.0008,10.9403,1230,3058.57
15459,1.634,3.3255,8.1379,1223,3058.42
15464,3.2825,2.9676,10.4722,1223,3058.42
15469,-2.7605,-1.561,14.0037,1215,3058.42
15474,-5.5725,1.3671,10.495,1222,3058.42
15479,1.8986,3.3926,8.1726,1223,3058.1
15484,2.9592,2.6911,10.8972,1223,3058.1
15489,-3.1987,-1.8088,14.0252,1209,3058.1
15494,-5.1475,1.6855,10.0916,1215,3057.79
15499,2.047,3.4477,8.2815,1215,3057.79
15504,2.4936,2.3942,11.2695,1223,3057.79
15509,-3.6476,-1.962,13.9175,1215,3057.79
15514,-4.5322,1.9477,9.7121,1221,3058.57
15519,2.2338,3.5362,8.4048,1221,3058.57
15524,1.9237,2.0004,11.6897,1213,3058.57
15529,-4.0175,-2.0099,13.6769,1213,3058.57
15534,-3.9097,2.15,9.2991,1224,3058.1
15539,2.3391,3.6248,8.5641,1221,3058.1
15544,1.33,1.6592,12.0165,1222,3058.1
15549,-4.4305,-1.9046,13.5344,1211,3058.1
15554,-3.1903,2.3176,8.9447,1222,3058.1
15559,2.4409,3.7014,8.6921,1226,3058.1
15564,0.6812,1.3396,12.3672,1213,3058.1
15569,-4.7297,-1.7466,13.3573,1213,3058.1
15574,-2.3846,2.4636,8.6143,1215,3058.1
15579,2.6061,3.7888,8.7867,1223,3058.1
15584,0.1784,0.9852,12.7467,1212,3058.1
15589,-5.1511,-1.4676,13.0867,1215,3058.1
15594,-1.6101,2.6157,8.4527,1215,3058.57
15599,2.7964,3.7781,8.9316,1223,3058.57
15604,-0.3256,0.668,13.1154,1214,3058.57
15609,-5.4911,-1.1085,12.8174,1223,3058.57
15614,-0.9266,2.7294,8.2037,1215,3058.26
15619,2.97,3.7936,9.0896,1223,3058.26
15624,-0.7171,0.3519,13.3549,1211,3058.26
15629,-5.7341,-0.6943,12.536,1216,3058.26
15634,-0.2203,2.8934,8.0732,1226,3058.88
15639,3.213,3.7924,9.3218,1224,3058.88
15644,-1.0487,-0.0215,13.5548,1221,3058.88
15649,-5.9544,-0.261,12.1314,1210,3058.88
15654,0.4166,2.9796,8.0002,1223,3058.88
15659,3.3698,3.6559,9.578,1225,3058.88
15664,-1.4904,-0.4393,13.8169,1211,3058.88
15669,-6.0118,0.2059,11.7639,1215,3058.88
15674,0.905,3.1568,8.0756,1213,3058.88
15679,3.4273,3.5003,9.7444,1213,3058.88
15684,-1.8699,-0.7973,13.9785,1210,3058.88
15689,-6.043,0.6321,11.4012,1223,3058.88
15694,1.3001,3.2645,8.0613,1215,3058.88
15699,3.4417,3.2872,10.137,1215,3058.88
15704,-2.3116,-1.2115,14.0983,1211,3058.88
15709,-5.8897,1.0271,10.9642,1221,3058.88
15714,1.6496,3.3974,8.169,1221,3058.57
15719,3.2669,3.0538,10.4986,1221,3058.57
15724,-2.7677,-1.4772,14.0528,1213,3058.57
15729,-5.5964,1.4353,10.5764,1215,3058.57
15734,1.8747,3.4153,8.2097,1223,3058.57
15739,2.9748,2.7402,10.8697,1225,3058.57
15744,-3.2262,-1.7238,14.0085,1207,3058.57
15749,-5.1439,1.7609,10.1335,1213,3059.04
15754,2.0865,3.5326,8.3187,1215,3059.04
15759,2.4852,2.3643,11.2372,1224,3059.04
15764,-3.6823,-1.9465,13.9307,1222,3059.04
15769,-4.555,1.9824,9.6594,1213,3058.57
15774,2.1943,3.6057,8.4527,1221,3058.57
15779,1.8567,1.9932,11.6227,1212,3058.57
15784,-4.0677,-1.9764,13.8325,1225,3058.57
15789,-3.8714,2.1572,9.25,1215,3059.35
15794,2.3523,3.7146,8.4886,1215,3059.35
15799,1.2653,1.6364,12.0416,1213,3059.35
15804,-4.4628,-1.8495,13.5548,1213,3059.35
15809,-3.1161,2.3523,8.8693,1213,3058.57
15814,2.5211,3.7637,8.6598,1225,3058.57
15819,0.6201,1.2989,12.4475,1209,3058.57
15824,-4.8255,-1.6747,13.3991,1229,3058.57
15829,-2.3631,2.4948,8.6658,1211,3058.42
15834,2.6647,3.7924,8.7951,1215,3058.42
15839,0.1389,0.9828,12.7647,1222,3058.42
15844,-5.1822,-1.3791,13.1238,1211,3058.42
15849,-1.5814,2.6624,8.3606,1210,3058.57
15854,2.9006,3.8654,8.9459,1213,3058.57
15859,-0.3723,0.6776,13.0568,1211,3058.57
15864,-5.4815,-1.0523,12.8605,1213,3058.57
15869,-0.8104,2.7414,8.1547,1212,3058.42
15874,3.0837,3.8439,9.1111,1221,3058.42
15879,-0.7614,0.3148,13.4363,1211,3058.42
15884,-5.6982,-0.6225,12.5289,1221,3058.42
15889,-0.1592,2.9257,8.0936,1215,3058.57
15894,3.237,3.7781,9.3051,1215,3058.57
15899,-1.1253,-0.0227,13.6098,1215,3058.57
15904,-5.9077,-0.182,12.1362,1212,3058.57
15909,0.4896,3.0514,8.0421,1207,3058.57
15914,3.3794,3.7014,9.5313,1224,3058.57
15919,-1.5467,-0.4334,13.9007,1215,3058.57
15924,-5.9771,0.2298,11.7675,1213,3058.57
15929,0.9685,3.1663,8.0026,1212,3058.42
15934,3.462,3.5099,9.833,1215,3058.42
