timestamp_ms,ax,ay,az,acs_adc,rpm
9004,-1.8723,0.3412,11.7831,1402,2800.47
19009,-2.8898,-0.6823,11.746,1400,2800.47
19014,-0.498,2.2924,9.6175,1405,2800.86
19019,1.1516,3.8666,10.0676,1405,2800.86
19024,-2.0782,1.4593,11.309,1399,2800.86
19029,-2.3248,-1.2139,12.1649,1399,2800.86
19034,-1.8172,1.7226,9.8378,1398,2800.86
19039,1.0403,3.6368,10.1023,1397,2800.73
19044,-0.3472,2.4062,10.7859,1400,2800.73
19049,-1.6089,-1.1839,12.1721,1401,2800.73
19054,-2.7438,0.747,10.4531,1396,2800.73
19059,0.6512,3.037,9.9323,1403,2800.73
19064,1.1756,3.2262,10.3513,1401,2800.73
19069,-1.4724,-0.316,11.9351,1393,2800.73
19074,-3.0131,-0.2322,11.3988,1407,2800.73
19079,-0.0215,2.5594,9.7528,1403,2800.6
19084,1.221,3.8319,10.1359,1407,2800.6
19089,-2.162,0.9457,11.546,1401,2800.6
19094,-2.6875,-0.8679,12.0081,1397,2800.6
19099,-1.0714,2.0973,9.6666,1399,2800.86
19104,1.1887,3.8427,10.0437,1391,2800.86
19109,-1.4138,1.9285,11.084,1403,2800.86
19114,-1.9309,-1.3156,12.2332,1397,2800.86
19119,-2.3236,1.2103,10.0473,1403,2800.86
19124,0.8284,3.2633,9.985,1398,2801.12
19129,0.5028,2.7414,10.5261,1403,2801.12
19134,-1.4581,-0.9469,12.1242,1399,2801.12
19139,-3.0107,0.255,10.9128,1397,2801.12
19144,0.4525,2.8359,9.8617,1392,2801.64
19149,1.2306,3.6595,10.3011,1399,2801.64
19154,-1.8842,0.3651,11.8429,1402,2801.64
19159,-2.891,-0.516,11.746,1399,2801.64
19164,-0.3747,2.3894,9.5996,1401,2802.17
19169,1.1959,3.8487,10.0533,1405,2802.17
19174,-2.1368,1.4497,11.2863,1399,2802.17
19179,-2.3164,-1.2151,12.1362,1399,2802.17
19184,-1.6951,1.6759,9.7839,1397,2802.17
19189,0.9804,3.5674,10.07,1399,2802.56
19194,-0.5519,2.2745,10.7847,1401,2802.56
19199,-1.7131,-1.2653,12.2308,1397,2802.56
19204,-2.7653,0.8045,10.4291,1395,2802.56
19209,0.741,3.1412,9.9527,1397,2802.82
19214,1.0642,3.2441,10.4447,1399,2802.82
19219,-1.5311,-0.3424,11.9722,1389,2802.82
19224,-3.0011,-0.1197,11.2803,1403,2802.82
19229,0.1233,2.6109,9.73,1400,2803.08
19234,1.2689,3.7972,10.167,1399,2803.08
19239,-2.144,0.82,11.5831,1391,2803.08
19244,-2.7533,-0.8978,11.9698,1399,2803.08
19249,-1.0056,2.1021,9.6379,1399,2803.08
19254,1.1528,3.8104,10.1107,1395,2803.08
19259,-1.6508,1.81,11.1247,1403,2803.08
19264,-1.6077,-1.1624,12.1613,1395,2803.08
19269,-2.2505,1.4234,10.0712,1401,2803.08
19274,0.6237,3.0299,9.918,1395,2803.08
19279,1.2222,3.2836,10.3489,1395,2803.08
19284,-1.506,-0.2418,11.8848,1395,2803.08
19289,-3.0825,-0.2909,11.4084,1391,2803.08
19294,-0.0311,2.5343,9.657,1397,2803.35
19299,1.2809,3.8319,10.1394,1397,2803.35
19304,-2.2649,1.0044,11.5999,1401,2803.35
19309,-2.7198,-0.8966,12.0069,1397,2803.35
19314,-1.1408,2.0602,9.681,1399,2803.74
19319,1.1576,3.8762,10.0293,1398,2803.74
19324,-1.3563,1.9345,11.0648,1390,2803.74
19329,-1.9357,-1.2965,12.2009,1398,2803.74
19334,-2.3212,1.2186,10.1035,1396,2803.87
19339,0.8954,3.2944,10.0257,1398,2803.87
19344,0.5878,2.7605,10.586,1399,2803.87
19349,-1.488,-0.9242,12.056,1389,2803.87
19354,-3.0323,0.2538,10.8852,1391,2803.87
19359,0.4489,2.806,9.8414,1385,2804.39
19364,1.2737,3.6679,10.2975,1399,2804.39
19369,-1.9369,0.3376,11.8381,1389,2804.39
19374,-2.9066,-0.4489,11.7448,1401,2804.39
19379,-0.3867,2.3715,9.6355,1396,2804.79
19384,1.2785,3.9193,10.07,1391,2804.79
19389,-2.1129,1.3791,11.3066,1391,2804.79
19394,-2.4014,-1.2031,12.141,1395,2804.79
19399,-1.6568,1.737,9.7887,1403,2804.79
19404,1.0475,3.5841,10.0868,1391,2804.79
19409,-0.5734,2.2134,10.8589,1401,2804.79
19414,-1.7502,-1.336,12.2164,1392,2804.79
19419,-2.7845,0.838,10.3825,1396,2804.79
19424,0.7278,3.1304,9.9096,1387,2805.05
19429,1.0654,3.2429,10.4244,1391,2805.05
19434,-1.5586,-0.395,12.0057,1389,2805.05
19439,-3.0227,-0.0275,11.2815,1390,2805.05
19444,0.2083,2.6635,9.6726,1397,2805.05
19449,1.3324,3.8295,10.1335,1391,2805.05
19454,-2.1261,0.7338,11.6047,1387,2805.05
19459,-2.7258,-0.8631,11.8812,1387,2805.05
19464,-0.8871,2.1117,9.6546,1388,2805.05
19469,1.1768,3.8271,10.1311,1399,2805.05
19474,-1.7693,1.7538,11.2085,1389,2805.05
19479,-2.1967,-1.2761,12.2332,1407,2805.05
19484,-2.1536,1.4593,9.9838,1413,2804.92
19489,0.9768,3.468,10.0353,1395,2804.92
19494,0.2658,2.6276,10.6614,1403,2804.92
19499,-1.5095,-1.0391,12.0967,1395,2804.92
19504,-2.8946,0.4669,10.744,1403,2804.92
19509,0.5267,2.8994,9.8533,1396,2804.39
19514,1.3132,3.4417,10.3513,1401,2804.39
19519,-1.6903,-0.0335,11.9124,1395,2804.39
19524,-3.043,-0.4453,11.5831,1395,2804.39
19529,-0.2227,2.4385,9.6869,1389,2804.13
19534,1.2175,3.9325,10.0892,1391,2804.13
19539,-2.3092,1.1971,11.4778,1397,2804.13
19544,-2.5666,-0.9804,12.0548,1391,2804.13
19549,-1.3587,1.9609,9.7624,1396,2803.87
19554,1.1636,3.7278,10.0485,1399,2803.87
19559,-0.9301,2.0937,10.9654,1391,2803.87
19564,-1.8112,-1.3563,12.1518,1389,2803.87
19569,-2.5522,0.996,10.2939,1388,2803.87
19574,0.7554,3.1017,9.9946,1389,2803.74
19579,0.8715,2.9676,10.501,1387,2803.74
19584,-1.5251,-0.7302,12.0261,1394,2803.74
19589,-3.0921,0.0946,11.1306,1389,2803.74
19594,0.2921,2.7258,9.7815,1398,2803.87
19599,1.3348,3.7362,10.1789,1391,2803.87
19604,-2.0566,0.6033,11.7124,1388,2803.87
19609,-2.8311,-0.6404,11.825,1395,2803.87
19614,-0.5926,2.2793,9.6139,1390,2804.0
19619,1.2653,3.8188,10.0281,1399,2804.0
19624,-1.9261,1.5335,11.2791,1389,2804.0
19629,-2.2924,-1.3048,12.1721,1395,2804.0
19634,-1.9549,1.494,9.8928,1389,2804.0
19639,0.9697,3.4812,10.0664,1385,2804.0
19644,-0.1484,2.4648,10.8397,1388,2804.0
19649,-1.6795,-1.2007,12.1278,1380,2804.0
19654,-2.9377,0.6883,10.562,1389,2804.0
19659,0.6201,3.0502,9.9204,1383,2803.87
19664,1.2318,3.3842,10.3154,1380,2803.87
19669,-1.6448,-0.1508,11.9183,1384,2803.87
19674,-3.0095,-0.2418,11.4215,1383,2803.87
19679,0.0215,2.5295,9.6474,1379,2804.13
19684,1.3204,3.8391,10.1059,1385,2804.13
19689,-2.2326,0.9529,11.4946,1388,2804.13
19694,-2.6827,-1.0008,11.9866,1387,2804.13
19699,-1.1863,1.9896,9.6522,1387,2804.26
19704,1.1253,3.7613,10.0676,1395,2804.26
19709,-1.3503,1.9549,11.1091,1388,2804.26
19714,-2.0327,-1.2689,12.2092,1391,2804.26
19719,-2.3882,1.2594,10.1658,1391,2804.26
19724,0.8871,3.3172,9.9994,1401,2804.13
19729,0.6847,2.8431,10.5465,1399,2804.13
19734,-1.494,-0.8966,12.1003,1395,2804.13
19739,-3.049,0.249,10.963,1392,2804.13
19744,0.3986,2.7318,9.7444,1397,2804.13
19749,1.3288,3.5841,10.2173,1397,2804.13
19754,-1.9154,0.2873,11.825,1403,2804.13
19759,-2.9604,-0.5686,11.7328,1405,2804.13
19764,-0.4286,2.3762,9.6474,1385,2804.26
19769,1.2127,3.9409,10.1083,1384,2804.26
19774,-2.156,1.4401,11.3749,1391,2804.26
19779,-2.3715,-1.1001,12.1206,1381,2804.26
19784,-1.6496,1.7681,9.7851,1372,2804.39
19789,1.1109,3.5973,10.0317,1388,2804.39
19794,-0.4513,2.2673,10.8386,1404,2804.39
19799,-1.6855,-1.3467,12.0907,1392,2804.39
19804,-2.7258,0.7805,10.4172,1403,2804.39
19809,0.7195,3.067,9.9671,1392,2804.39
19814,1.0235,3.2322,10.4148,1396,2804.39
19819,-1.585,-0.4298,11.9662,1391,2804.39
19824,-3.073,-0.0431,11.2875,1388,2804.39
19829,0.1748,2.6731,9.7456,1399,2804.52
19834,1.3396,3.8355,10.137,1395,2804.52
19839,-2.1548,0.8631,11.6238,1397,2804.52
19844,-2.7569,-0.8104,11.9183,1397,2804.52
19849,-0.8823,2.1308,9.6211,1403,2804.52
19854,1.1971,3.7529,10.07,1401,2804.52
19859,-1.6245,1.7502,11.1342,1397,2804.52
19864,-2.1225,-1.3827,12.208,1403,2804.52
19869,-2.1871,1.3779,10.0892,1415,2804.66
19874,0.9038,3.3806,10.0796,1401,2804.66
19879,0.2945,2.7066,10.6674,1415,2804.66
19884,-1.567,-1.0247,12.1302,1400,2804.66
19889,-2.9724,0.5064,10.7069,1396,2804.66
19894,0.6009,2.9137,9.8629,1401,2804.52
19899,1.3623,3.5063,10.2651,1419,2804.52
19904,-1.7454,0.0658,11.8405,1419,2804.52
19909,-2.9916,-0.4465,11.5688,1420,2804.52
19914,-0.1856,2.4241,9.645,1427,2804.66
19919,1.2474,3.8439,10.1071,1419,2804.66
19924,-2.2266,1.2079,11.491,1417,2804.66
19929,-2.6085,-1.0163,12.0177,1417,2804.66
19934,-1.4246,1.8914,9.7444,1422,2804.39
19939,1.0965,3.7098,10.0748,1426,2804.39
19944,-0.9146,2.1596,11.0277,1427,2804.39
19949,-1.8495,-1.2294,12.1805,1417,2804.39
19954,-2.5678,1.0499,10.2412,1421,2804.39
19959,0.8236,3.1699,10.0245,1417,2804.0
19964,0.9194,3.0095,10.4818,1419,2804.0
19969,-1.4617,-0.6823,12.0177,1420,2804.0
19974,-3.0442,-0.0156,11.1282,1421,2804.0
19979,0.2622,2.6731,9.8222,1423,2804.13
19984,1.2522,3.7206,10.1634,1417,2804.13
19989,-2.1129,0.571,11.6897,1415,2804.13
19994,-2.9305,-0.6788,11.8202,1419,2804.13
19999,-0.6656,2.2553,9.6582,1421,2803.61
20004,1.2378,3.8834,10.0892,1421,2803.61
20009,-1.9632,1.6197,11.2396,1408,2803.61
20014,-2.2589,-1.2115,12.1817,1421,2803.61
20019,-1.9333,1.6005,9.9252,1423,2803.61
20024,1.0391,3.48,10.0796,1405,2803.61
20029,0.0012,2.4229,10.6889,1407,2803.61
20034,-1.6113,-1.2438,12.1721,1405,2803.61
20039,-2.897,0.6321,10.6099,1421,2803.61
20044,0.6069,2.9868,9.9419,1408,2803.87
20049,1.1863,3.3471,10.2939,1415,2803.87
20054,-1.7214,-0.1496,11.9602,1417,2803.87
20059,-3.0311,-0.2263,11.4479,1415,2803.87
20064,-0.0335,2.5582,9.7169,1407,2804.26
20069,1.3384,3.8367,10.1143,1414,2804.26
20074,-2.2625,1.063,11.5173,1419,2804.26
20079,-2.6061,-0.9912,11.9973,1413,2804.26
20084,-1.1959,1.9896,9.6582,1417,2804.66
20089,1.1696,3.6931,10.1011,1419,2804.66
20094,-1.2785,1.9333,11.0241,1407,2804.66
20099,-2.0027,-1.4222,12.1709,1402,2804.66
20104,-2.4385,1.1971,10.1239,1403,2804.66
20109,0.8882,3.2825,10.0664,1406,2804.79
20114,0.6452,2.8934,10.574,1403,2804.79
20119,-1.5119,-0.8033,12.0883,1404,2804.79
20124,-3.0251,0.2897,10.993,1404,2804.79
20129,0.4298,2.8431,9.8078,1405,2804.66
20134,1.3659,3.6284,10.2675,1405,2804.66
20139,-1.9178,0.3472,11.7615,1399,2804.66
20144,-2.8922,-0.6153,11.6681,1417,2804.66
20149,-0.4082,2.3331,9.59,1433,2804.52
20154,1.2414,3.881,10.1586,1425,2804.52
20159,-2.1524,1.4413,11.3808,1421,2804.52
20164,-2.4157,-1.1468,12.1805,1423,2804.52
20169,-1.7238,1.7765,9.8055,1423,2804.39
20174,1.1013,3.5901,10.058,1413,2804.39
20179,-0.413,2.2996,10.7883,1419,2804.39
20184,-1.6879,-1.251,12.214,1413,2804.39
20189,-2.7617,0.826,10.4244,1425,2804.39
20194,0.7254,3.0754,9.9587,1417,2804.26
20199,1.1504,3.1759,10.337,1415,2804.26
20204,-1.5431,-0.3723,11.9854,1417,2804.26
20209,-3.0754,-0.1401,11.2923,1417,2804.26
20214,0.1173,2.5941,9.6953,1419,2804.52
20219,1.3012,3.8056,10.1945,1417,2804.52
20224,-2.2529,0.8128,11.6179,1418,2804.52
20229,-2.7282,-0.8272,11.9531,1419,2804.52
20234,-0.9158,2.1679,9.6103,1421,2804.66
20239,1.2486,3.8535,10.0856,1421,2804.66
20244,-1.6209,1.7945,11.0792,1414,2804.66
20249,-2.1009,-1.3276,12.2212,1421,2804.66
20254,-2.2075,1.3276,9.9479,1421,2804.13
20259,0.9541,3.3411,10.0473,1419,2804.13
20264,0.3579,2.63,10.7141,1405,2804.13
20269,-1.5598,-1.063,12.1015,1353,2804.13
20274,-2.976,0.4561,10.7416,1387,2804.13
20279,0.5602,2.9173,9.8737,1375,2805.31
20284,1.2809,3.5267,10.2999,1391,2805.31
20289,-1.8387,0.1389,11.8106,1370,2805.31
20294,-2.9544,-0.401,11.5987,1390,2805.31
20299,-0.1927,2.4828,9.5768,1389,2804.52
20304,1.3072,3.8774,10.1167,1369,2804.52
20309,-2.2051,1.2438,11.3832,1375,2804.52
20314,-2.5175,-1.1049,12.0907,1381,2804.52
20319,-1.4569,1.8447,9.7073,1383,2804.79
20324,1.0475,3.6547,10.1335,1385,2804.79
20329,-0.8835,2.0937,10.8888,1397,2804.79
20334,-1.9046,-1.3372,12.1757,1387,2804.79
20339,-2.6169,1.0283,10.3286,1395,2804.79
20344,0.8404,3.1999,10.0485,1387,2804.79
20349,0.9385,3.049,10.4627,1391,2804.79
20354,-1.561,-0.6297,12.0333,1389,2804.79
20359,-3.0622,0.0587,11.1654,1395,2804.79
20364,0.316,2.7007,9.736,1401,2805.31
20369,1.3443,3.7134,10.1634,1397,2805.31
20374,-2.0949,0.5698,11.6993,1395,2805.31
20379,-2.8659,-0.729,11.8812,1395,2805.31
20384,-0.6524,2.2505,9.5996,1395,2805.7
20389,1.2522,3.8882,10.0952,1401,2805.7
20394,-1.9872,1.5897,11.2396,1387,2805.7
20399,-2.3008,-1.2342,12.1817,1403,2805.7
20404,-1.9776,1.6005,9.8904,1400,2805.7
20409,1.0523,3.5614,10.1047,1391,2805.7
20414,-0.0694,2.4756,10.7703,1399,2805.7
20419,-1.6364,-1.172,12.153,1385,2805.7
20424,-2.879,0.6428,10.6015,1401,2805.7
20429,0.6081,2.9963,9.9024,1391,2805.7
20434,1.2402,3.3363,10.3382,1397,2805.7
20439,-1.7071,-0.2107,11.9231,1397,2805.7
20444,-3.0682,-0.2682,11.412,1397,2805.7
20449,0.0024,2.5594,9.7085,1391,2805.84
20454,1.3084,3.869,10.1658,1391,2805.84
20459,-2.2924,1.0092,11.4766,1400,2805.84
20464,-2.6887,-0.8871,11.9686,1395,2805.84
20469,-1.1217,2.0339,9.6522,1395,2805.31
20474,1.2306,3.8176,10.0748,1399,2805.31
20479,-1.3312,1.9166,10.9786,1394,2805.31
20484,-2.0195,-1.3252,12.208,1391,2805.31
20489,-2.3655,1.2294,10.1359,1389,2805.31
20494,0.9062,3.2825,10.0317,1395,2805.7
20499,0.6105,2.7569,10.5991,1395,2805.7
20504,-1.5586,-0.9086,12.0871,1399,2805.7
20509,-3.0358,0.2646,10.9152,1395,2805.7
20514,0.4741,2.794,9.8294,1402,2805.18
20519,1.3312,3.6488,10.2699,1401,2805.18
20524,-1.9357,0.328,11.7926,1396,2805.18
20529,-2.9413,-0.498,11.7005,1405,2805.18
20534,-0.3376,2.3715,9.5876,1401,2805.05
20539,1.2665,3.869,10.0748,1403,2805.05
20544,-2.1919,1.3647,11.2839,1398,2805.05
20549,-2.4086,-1.1935,12.129,1399,2805.05
20554,-1.6424,1.7262,9.833,1405,2804.92
20559,1.0942,3.6021,10.1119,1397,2804.92
20564,-0.559,2.2589,10.8517,1405,2804.92
20569,-1.8124,-1.2941,12.0955,1388,2804.92
20574,-2.7414,0.8739,10.4136,1399,2804.92
20579,0.7997,3.128,9.9778,1385,2805.18
20584,1.087,3.1723,10.471,1385,2805.18
20589,-1.5981,-0.4441,11.9878,1385,2805.18
20594,-3.0478,-0.0826,11.3138,1383,2805.18
20599,0.2526,2.6528,9.6869,1387,2805.31
20604,1.3827,3.8068,10.1406,1385,2805.31
20609,-2.2051,0.7266,11.6262,1389,2805.31
20614,-2.8084,-0.7973,11.9279,1389,2805.31
20619,-0.844,2.156,9.6498,1383,2805.57
20624,1.2186,3.8559,10.0724,1389,2805.57
20629,-1.7585,1.6891,11.169,1381,2805.57
20634,-2.2422,-1.2941,12.1661,1388,2805.57
20639,-2.0985,1.4281,10.0209,1388,2805.57
20644,1.0008,3.4812,10.0425,1386,2805.57
20649,0.2538,2.5833,10.6578,1395,2805.57
20654,-1.6125,-1.0786,12.1338,1383,2805.57
20659,-2.9652,0.4645,10.7524,1385,2805.57
20664,0.589,2.8718,9.8976,1379,2805.44
20669,1.2977,3.4177,10.2819,1387,2805.44
20674,-1.7968,-0.0299,11.8836,1381,2805.44
20679,-3.061,-0.3567,11.5592,1389,2805.44
20684,-0.1496,2.4744,9.6414,1388,2805.44
20689,1.2857,3.8786,10.082,1382,2805.44
20694,-2.3355,1.1935,11.491,1381,2805.44
20699,-2.6528,-0.984,12.0943,1379,2805.44
20704,-1.3408,1.9345,9.7121,1365,2804.79
20709,1.2043,3.7026,10.0497,1384,2804.79
20714,-1.0523,2.0243,10.9762,1388,2804.79
20719,-1.9178,-1.3982,12.0979,1381,2804.79
20724,-2.5426,1.0977,10.2041,1389,2804.79
20729,0.8583,3.1639,10.0257,1378,2805.84
20734,0.826,2.9951,10.5656,1385,2805.84
20739,-1.5897,-0.7638,12.0285,1387,2805.84
20744,-3.0682,0.1867,11.0947,1387,2805.84
20749,0.3759,2.7054,9.7648,1389,2805.84
20754,1.3683,3.7122,10.2065,1385,2805.84
20759,-2.1165,0.4549,11.6562,1385,2805.84
20764,-2.8838,-0.6045,11.7867,1385,2805.84
20769,-0.4776,2.3128,9.6738,1388,2806.1
20774,1.2833,3.8439,10.0784,1391,2806.1
20779,-2.0877,1.5024,11.3126,1386,2806.1
20784,-2.3367,-1.2617,12.0883,1391,2806.1
20789,-1.8603,1.6257,9.815,1395,2805.44
20794,1.0523,3.474,10.0652,1387,2805.44
20799,-0.2406,2.3882,10.829,1389,2805.44
20804,-1.7382,-1.2342,12.2104,1383,2805.44
20809,-2.8706,0.7661,10.5536,1395,2805.44
20814,0.7314,3.0514,9.9958,1385,2804.66
20819,1.2163,3.3339,10.3825,1386,2804.66
20824,-1.6735,-0.2873,11.9159,1388,2804.66
20829,-3.0239,-0.1604,11.3545,1389,2804.66
20834,0.1089,2.563,9.6726,1388,2803.87
20839,1.3144,3.8044,10.1035,1389,2803.87
20844,-2.2877,0.8918,11.5508,1392,2803.87
20849,-2.7366,-0.8835,11.989,1396,2803.87
20854,-1.0391,2.053,9.6534,1399,2804.0
20859,1.1995,3.784,10.0497,1405,2804.0
20864,-1.5107,1.8962,11.1175,1407,2804.0
20869,-2.0806,-1.3156,12.1877,1402,2804.0
20874,-2.2733,1.2953,10.0975,1391,2804.0
20879,0.9529,3.3399,10.0449,1400,2804.13
20884,0.5578,2.7402,10.647,1405,2804.13
20889,-1.6137,-0.9194,12.0596,1403,2804.13
20894,-3.0526,0.3364,10.8673,1404,2804.13
20899,0.492,2.8647,9.7923,1405,2804.52
20904,1.342,3.541,10.2771,1403,2804.52
20909,-1.913,0.1556,11.8046,1397,2804.52
20914,-3.0047,-0.4968,11.6346,1401,2804.52
20919,-0.3651,2.399,9.7037,1397,2804.66
20924,1.2761,3.9193,10.082,1405,2804.66
20929,-2.2098,1.3635,11.3569,1387,2804.66
20934,-2.466,-1.1133,12.0835,1391,2804.66
20939,-1.5347,1.804,9.7947,1390,2803.87
20944,1.1624,3.6105,10.0341,1385,2803.87
20949,-0.6333,2.1775,10.8613,1395,2803.87
20954,-1.7885,-1.3324,12.159,1386,2803.87
20959,-2.7521,0.9218,10.3418,1395,2803.87
20964,0.7578,3.128,9.9982,1383,2804.66
20969,1.0594,3.122,10.3908,1382,2804.66
20974,-1.6496,-0.5315,12.0213,1388,2804.66
20979,-3.1005,0.0275,11.1941,1389,2804.66
20984,0.249,2.7186,9.7683,1385,2804.26
20989,1.3132,3.8116,10.1634,1390,2804.26
20994,-2.223,0.7685,11.6777,1391,2804.26
20999,-2.8096,-0.7195,11.8369,1391,2804.26
21004,-0.7554,2.2326,9.6438,1391,2804.66
21009,1.2258,3.784,10.0784,1399,2804.66
21014,-1.7753,1.6807,11.1725,1388,2804.66
21019,-2.2063,-1.3575,12.1386,1395,2804.66
21024,-2.071,1.4964,10.003,1394,2804.66
21029,0.9888,3.4225,10.0616,1403,2804.79
21034,0.1377,2.5941,10.6877,1399,2804.79
21039,-1.6735,-1.0882,12.141,1396,2804.79
21044,-2.9305,0.5567,10.7081,1399,2804.79
21049,0.6488,2.9556,9.8869,1391,2804.79
21054,1.318,3.4872,10.3346,1400,2804.79
21059,-1.7825,-0.012,11.8513,1394,2804.79
21064,-3.0023,-0.419,11.5005,1407,2804.79
21069,-0.0886,2.5223,9.657,1405,2804.79
21074,1.2785,3.8235,10.1502,1397,2804.79
21079,-2.3068,1.0846,11.4826,1398,2804.79
21084,-2.6336,-1.0451,11.9914,1397,2804.79
21089,-1.3084,1.9668,9.657,1405,2805.05
21094,1.1516,3.717,10.1454,1401,2805.05
21099,-1.1109,2.053,10.9654,1403,2805.05
21104,-1.9405,-1.2833,12.2308,1396,2805.05
21109,-2.5271,1.1408,10.2137,1405,2805.05
21114,0.9194,3.2274,10.0269,1395,2805.18
21119,0.8655,2.897,10.5082,1396,2805.18
21124,-1.5071,-0.7853,12.0524,1392,2805.18
21129,-3.0658,0.1113,10.9702,1401,2805.18
21134,0.3567,2.7318,9.8533,1405,2805.44
21139,1.3324,3.6332,10.1945,1403,2805.44
21144,-2.0818,0.4681,11.7591,1395,2805.44
21149,-2.9844,-0.6249,11.7819,1399,2805.44
21154,-0.5387,2.3272,9.6822,1400,2805.97
21159,1.2749,3.8966,10.058,1401,2805.97
21164,-2.1177,1.5048,11.3198,1399,2805.97
21169,-2.3822,-1.16,12.1661,1407,2805.97
21174,-1.8076,1.6795,9.8485,1404,2806.1
21179,1.0977,3.5338,10.0987,1397,2806.1
21184,-0.2274,2.3379,10.7524,1407,2806.1
21189,-1.7358,-1.2929,12.1302,1398,2806.1
21194,-2.8635,0.735,10.4639,1406,2806.1
21199,0.7614,3.0071,10.0221,1398,2805.7
21204,1.1408,3.2825,10.4591,1404,2805.7
21209,-1.7526,-0.3029,11.9698,1401,2805.7
21214,-3.1077,-0.1113,11.3018,1402,2805.7
21219,0.1365,2.6324,9.6893,1397,2805.7
21224,1.2989,3.8595,10.1945,1405,2805.7
21229,-2.2948,0.8894,11.4802,1403,2805.7
21234,-2.7366,-0.8811,11.9794,1401,2805.7
21239,-0.9337,2.0937,9.6798,1400,2805.44
21244,1.2534,3.7445,10.1083,1402,2805.44
21249,-1.5407,1.7526,11.0696,1400,2805.44
21254,-2.1296,-1.3276,12.1578,1397,2805.44
21259,-2.2781,1.3084,10.0173,1399,2805.44
21264,0.9493,3.3579,10.137,1399,2805.31
21269,0.4178,2.7426,10.6219,1401,2805.31
21274,-1.6364,-0.9493,12.1458,1403,2805.31
21279,-3.0323,0.4058,10.8589,1400,2805.31
21284,0.5411,2.8826,9.8414,1405,2805.57
21289,1.3755,3.4848,10.2651,1400,2805.57
21294,-1.8914,0.152,11.7843,1397,2805.57
21299,-3.0047,-0.4968,11.6262,1405,2805.57
21304,-0.2442,2.4146,9.6055,1401,2805.84
21309,1.2989,3.8391,10.0916,1415,2805.84
21314,-2.2601,1.2354,11.4239,1397,2805.84
21319,-2.5798,-1.0762,12.0776,1404,2805.84
21324,-1.4832,1.8723,9.7671,1401,2805.97
21329,1.1756,3.6715,10.1394,1401,2805.97
21334,-0.7973,2.1416,10.9367,1407,2805.97
21339,-1.8675,-1.2414,12.1422,1401,2805.97
21344,-2.6863,1.0331,10.2759,1416,2805.97
21349,0.8583,3.1639,9.9719,1401,2805.84
21354,1.0714,3.0179,10.5141,1399,2805.84
21359,-1.585,-0.6081,12.0153,1401,2805.84
21364,-3.0957,-0.0036,11.139,1403,2805.84
21369,0.2837,2.6492,9.7121,1405,2806.36
21374,1.324,3.7266,10.246,1405,2806.36
21379,-2.1835,0.6009,11.7376,1417,2806.36
21384,-2.9341,-0.6871,11.8896,1403,2806.36
21389,-0.6967,2.2577,9.6247,1413,2806.75
21394,1.3216,3.9037,10.1694,1413,2806.75
21399,-1.9201,1.6556,11.1821,1399,2806.75
21404,-2.2673,-1.2582,12.1422,1407,2806.75
21409,-1.9872,1.4904,9.8677,1405,2807.02
21414,1.0846,3.4524,10.1347,1405,2807.02
21419,0.0227,2.4134,10.6913,1405,2807.02
21424,-1.7107,-1.2246,12.1625,1401,2807.02
21429,-2.9257,0.5878,10.5824,1401,2807.02
21434,0.723,2.9592,9.9156,1397,2806.89
21439,1.2175,3.4129,10.3825,1407,2806.89
21444,-1.7669,-0.1508,11.9315,1399,2806.89
21449,-3.0885,-0.1939,11.4395,1405,2806.89
21454,0.0682,2.6181,9.7264,1403,2805.97
21459,1.415,3.8942,10.1646,1403,2805.97
21464,-2.2733,1.002,11.5113,1399,2805.97
21469,-2.6468,-0.9613,12.0309,1401,2805.97
21474,-1.075,2.0219,9.6295,1407,2806.75
21479,1.2175,3.7637,10.1203,1407,2806.75
21484,-1.4114,1.8687,11.048,1415,2806.75
21489,-2.0782,-1.3204,12.1757,1404,2806.75
21494,-2.4361,1.2414,10.0808,1405,2806.75
21499,0.9242,3.3315,10.0461,1400,2806.23
21504,0.6189,2.8371,10.6279,1401,2806.23
21509,-1.6029,-0.8464,12.0404,1403,2806.23
21514,-3.0311,0.3077,10.9116,1403,2806.23
21519,0.5124,2.806,9.8366,1405,2806.1
21524,1.3803,3.5949,10.2891,1403,2806.1
21529,-1.9537,0.2538,11.7328,1399,2806.1
21534,-2.9676,-0.577,11.7064,1403,2806.1
21539,-0.3184,2.3715,9.5948,1405,2806.36
21544,1.2893,3.8966,10.1227,1413,2806.36
21549,-2.2577,1.3431,11.382,1402,2806.36
21554,-2.5079,-1.1133,12.1458,1416,2806.36
21559,-1.6245,1.8028,9.7815,1403,2806.62
21564,1.1744,3.6787,10.1382,1399,2806.62
21569,-0.5926,2.2326,10.9176,1403,2806.62
21574,-1.7873,-1.2582,12.1518,1399,2806.62
21579,-2.7019,0.8966,10.3717,1415,2806.62
21584,0.8296,3.1053,10.0066,1403,2807.15
21589,1.087,3.1041,10.4675,1403,2807.15
21594,-1.6245,-0.559,11.9997,1405,2807.15
21599,-3.128,-0.0275,11.2707,1403,2807.15
21604,0.237,2.624,9.7384,1416,2807.02
21609,1.3503,3.7721,10.1754,1407,2807.02
21614,-2.2553,0.6847,11.6657,1403,2807.02
21619,-2.8946,-0.7015,11.9124,1413,2807.02
21624,-0.729,2.2505,9.6379,1403,2807.28
21629,1.336,3.8559,10.1275,1407,2807.28
21634,-1.804,1.6556,11.2001,1400,2807.28
21639,-2.2146,-1.2677,12.1554,1403,2807.28
21644,-2.0363,1.482,9.8545,1403,2807.28
21649,1.0259,3.389,10.0425,1405,2807.28
21654,0.1257,2.5319,10.7536,1405,2807.28
21659,-1.6532,-1.1744,12.1099,1399,2807.28
21664,-2.9928,0.559,10.7272,1399,2807.28
21669,0.6716,2.9724,9.9288,1397,2806.89
21674,1.257,3.4058,10.3848,1403,2806.89
21679,-1.7933,-0.0347,11.8633,1397,2806.89
21684,-3.0418,-0.2394,11.4886,1407,2806.89
21689,0.0012,2.5402,9.6522,1403,2806.75
21694,1.4138,3.8642,10.1167,1401,2806.75
21699,-2.2841,1.0259,11.4958,1400,2806.75
21704,-2.624,-0.9457,12.0273,1403,2806.75
21709,-1.1887,1.986,9.6414,1405,2806.49
21714,1.2031,3.6739,10.0928,1400,2806.49
21719,-1.2402,1.9752,11.0492,1413,2806.49
21724,-1.9896,-1.3671,12.1793,1404,2806.49
21729,-2.4792,1.1768,10.1873,1413,2806.49
21734,0.9266,3.2956,10.0652,1401,2806.23
21739,0.7673,2.909,10.5955,1400,2806.23
21744,-1.6316,-0.7614,12.0452,1399,2806.23
21749,-3.0442,0.237,10.993,1405,2806.23
21754,0.4645,2.8012,9.845,1403,2806.23
21759,1.3946,3.6272,10.1969,1405,2806.23
21764,-2.0231,0.3352,11.7579,1401,2806.23
21769,-2.9401,-0.6309,11.7208,1404,2806.23
21774,-0.425,2.2817,9.6355,1405,2806.1
21779,1.2306,3.8247,10.0796,1407,2806.1
21784,-2.1739,1.4234,11.3952,1401,2806.1
21789,-2.4505,-1.1217,12.1111,1417,2806.1
21794,-1.7262,1.7083,9.8198,1417,2806.1
21799,1.1552,3.6224,10.064,1405,2806.1
21804,-0.3484,2.3092,10.8577,1417,2806.1
21809,-1.8004,-1.2617,12.1721,1401,2806.1
21814,-2.7821,0.8392,10.404,1415,2806.1
21819,0.8068,3.0765,9.9922,1405,2806.36
21824,1.1947,3.2226,10.4746,1417,2806.36
21829,-1.658,-0.4489,11.9339,1407,2806.36
21834,-3.1208,-0.1125,11.2551,1399,2806.36
21839,0.158,2.5905,9.7516,1403,2806.49
21844,1.3144,3.8367,10.2161,1405,2806.49
21849,-2.2769,0.7769,11.6622,1403,2806.49
21854,-2.8276,-0.7709,11.9375,1405,2806.49
21859,-0.8607,2.1452,9.6414,1407,2806.62
21864,1.2881,3.8403,10.0975,1415,2806.62
21869,-1.6592,1.743,11.1498,1403,2806.62
21874,-2.1548,-1.336,12.1757,1401,2806.62
21879,-2.1476,1.4102,9.9156,1405,2806.62
21884,1.0271,3.3651,10.0521,1403,2806.49
21889,0.3136,2.6348,10.6781,1403,2806.49
21894,-1.6759,-1.0977,12.1194,1415,2806.49
21899,-2.9868,0.5291,10.8098,1406,2806.49
21904,0.6129,2.9102,9.8845,1415,2806.62
21909,1.3168,3.5135,10.3274,1413,2806.62
21914,-1.8938,0.0359,11.813,1403,2806.62
21919,-3.0466,-0.2789,11.5664,1417,2806.62
21924,-0.0718,2.5103,9.663,1419,2806.62
21929,1.3527,3.8235,10.1155,1421,2806.62
21934,-2.326,1.1528,11.5137,1413,2806.62
21939,-2.6181,-1.0391,11.9435,1417,2806.62
21944,-1.3408,1.895,9.7145,1427,2806.49
21949,1.1552,3.6619,10.1143,1415,2806.49
21954,-1.0499,2.0853,11.0768,1422,2806.49
21959,-1.9872,-1.3156,12.1949,1415,2806.49
21964,-2.563,1.1181,10.2436,1425,2806.49
21969,0.9002,3.1807,10.0149,1416,2806.23
21974,0.9278,3.0023,10.5908,1404,2806.23
21979,-1.5945,-0.7111,12.0452,1415,2806.23
21984,-3.0646,0.1496,11.0229,1419,2806.23
21989,0.4274,2.7031,9.7707,1419,2806.23
21994,1.3767,3.6547,10.1837,1420,2806.23
21999,-2.0973,0.4573,11.7615,1421,2806.23
22004,-2.9317,-0.6644,11.7687,1417,2806.23
22009,-0.5519,2.2781,9.6355,1421,2806.1
22014,1.2486,3.8774,10.1227,1417,2806.1
22019,-2.0818,1.5179,11.3605,1413,2806.1
22024,-2.393,-1.1827,12.1123,1422,2806.1
22029,-1.8435,1.6891,9.8342,1419,2805.97
22034,1.1408,3.5961,10.1239,1419,2805.97
22039,-0.1844,2.3679,10.8457,1422,2805.97
22044,-1.67,-1.2294,12.1111,1407,2805.97
22049,-2.8144,0.7314,10.4459,1408,2805.97
22054,0.735,3.0239,9.9515,1404,2805.97
22059,1.2186,3.2406,10.404,1425,2805.97
22064,-1.7059,-0.2885,12.0021,1413,2805.97
22069,-3.128,-0.1784,11.4275,1419,2805.97
22074,0.1161,2.6169,9.7516,1418,2805.44
22079,1.3336,3.8259,10.0963,1417,2805.44
22084,-2.326,0.9254,11.5951,1399,2805.44
22089,-2.7713,-0.8559,11.9267,1414,2805.44
22094,-0.9565,2.1249,9.675,1429,2806.75
22099,1.3012,3.7852,10.0473,1421,2806.75
22104,-1.5383,1.8507,11.2013,1421,2806.75
22109,-2.0674,-1.3587,12.214,1407,2806.75
22114,-2.2721,1.306,10.0173,1415,2806.75
22119,0.9708,3.3172,10.0281,1407,2806.62
22124,0.4836,2.6995,10.6937,1407,2806.62
22129,-1.6293,-1.0008,12.0859,1415,2806.62
22134,-3.0418,0.4142,10.8014,1417,2806.62
22139,0.5555,2.897,9.9036,1419,2806.75
22144,1.3683,3.5554,10.3154,1416,2806.75
22149,-1.895,0.2047,11.8645,1417,2806.75
22154,-3.0035,-0.4142,11.5628,1415,2806.75
22159,-0.1987,2.484,9.6163,1421,2806.89
22164,1.3803,3.8295,10.1095,1420,2806.89
22169,-2.2745,1.2342,11.4024,1414,2806.89
22174,-2.5522,-1.0977,12.056,1418,2806.89
22179,-1.4772,1.8352,9.7013,1420,2806.75
22184,1.142,3.62,10.0987,1405,2806.75
22189,-0.8631,2.1392,10.9271,1413,2806.75
22194,-1.9477,-1.2953,12.1817,1405,2806.75
22199,-2.6635,1.0475,10.2412,1420,2806.75
22204,0.8906,3.1891,10.0712,1407,2807.81
22209,0.9493,3.0502,10.5261,1413,2807.81
22214,-1.5981,-0.6261,12.0321,1416,2807.81
22219,-3.0849,0.0479,11.0875,1407,2807.81
22224,0.3819,2.6803,9.742,1405,2807.67
22229,1.3934,3.6404,10.173,1415,2807.67
22234,-2.1584,0.565,11.7196,1417,2807.67
22239,-2.9532,-0.7254,11.7867,1417,2807.67
22244,-0.6189,2.2505,9.6522,1416,2808.07
22249,1.2725,3.8702,10.1514,1421,2808.07
22254,-2.0075,1.5383,11.2767,1407,2808.07
22259,-2.4002,-1.2629,12.1278,1414,2808.07
22264,-1.8974,1.6161,9.8462,1413,2808.07
22269,1.1289,3.5446,10.0784,1417,2807.67
22274,-0.0814,2.4588,10.7859,1417,2807.67
22279,-1.7202,-1.2031,12.2044,1405,2807.67
22284,-2.903,0.6572,10.4998,1407,2807.67
22289,0.7063,2.9628,9.912,1405,2807.94
22294,1.2558,3.286,10.4064,1415,2807.94
22299,-1.7166,-0.2717,11.9195,1407,2807.94
22304,-3.134,-0.1628,11.3653,1421,2807.94
22309,0.0946,2.5606,9.6379,1408,2807.67
22314,1.3695,3.8379,10.1861,1407,2807.67
22319,-2.3547,0.9278,11.5652,1415,2807.67
22324,-2.709,-0.8655,11.9878,1408,2807.67
22329,-1.0355,2.0626,9.5876,1420,2807.81
22334,1.2809,3.808,10.1359,1415,2807.81
22339,-1.5048,1.81,11.0397,1419,2807.81
22344,-2.0794,-1.3156,12.1817,1414,2807.81
22349,-2.3451,1.2617,9.9623,1419,2807.81
22354,1.008,3.3447,10.0724,1400,2808.2
22359,0.5387,2.7174,10.6279,1407,2808.2
22364,-1.6197,-0.9649,12.1254,1407,2808.2
22369,-3.0167,0.3962,10.8386,1404,2808.2
22374,0.5722,2.885,9.8809,1416,2807.94
22379,1.3743,3.5362,10.2436,1413,2807.94
22384,-1.9213,0.1867,11.8118,1405,2807.94
22389,-2.9808,-0.4381,11.6454,1417,2807.94
22394,-0.2298,2.4696,9.6019,1415,2807.54
22399,1.3527,3.8487,10.1359,1414,2807.54
22404,-2.2793,1.2749,11.3976,1407,2807.54
22409,-2.545,-1.1145,12.0847,1423,2807.54
22414,-1.4856,1.7657,9.681,1419,2807.41
22419,1.1995,3.6188,10.1143,1407,2807.41
22424,-0.7877,2.1644,10.9523,1407,2807.41
22429,-1.9369,-1.2833,12.1817,1403,2807.41
22434,-2.6624,0.9768,10.307,1421,2807.41
22439,0.8763,3.1747,9.9539,1415,2807.41
22444,0.9888,3.0658,10.5333,1415,2807.41
22449,-1.6041,-0.6129,11.9734,1419,2807.41
22454,-3.0538,0.0311,11.0636,1417,2807.41
22459,0.3316,2.6995,9.7588,1405,2807.15
22464,1.3934,3.7254,10.2316,1415,2807.15
22469,-2.1656,0.5578,11.6765,1418,2807.15
22474,-2.9209,-0.7278,11.8788,1417,2807.15
22479,-0.6081,2.2242,9.578,1420,2808.86
22484,1.2797,3.9014,10.1526,1422,2808.86
22489,-2.0219,1.5443,11.2432,1416,2808.86
22494,-2.3391,-1.1887,12.2116,1415,2808.86
22499,-1.9142,1.5862,9.8653,1417,2808.86
22504,1.1121,3.5398,10.1406,1419,2808.46
22509,-0.0527,2.4134,10.7583,1419,2808.46
22514,-1.7154,-1.1624,12.1314,1407,2808.46
22519,-2.9161,0.6847,10.5213,1416,2808.46
22524,0.7482,2.9987,9.9216,1414,2808.73
22529,1.2605,3.3124,10.3908,1407,2808.73
22534,-1.7633,-0.2753,11.8716,1413,2808.73
22539,-3.1304,-0.2514,11.3964,1429,2808.73
22544,0.0599,2.5714,9.7097,1417,2808.59
22549,1.3396,3.869,10.1981,1418,2808.59
22554,-2.3403,0.9254,11.5676,1415,2808.59
22559,-2.7473,-0.8571,11.971,1416,2808.59
22564,-1.0175,2.0961,9.6199,1429,2807.81
22569,1.3108,3.7733,10.0975,1419,2807.81
22574,-1.5024,1.8232,11.1366,1428,2807.81
22579,-2.1177,-1.3431,12.2344,1419,2807.81
22584,-2.3367,1.2713,10.0461,1421,2807.81
22589,1.0056,3.31,10.0341,1406,2808.46
22594,0.4513,2.7258,10.659,1417,2808.46
22599,-1.6197,-0.9756,12.1326,1406,2808.46
22604,-3.0347,0.419,10.8721,1419,2808.46
22609,0.5962,2.8862,9.9168,1426,2807.94
22614,1.3671,3.6164,10.3154,1420,2807.94
22619,-1.9549,0.1257,11.801,1419,2807.94
22624,-2.9736,-0.4405,11.5855,1419,2807.94
22629,-0.1676,2.4122,9.596,1427,2807.94
22634,1.3886,3.8774,10.1562,1421,2807.94
22639,-2.2482,1.2629,11.4395,1417,2807.94
22644,-2.545,-1.0726,12.1075,1429,2807.94
22649,-1.4772,1.816,9.7241,1429,2807.67
22654,1.1684,3.6547,10.1191,1417,2807.67
22659,-0.8404,2.1368,10.914,1418,2807.67
22664,-1.8794,-1.2689,12.1709,1413,2807.67
22669,-2.6312,1.0247,10.3118,1427,2807.67
22674,0.8871,3.1903,10.1131,1416,2807.81
22679,0.9864,3.0622,10.5333,1416,2807.81
22684,-1.6364,-0.6165,12.0009,1414,2807.81
22689,-3.0897,0.0754,11.1163,1419,2807.81
22694,0.3675,2.727,9.7013,1417,2807.67
22699,1.4246,3.7206,10.1766,1418,2807.67
22704,-2.2087,0.5255,11.6969,1419,2807.67
22709,-2.9269,-0.7171,11.8824,1421,2807.67
22714,-0.6093,2.2494,9.6175,1419,2807.67
22719,1.2881,3.8834,10.1299,1425,2807.67
22724,-2.0446,1.5981,11.2444,1416,2807.67
22729,-2.3691,-1.2426,12.1709,1407,2807.67
22734,-1.9225,1.5766,9.8785,1415,2807.67
22739,1.1432,3.5123,10.0832,1419,2807.81
22744,-0.073,2.4337,10.8362,1407,2807.81
22749,-1.6927,-1.2127,12.0895,1405,2807.81
22754,-2.9018,0.7183,10.5393,1414,2807.81
22759,0.741,3.0107,9.8833,1415,2807.67
22764,1.2761,3.3088,10.4998,1416,2807.67
22769,-1.7358,-0.2885,11.9159,1407,2807.67
22774,-3.1376,-0.1772,11.4251,1421,2807.67
22779,0.1077,2.5977,9.7097,1421,2807.67
22784,1.4293,3.8774,10.1742,1417,2807.67
22789,-2.3822,0.9673,11.546,1415,2807.67
22794,-2.7845,-0.8356,12.0165,1415,2807.67
22799,-0.9876,2.0925,9.5924,1423,2807.54
22804,1.2977,3.8116,10.0592,1415,2807.54
22809,-1.5443,1.8471,11.1055,1423,2807.54
22814,-2.1045,-1.3455,12.1637,1417,2807.54
22819,-2.3236,1.2977,10.0365,1427,2807.54
22824,0.9732,3.2705,10.0485,1416,2807.41
22829,0.4884,2.7066,10.6554,1415,2807.41
22834,-1.6532,-0.9529,12.0943,1413,2807.41
22839,-3.0454,0.419,10.8852,1427,2807.41
22844,0.6237,2.8599,9.9036,1416,2807.28
22849,1.3898,3.553,10.2077,1417,2807.28
22854,-1.9764,0.176,11.813,1415,2807.28
22859,-2.9916,-0.4178,11.655,1417,2807.28
22864,-0.1856,2.4277,9.596,1420,2807.28
22869,1.3886,3.8379,10.0832,1421,2807.28
22874,-2.2829,1.2725,11.4455,1414,2807.28
22879,-2.5654,-1.1109,12.044,1427,2807.28
22884,-1.4676,1.8423,9.7396,1429,2807.41
22889,1.1696,3.6021,10.076,1415,2807.41
22894,-0.7626,2.1332,11.0109,1421,2807.41
22899,-1.9058,-1.2917,12.1578,1413,2807.41
22904,-2.6576,1.0295,10.3214,1419,2807.41
22909,0.8667,3.1627,9.985,1417,2807.28
22914,1.0511,3.1173,10.5848,1417,2807.28
22919,-1.6125,-0.589,11.9339,1419,2807.28
22924,-3.1137,0.0634,11.1175,1417,2807.28
22929,0.3543,2.6719,9.7552,1415,2807.28
22934,1.4234,3.6859,10.1766,1415,2807.28
22939,-2.1799,0.5567,11.7268,1419,2807.28
22944,-2.903,-0.7386,11.8262,1415,2807.28
22949,-0.6895,2.2218,9.6175,1415,2807.28
22954,1.2941,3.8822,10.1167,1423,2807.28
22959,-1.9824,1.6137,11.2923,1415,2807.28
22964,-2.3427,-1.1971,12.1206,1407,2807.28
22969,-1.9824,1.6257,9.8773,1406,2807.28
22974,1.1504,3.4848,10.0604,1413,2807.28
22979,0.0108,2.4541,10.7955,1415,2807.28
22984,-1.6568,-1.2198,12.0847,1418,2807.28
22989,-2.8946,0.7039,10.4782,1414,2807.28
22994,0.7099,2.9904,9.9144,1421,2807.28
22999,1.312,3.3255,10.3968,1407,2807.28
23004,-1.7202,-0.2059,11.9578,1415,2807.28
23009,-3.1256,-0.2023,11.4515,1421,2807.28
23014,0.0359,2.5283,9.7001,1423,2807.54
23019,1.3276,3.9037,10.0868,1421,2807.54
23024,-2.3631,1.0343,11.5712,1416,2807.54
23029,-2.7174,-0.8499,11.9495,1413,2807.54
23034,-1.069,2.0686,9.675,1421,2807.54
23039,1.3252,3.7254,10.1023,1416,2807.54
23044,-1.3862,1.8675,11.0971,1422,2807.54
23049,-2.0626,-1.3635,12.1314,1417,2807.54
23054,-2.3559,1.2701,10.1011,1422,2807.54
23059,0.9625,3.2238,10.0533,1416,2807.67
23064,0.5866,2.727,10.5931,1417,2807.67
23069,-1.6735,-0.9337,12.0596,1415,2807.67
23074,-3.0885,0.4082,10.8804,1417,2807.67
23079,0.5662,2.8479,9.8976,1423,2808.2
23084,1.3707,3.6176,10.246,1418,2808.2
23089,-1.9836,0.2143,11.8046,1420,2808.2
23094,-2.9951,-0.486,11.564,1419,2808.2
23099,-0.2143,2.4086,9.6259,1421,2808.2
23104,1.3563,3.808,10.1227,1419,2808.2
23109,-2.2781,1.2582,11.376,1415,2808.2
23114,-2.5259,-1.1708,12.0584,1423,2808.2
23119,-1.5455,1.8196,9.7157,1431,2808.2
23124,1.1588,3.6057,10.1466,1417,2808.2
23129,-0.7853,2.1823,10.9056,1427,2808.2
23134,-1.9285,-1.2857,12.1446,1413,2808.2
23139,-2.709,1.0343,10.3106,1421,2808.2
23144,0.9134,3.2058,10.0401,1419,2808.33
23149,1.0247,3.0287,10.4686,1428,2808.33
23154,-1.6245,-0.5698,11.9818,1418,2808.33
23159,-3.1149,0.0443,11.0792,1415,2808.33
23164,0.3591,2.7054,9.7157,1426,2808.07
23169,1.3695,3.6966,10.1861,1436,2808.07
23174,-2.1919,0.5914,11.7268,1419,2808.07
23179,-2.9461,-0.7482,11.8453,1419,2808.07
23184,-0.6907,2.2613,9.6929,1423,2807.94
23189,1.2881,3.8666,10.1107,1422,2807.94
23194,-1.986,1.6149,11.2288,1419,2807.94
23199,-2.3535,-1.1947,12.1985,1416,2807.94
23204,-1.9525,1.6197,9.845,1414,2807.94
23209,1.142,3.4812,10.0688,1415,2807.41
23214,0.0156,2.4253,10.7811,1416,2807.41
23219,-1.6735,-1.2115,12.141,1415,2807.41
23224,-2.9018,0.6524,10.4806,1415,2807.41
23229,0.7147,2.9401,9.9635,1423,2807.41
23234,1.2426,3.2801,10.3968,1420,2807.41
23239,-1.7549,-0.2634,11.886,1415,2807.41
23244,-3.1316,-0.2131,11.3844,1421,2807.41
23249,0.1089,2.5905,9.7025,1421,2807.54
23254,1.3635,3.8906,10.173,1435,2807.54
23259,-2.3882,1.0044,11.5305,1417,2807.54
23264,-2.7114,-0.8966,11.9447,1419,2807.54
23269,-1.0774,2.0554,9.5912,1421,2807.54
23274,1.2833,3.7541,10.1382,1417,2807.54
23279,-1.3755,1.8136,11.0253,1423,2807.54
23284,-2.083,-1.3862,12.1625,1413,2807.54
23289,-2.3942,1.2318,10.0353,1427,2807.54
23294,0.9804,3.2789,10.0736,1419,2808.2
23299,0.5315,2.7749,10.6315,1407,2808.2
23304,-1.6795,-0.8906,12.1578,1415,2808.2
23309,-3.0861,0.3938,10.8781,1417,2808.2
23314,0.5519,2.891,9.8904,1423,2808.07
23319,1.4018,3.5889,10.3262,1417,2808.07
23324,-1.962,0.2346,11.7998,1422,2808.07
23329,-2.9904,-0.4848,11.6466,1420,2808.07
23334,-0.2622,2.3966,9.584,1427,2808.07
23339,1.3683,3.8391,10.076,1419,2808.07
23344,-2.2505,1.2474,11.3425,1407,2808.07
23349,-2.5582,-1.1612,12.0548,1423,2808.07
23354,-1.5419,1.816,9.7097,1421,2808.07
23359,1.1408,3.6727,10.1119,1417,2808.07
23364,-0.7889,2.1679,10.9535,1428,2808.07
23369,-1.9142,-1.2354,12.1721,1405,2808.07
23374,-2.6995,0.99,10.3238,1417,2808.07
23379,0.9661,3.1556,9.9659,1418,2808.46
23384,1.1013,3.0825,10.4447,1421,2808.46
23389,-1.5814,-0.583,11.9674,1407,2808.46
23394,-3.128,0.0227,11.0959,1416,2808.46
23399,0.346,2.6911,9.669,1426,2808.33
23404,1.4006,3.729,10.2568,1416,2808.33
23409,-2.2015,0.583,11.6897,1417,2808.33
23414,-2.9197,-0.7338,11.8872,1416,2808.33
23419,-0.6907,2.2649,9.6175,1421,2808.33
23424,1.3072,3.9049,10.143,1421,2808.33
23429,-2.0243,1.555,11.2264,1419,2808.33
23434,-2.3032,-1.2091,12.2296,1415,2808.33
23439,-1.9513,1.5538,9.8916,1415,2808.33
23444,1.1768,3.5303,10.0868,1415,2808.59
23449,0.006,2.4014,10.8158,1415,2808.59
23454,-1.67,-1.233,12.1398,1421,2808.59
23459,-2.9221,0.6153,10.4926,1419,2808.59
23464,0.7685,2.9604,9.9228,1427,2808.59
23469,1.2318,3.2932,10.4435,1421,2808.59
23474,-1.8016,-0.1927,11.9531,1416,2808.59
23479,-3.1256,-0.158,11.4443,1423,2808.59
23484,0.0467,2.6013,9.7193,1427,2808.33
23489,1.3767,3.9265,10.1813,1429,2808.33
23494,-2.393,0.996,11.5137,1417,2808.33
23499,-2.727,-0.8631,11.9554,1422,2808.33
23504,-1.0331,2.065,9.645,1421,2808.2
23509,1.3072,3.7828,10.1203,1416,2808.2
23514,-1.4234,1.8375,11.0468,1422,2808.2
23519,-2.1201,-1.3563,12.2092,1418,2808.2
23524,-2.3691,1.2175,10.0712,1427,2808.2
23529,0.9888,3.3004,10.003,1419,2808.46
23534,0.4705,2.7378,10.6255,1419,2808.46
23539,-1.6664,-0.9194,12.1015,1419,2808.46
23544,-3.061,0.4142,10.8996,1419,2808.46
23549,0.6081,2.9293,9.8557,1422,2808.46
23554,1.4473,3.5745,10.3274,1421,2808.46
23559,-1.9668,0.1951,11.7926,1422,2808.46
23564,-2.9832,-0.4585,11.625,1421,2808.46
23569,-0.1832,2.3954,9.5768,1415,2808.46
23574,1.3635,3.8451,10.1598,1417,2808.46
23579,-2.2936,1.1839,11.3928,1415,2808.46
23584,-2.5582,-1.0714,12.0823,1423,2808.46
23589,-1.5167,1.7992,9.7348,1427,2808.33
23594,1.1827,3.6524,10.1442,1419,2808.33
23599,-0.8511,2.1392,10.9642,1427,2808.33
23604,-1.8962,-1.2522,12.1518,1414,2808.33
23609,-2.6815,1.0211,10.2867,1417,2808.33
23614,0.8906,3.1999,9.997,1405,2808.07
23619,1.1073,3.049,10.5357,1423,2808.07
23624,-1.5957,-0.6237,11.9578,1417,2808.07
23629,-3.073,0.0215,11.0684,1421,2808.07
23634,0.3567,2.6624,9.7288,1429,2807.94
23639,1.4138,3.7014,10.2412,1419,2807.94
23644,-2.2134,0.4824,11.637,1416,2807.94
23649,-2.9628,-0.6823,11.8537,1417,2807.94
23654,-0.6141,2.2817,9.6522,1422,2807.67
23659,1.2582,3.9289,10.1526,1423,2807.67
23664,-2.0351,1.5802,11.2204,1422,2807.67
23669,-2.32,-1.1504,12.1278,1416,2807.67
23674,-1.8974,1.585,9.8102,1405,2807.67
23679,1.1887,3.5027,10.0521,1407,2807.67
23684,0.0072,2.4074,10.8086,1415,2807.67
23689,-1.7202,-1.2366,12.1123,1421,2807.67
23694,-2.9078,0.6764,10.6159,1419,2807.67
23699,0.6847,2.9748,9.9228,1421,2807.94
23704,1.1552,3.3327,10.4686,1418,2807.94
23709,-1.7585,-0.2789,11.9207,1415,2807.94
23714,-3.1244,-0.1808,11.4191,1421,2807.94
23719,0.1089,2.6073,9.7288,1423,2807.94
23724,1.4102,3.9097,10.2352,1429,2807.94
23729,-2.3248,0.9768,11.5305,1419,2807.94
23734,-2.7066,-0.8595,11.9363,1419,2807.94
23739,-1.0199,2.0303,9.6091,1416,2808.46
23744,1.2869,3.7505,10.0892,1417,2808.46
23749,-1.4844,1.804,11.0947,1427,2808.46
23754,-2.1261,-1.3838,12.1482,1415,2808.46
23759,-2.3595,1.2701,10.0676,1427,2808.46
23764,1.0032,3.3567,10.1131,1417,2808.86
23769,0.4776,2.7988,10.6985,1416,2808.86
23774,-1.6544,-0.9708,12.0835,1415,2808.86
23779,-3.0406,0.4812,10.8457,1421,2808.86
23784,0.6309,2.8886,9.809,1421,2809.12
23789,1.4629,3.5578,10.2891,1421,2809.12
23794,-1.9656,0.1616,11.7867,1431,2809.12
23799,-2.9736,-0.4513,11.6215,1421,2809.12
23804,-0.1891,2.3978,9.5924,1421,2809.25
23809,1.3467,3.8319,10.0999,1421,2809.25
23814,-2.326,1.2115,11.4443,1417,2809.25
23819,-2.569,-1.1133,12.0608,1426,2809.25
23824,-1.476,1.8962,9.7552,1426,2809.51
23829,1.1863,3.6536,10.058,1419,2809.51
23834,-0.8871,2.1392,10.9295,1431,2809.51
23839,-1.9632,-1.2713,12.1709,1415,2809.51
23844,-2.5869,1.0403,10.2999,1417,2809.51
23849,0.9014,3.1771,9.9156,1419,2809.38
23854,1.0271,2.9796,10.5285,1427,2809.38
23859,-1.6316,-0.7027,11.983,1418,2809.38
23864,-3.1053,0.0826,11.066,1418,2809.38
23869,0.3304,2.6659,9.7731,1427,2809.25
23874,1.3491,3.7074,10.2304,1419,2809.25
23879,-2.1189,0.516,11.7567,1419,2809.25
23884,-2.9796,-0.6393,11.8333,1419,2809.25
23889,-0.5567,2.2745,9.5852,1429,2809.12
23894,1.3599,3.899,10.1011,1422,2809.12
23899,-2.0446,1.567,11.3509,1407,2809.12
23904,-1.8495,-1.3168,12.1578,1419,2809.12
23909,-1.8064,1.6664,9.8174,1417,2809.12
23914,0.8691,3.1065,9.9479,1414,2809.12
23919,0.9589,3.0203,10.5704,1418,2809.12
23931,-1.6783,-0.668,11.9698,1427,2809.25
23934,0.7219,3.0131,9.9276,1415,2809.25
23939,1.2043,3.2825,10.4746,1418,2809.25
23944,-1.7705,-0.3148,11.9866,1413,2809.25
23949,-3.1651,-0.0551,11.3365,1425,2809.25
23954,0.1389,2.6372,9.7001,1421,2809.25
23959,1.4389,3.8247,10.1574,1417,2809.25
23964,-2.3128,0.8966,11.5963,1415,2809.25
23969,-2.7414,-0.8475,11.9459,1417,2809.25
23974,-0.9337,2.1404,9.6235,1421,2809.51
23979,1.2773,3.7362,10.0975,1417,2809.51
23984,-1.6448,1.7154,11.1378,1429,2809.51
23989,-2.1859,-1.3827,12.1278,1417,2809.51
23994,-2.2266,1.391,9.9814,1422,2809.51
23999,1.0092,3.3555,10.0545,1417,2809.65
24004,0.3687,2.6875,10.7224,1417,2809.65
24009,-1.7166,-1.0259,12.153,1404,2809.65
24014,-3.0227,0.5435,10.7679,1420,2809.65
24019,0.6644,2.9485,9.8629,1421,2809.65
24024,1.4162,3.5015,10.343,1405,2809.65
24029,-1.895,0.0527,11.8657,1416,2809.65
24034,-3.0275,-0.3771,11.5245,1417,2809.65
24039,-0.1089,2.4373,9.56,1421,2809.65
24044,1.3408,3.802,10.1203,1421,2809.65
24049,-2.3499,1.1313,11.5472,1417,2809.65
24054,-2.6971,-0.996,12.0105,1423,2809.65
24059,-1.3396,1.9537,9.6905,1429,2809.78
24064,1.2318,3.6883,10.1562,1417,2809.78
24069,-1.0606,2.0123,11.0349,1426,2809.78
24074,-2.0315,-1.3336,12.1625,1415,2809.78
24079,-2.5223,1.1337,10.155,1421,2809.78
24084,0.9828,3.2262,10.0796,1417,2810.17
24089,0.8823,2.8886,10.5979,1417,2810.17
24094,-1.6125,-0.7673,12.0165,1418,2810.17
24099,-3.1268,0.2011,10.9379,1417,2810.17
24104,0.4501,2.7378,9.7564,1417,2810.3
24109,1.3551,3.65,10.2077,1418,2810.3
24114,-2.1057,0.3687,11.7867,1419,2810.3
24119,-3.0382,-0.5519,11.7603,1419,2810.3
24124,-0.4381,2.3583,9.6127,1422,2810.44
24129,1.3707,3.9097,10.1251,1422,2810.44
24134,-2.1859,1.4485,11.382,1417,2810.44
24139,-2.4541,-1.172,12.1015,1414,2810.44
24144,-1.6795,1.7011,9.7157,1405,2810.44
24149,1.2127,3.559,10.0628,1419,2810.3
24154,-0.413,2.2541,10.8397,1419,2810.3
24159,-1.7765,-1.3312,12.1805,1407,2810.3
24164,-2.7904,0.8368,10.3418,1415,2810.3
24169,0.8272,3.0742,10.0317,1408,2810.3
24174,1.1037,3.1783,10.501,1418,2810.3
24179,-1.7142,-0.4369,12.044,1406,2810.3
24184,-3.1496,0.0527,11.2492,1426,2810.3
24189,0.316,2.6959,9.7324,1429,2810.44
24194,1.4353,3.808,10.1885,1419,2810.44
24199,-2.3248,0.7159,11.6298,1416,2810.44
24204,-2.8443,-0.7793,11.8681,1415,2810.44
24209,-0.7566,2.1859,9.5612,1429,2810.17
24214,1.2905,3.7972,10.167,1419,2810.17
24219,-1.8459,1.6412,11.1977,1429,2810.17
24224,-2.2829,-1.3084,12.1542,1415,2810.17
24229,-2.0973,1.4904,9.8713,1423,2810.17
24234,1.057,3.4477,10.1095,1407,2810.44
24239,0.0934,2.5367,10.7368,1415,2810.44
24244,-1.7741,-1.0738,12.1003,1414,2810.44
24249,-2.9844,0.6249,10.6315,1417,2810.44
24254,0.7733,2.9928,9.9395,1425,2810.7
24259,1.3312,3.395,10.3154,1419,2810.7
24264,-1.7741,-0.103,11.9351,1413,2810.7
24269,-3.0634,-0.2885,11.4467,1415,2810.7
24274,0.0611,2.4983,9.6355,1420,2810.57
24279,1.4054,3.7733,10.1622,1423,2810.57
24284,-2.3343,0.9756,11.564,1415,2810.57
24289,-2.7677,-0.9565,11.989,1429,2810.57
24294,-1.1241,2.0602,9.6151,1429,2810.7
24299,1.2845,3.7505,10.1742,1417,2810.7
24304,-1.3671,1.9106,11.1199,1419,2810.7
24309,-2.0614,-1.3012,12.2104,1415,2810.7
24314,-2.3858,1.251,10.0114,1427,2810.7
24319,1.0738,3.2836,10.0293,1420,2810.7
24324,0.7362,2.733,10.6255,1417,2810.7
24329,-1.5802,-0.9014,12.0225,1419,2810.7
24334,-3.0969,0.3448,10.811,1417,2810.7
24339,0.5962,2.8156,9.8485,1419,2810.57
24344,1.3803,3.5781,10.3657,1421,2810.57
24349,-2.0279,0.1712,11.8477,1420,2810.57
24354,-2.7461,-0.9122,12.0165,1419,2810.57
24359,-0.2586,2.387,9.6091,1423,2810.57
24364,1.3228,3.8008,10.0856,1421,2810.57
24369,-2.3559,1.2989,11.3916,1416,2810.57
24374,-2.0279,-1.312,12.1697,1420,2810.57
24379,-2.4337,1.2139,10.088,1421,2809.91
24384,0.9864,3.2525,10.0916,1421,2809.91
24389,0.6225,2.7497,10.6853,1423,2809.91
24394,-1.67,-0.9649,12.0871,1415,2809.91
24399,-3.0921,0.3136,10.8852,1419,2809.91
24404,0.5567,2.8323,9.8737,1416,2810.3
24409,1.3779,3.6009,10.3058,1421,2810.3
24414,-2.0387,0.2837,11.8106,1417,2810.3
24419,-3.0251,-0.4046,11.6526,1419,2810.3
24424,-0.2981,2.4241,9.6091,1429,2809.51
24429,1.3408,3.9002,10.149,1417,2809.51
24434,-2.2685,1.2773,11.3545,1415,2809.51
24439,-2.5187,-1.1289,12.1123,1407,2809.51
24444,-1.5742,1.7801,9.7169,1420,2809.25
24449,1.1516,3.5374,10.1394,1421,2809.25
24454,-0.7147,2.1548,10.9152,1421,2809.25
24459,-1.992,-1.2809,12.2152,1416,2809.25
24464,-2.7066,0.9888,10.3118,1417,2809.25
24469,0.9098,3.1795,10.0114,1415,2808.99
24474,1.0403,3.1268,10.5022,1417,2808.99
24479,-1.6963,-0.5698,12.0009,1419,2808.99
24484,-3.0969,0.0814,11.1797,1421,2808.99
24489,0.3903,2.6839,9.7157,1427,2809.12
24494,1.4497,3.7254,10.2544,1417,2809.12
24499,-2.211,0.5351,11.6837,1414,2809.12
24504,-2.8695,-0.7111,11.8022,1421,2809.12
24509,-0.6129,2.2362,9.5565,1427,2809.12
24514,1.3048,3.8331,10.1622,1428,2809.12
24519,-2.0183,1.5383,11.3066,1417,2809.12
24524,-2.3427,-1.2198,12.1649,1421,2809.12
24529,-1.9704,1.5993,9.8821,1416,2808.99
24534,1.1684,3.5231,10.0652,1415,2808.99
24539,-0.0431,2.4672,10.7895,1427,2808.99
24544,-1.737,-1.1217,12.0967,1415,2808.99
24549,-2.8766,0.7195,10.5716,1427,2808.99
24554,0.7757,2.9963,9.9084,1417,2809.25
24559,1.3132,3.3028,10.4052,1417,2809.25
24564,-1.7789,-0.2933,11.91,1419,2809.25
24569,-3.1053,-0.2179,11.3581,1415,2809.25
24574,0.0934,2.5558,9.6319,1423,2809.51
24579,1.3934,3.8678,10.1742,1419,2809.51
24584,-2.381,0.9349,11.5891,1419,2809.51
24589,-2.7473,-0.8116,12.0811,1418,2809.51
24594,-0.9768,2.0842,9.6498,1421,2809.91
24599,1.2857,3.8283,10.0604,1417,2809.91
24604,-1.488,1.8052,11.0995,1415,2809.91
24609,-2.1153,-1.3467,12.1637,1427,2809.91
24614,-2.3092,1.2929,10.0066,1423,2809.78
24619,1.0439,3.3172,10.0533,1417,2809.78
24624,0.5399,2.6947,10.7009,1427,2809.78
24629,-1.6855,-1.0163,12.0991,1413,2809.78
24634,-3.073,0.4513,10.7919,1417,2809.78
24639,0.6213,2.8946,9.833,1419,2811.09
24644,1.3827,3.5566,10.3322,1421,2811.09
24649,-1.9896,0.0982,11.8118,1417,2811.09
24654,-3.0335,-0.3627,11.5939,1420,2811.09
24659,-0.1676,2.4792,9.59,1419,2810.3
24664,1.403,3.9061,10.137,1420,2810.3
24669,-2.3487,1.1911,11.4682,1419,2810.3
24674,-2.6145,-1.0942,12.0716,1420,2810.3
24679,-1.3803,1.8806,9.6929,1421,2811.49
24684,1.2079,3.632,10.076,1423,2811.49
24689,-0.996,2.0446,11.0169,1421,2811.49
24694,-2.0542,-1.3659,12.1063,1419,2811.49
24699,-2.5929,1.1181,10.2388,1415,2811.49
24704,0.9828,3.1999,10.0533,1417,2810.57
24709,0.9134,3.0299,10.5884,1417,2810.57
24714,-1.6747,-0.7183,12.0321,1418,2810.57
24719,-3.1436,0.1748,11.0289,1417,2810.57
24724,0.4764,2.7557,9.7444,1423,2810.83
24729,1.4593,3.6559,10.2292,1417,2810.83
24734,-2.0913,0.3747,11.7507,1415,2810.83
24739,-2.9808,-0.6393,11.801,1427,2810.83
24744,-0.4274,2.2984,9.6091,1426,2810.7
24749,1.3036,3.8451,10.1323,1420,2810.7
24754,-2.1835,1.476,11.3294,1417,2810.7
24759,-2.4576,-1.1624,12.0895,1419,2810.7
24764,-1.7705,1.6951,9.7707,1430,2810.7
24769,1.2115,3.5973,10.0952,1419,2810.7
24774,-0.3352,2.2936,10.9307,1428,2810.7
24779,-1.8016,-1.2438,12.1853,1419,2810.7
24784,-2.7629,0.8715,10.4375,1429,2810.7
24789,0.7805,3.0658,9.9479,1421,2810.83
24794,1.239,3.1484,10.4483,1417,2810.83
24799,-1.6712,-0.4872,11.9399,1413,2810.83
24804,-3.1232,-0.0646,11.2492,1421,2810.83
24809,0.2298,2.5666,9.7109,1419,2810.83
24814,1.3838,3.7852,10.2137,1420,2810.83
24819,-2.3056,0.7673,11.6634,1397,2810.83
24824,-2.9161,-0.6859,11.9159,1419,2810.83
24829,-0.7985,2.2051,9.5744,1427,2810.83
24834,1.3707,3.8571,10.0676,1419,2810.83
24839,-1.804,1.7071,11.1977,1419,2810.83
24844,-2.2769,-1.2821,12.1326,1427,2810.83
24849,-2.1117,1.4605,9.9084,1427,2811.09
24854,1.0977,3.3615,10.0975,1414,2811.09
24859,0.1856,2.5175,10.7488,1421,2811.09
24864,-1.731,-1.1887,12.1171,1405,2811.09
24869,-3.0119,0.5662,10.6614,1427,2811.09
24874,0.7242,2.9125,9.9216,1419,2810.83
24879,1.3372,3.4453,10.4351,1417,2810.83
24884,-1.8495,-0.1448,11.9291,1420,2810.83
24889,-3.0825,-0.2179,11.491,1418,2810.83
24894,0.0251,2.5402,9.6295,1413,2810.83
24899,1.4425,3.8559,10.1287,1416,2810.83
24904,-2.3367,1.0499,11.4826,1421,2810.83
24909,-2.721,-0.9708,12.0105,1421,2810.83
24914,-1.136,2.0303,9.6977,1425,2810.7
24919,1.2139,3.6619,10.1502,1428,2810.7
24924,-1.3563,1.8854,11.1007,1419,2810.7
24929,-2.0985,-1.385,12.1949,1419,2810.7
24934,-2.4457,1.2294,10.1071,1421,2810.7
24939,1.0068,3.2633,10.0509,1421,2810.3
24944,0.6835,2.8359,10.6267,1422,2810.3
24949,-1.7214,-0.8727,12.1422,1417,2810.3
24954,-3.067,0.3508,10.9343,1418,2810.3
24959,0.5722,2.8671,9.8509,1417,2810.44
24964,1.4006,3.6117,10.2544,1422,2810.44
24969,-2.0016,0.2382,11.7998,1415,2810.44
24974,-3.0502,-0.5076,11.6346,1429,2810.44
24979,-0.2682,2.3715,9.6331,1428,2810.44
24984,1.3659,3.8523,10.1586,1417,2810.44
24989,-2.3152,1.2953,11.4958,1407,2810.44
24994,-2.5953,-1.1289,12.0919,1415,2810.44
24999,-1.5395,1.8567,9.7456,1427,2810.3
25004,1.2079,3.6715,10.1167,1421,2810.3
25009,-0.7254,2.1512,10.9726,1427,2810.3
25014,-1.8962,-1.2546,12.1171,1417,2810.3
25019,-2.6899,1.0235,10.258,1419,2810.3
25024,0.9194,3.1388,9.9623,1417,2810.83
25029,1.075,3.0011,10.5309,1415,2810.83
25034,-1.6293,-0.6823,12.0021,1417,2810.83
25039,-3.1448,0.0718,11.0504,1421,2810.83
25044,0.3735,2.6671,9.7779,1421,2810.96
25049,1.3695,3.699,10.2472,1417,2810.96
25054,-2.2326,0.583,11.7232,1415,2810.96
25059,-2.9928,-0.6093,11.825,1419,2810.96
25064,-0.5674,2.3308,9.6127,1423,2811.36
25069,1.3575,3.8738,10.1335,1427,2811.36
25074,-2.053,1.555,11.2372,1415,2811.36
25079,-2.3331,-1.2282,12.1266,1421,2811.36
25084,-1.8806,1.5766,9.8078,1419,2811.23
25089,1.16,3.4668,10.088,1415,2811.23
25094,-0.1784,2.3367,10.8254,1421,2811.23
25099,-1.7693,-1.3048,12.1625,1415,2811.23
25104,-2.8994,0.7242,10.4794,1425,2811.23
25109,0.7602,3.0538,9.9288,1419,2811.09
25114,1.2139,3.2884,10.3765,1415,2811.09
25119,-1.7849,-0.2909,11.959,1419,2811.09
25124,-3.1328,-0.067,11.2707,1417,2811.09
25129,0.2191,2.6097,9.6869,1423,2811.09
25134,1.4557,3.8223,10.1933,1419,2811.09
25139,-2.3343,0.8655,11.6131,1421,2811.09
25144,-2.7964,-0.8212,11.8836,1419,2811.09
25149,-0.8871,2.1296,9.5684,1423,2810.7
25154,1.3084,3.784,10.1778,1419,2810.7
25159,-1.6197,1.7154,11.133,1415,2810.7
25164,-2.2087,-1.3539,12.1578,1427,2810.7
25169,-2.2805,1.3994,9.9874,1427,2810.57
25174,1.0511,3.371,10.1837,1420,2810.57
25179,0.2813,2.66,10.7105,1422,2810.57
25184,-1.6999,-0.9864,12.135,1415,2810.57
25189,-3.0215,0.5279,10.6865,1417,2810.57
25194,0.6919,2.9389,9.8665,1415,2810.3
25199,1.409,3.4237,10.3334,1421,2810.3
25204,-1.834,-0.0012,11.8405,1417,2810.3
25209,-3.0682,-0.4046,11.5149,1422,2810.3
25214,-0.0946,2.46,9.5816,1421,2810.17
25219,1.3467,3.8654,10.161,1419,2810.17
25224,-2.3535,1.1337,11.4179,1421,2810.17
25229,-2.7066,-0.9936,12.1063,1422,2810.17
25234,-1.3324,1.9752,9.6905,1431,2810.44
25239,1.2641,3.7721,10.1837,1427,2810.44
25244,-1.1648,2.0063,11.0085,1418,2810.44
25249,-2.0123,-1.2689,12.2272,1406,2810.44
25254,-2.496,1.1241,10.1155,1415,2810.44
25259,0.9948,3.219,9.9802,1417,2810.7
25264,0.8452,2.8599,10.5429,1417,2810.7
25269,-1.5933,-0.8224,12.056,1421,2810.7
25274,-3.1663,0.2131,10.9319,1419,2810.7
25279,0.4669,2.7952,9.8294,1423,2811.36
25284,1.3515,3.6464,10.3238,1405,2811.36
25289,-2.1117,0.3855,11.8226,1413,2811.36
25294,-3.0059,-0.5183,11.7124,1426,2811.36
25299,-0.3891,2.393,9.5696,1420,2811.75
25304,1.385,3.9385,10.1394,1423,2811.75
25309,-2.2146,1.4353,11.3521,1417,2811.75
25314,-2.4588,-1.1408,12.1422,1419,2811.75
25319,-1.6556,1.731,9.7133,1419,2811.89
25324,1.1839,3.5494,10.1023,1418,2811.89
25329,-0.589,2.1524,10.8996,1427,2811.89
25334,-1.8818,-1.3252,12.1554,1421,2811.89
25339,-2.7713,0.8619,10.3046,1429,2811.89
25344,0.8799,3.1113,10.0054,1415,2811.75
25349,1.0439,3.1256,10.5357,1407,2811.75
25354,-1.6939,-0.4992,12.0165,1408,2811.75
25359,-3.1544,0.0862,11.1989,1419,2811.75
25364,0.3711,2.7019,9.6977,1421,2811.75
25369,1.4641,3.79,10.24,1421,2811.75
25374,-2.2098,0.6033,11.6538,1413,2811.75
25379,-2.8515,-0.7314,11.8465,1419,2811.75
25384,-0.6776,2.1847,9.5589,1427,2811.62
25389,1.312,3.8188,10.1359,1427,2811.62
25394,-1.9609,1.5191,11.2527,1417,2811.62
25399,-2.4193,-1.306,12.1661,1429,2811.62
25404,-1.986,1.5969,9.7959,1428,2811.36
25409,1.1061,3.5314,10.0904,1417,2811.36
25414,-0.097,2.4565,10.7847,1415,2811.36
25419,-1.7346,-1.1265,12.1985,1415,2811.36
25424,-2.9042,0.7027,10.5668,1423,2811.36
25429,0.7853,3.0143,9.9,1417,2811.89
25434,1.3815,3.3196,10.3944,1417,2811.89
25439,-1.6891,-0.2634,11.8752,1421,2811.89
25444,-3.0957,-0.2298,11.3342,1419,2811.89
25449,0.1293,2.5462,9.5804,1414,2811.49
25454,1.421,3.7757,10.1993,1420,2811.49
25459,-2.3607,0.838,11.6203,1426,2811.49
25464,-2.8563,-0.8847,11.9602,1423,2811.49
25469,-1.008,2.1296,9.6379,1423,2811.36
25474,1.2677,3.8666,10.1382,1421,2811.36
25479,-1.585,1.7945,11.1534,1417,2811.36
25484,-2.1524,-1.2354,12.147,1423,2811.36
25489,-2.2505,1.3575,10.0042,1420,2811.36
25494,1.1109,3.389,10.0652,1427,2811.23
25499,0.5231,2.6552,10.7236,1427,2811.23
25504,-1.6508,-1.087,12.0716,1423,2811.23
25509,-3.0514,0.4226,10.7308,1416,2811.23
25514,0.6476,2.8515,9.8234,1416,2811.62
25519,1.3455,3.5099,10.3597,1423,2811.62
25524,-1.974,0.0766,11.8693,1417,2811.62
25529,-3.0933,-0.3328,11.6406,1427,2811.62
25534,-0.1113,2.4816,9.6259,1423,2811.62
25539,1.3886,3.9205,10.1299,1419,2811.62
25544,-2.3451,1.2019,11.4694,1417,2811.62
25549,-2.5905,-0.9816,12.0213,1414,2811.62
25554,-1.2641,1.9118,9.7181,1429,2811.89
25559,1.2522,3.6559,10.0987,1421,2811.89
25564,-1.0056,1.9489,11.0002,1421,2811.89
25569,-2.0219,-1.4485,12.1877,1417,2811.89
25574,-2.5905,1.1193,10.1801,1417,2811.89
25579,0.9385,3.2597,10.0006,1415,2811.89
25584,0.7925,2.9592,10.6494,1417,2811.89
25589,-1.7226,-0.7805,12.0309,1418,2811.89
25594,-3.1208,0.3005,11.0002,1419,2811.89
25599,0.5016,2.8383,9.7923,1423,2812.15
25604,1.488,3.7062,10.2855,1419,2812.15
25609,-2.0961,0.3484,11.7436,1415,2812.15
25614,-2.9712,-0.5698,11.6885,1419,2812.15
25619,-0.3903,2.3367,9.5612,1421,2811.75
25624,1.3803,3.8427,10.0724,1427,2811.75
25629,-2.2206,1.336,11.3665,1415,2811.75
25634,-2.5175,-1.1708,12.0811,1419,2811.75
25639,-1.6903,1.7765,9.754,1422,2811.62
25644,1.1684,3.5877,10.1239,1416,2811.62
25649,-0.5854,2.2709,10.9858,1427,2811.62
25654,-1.8735,-1.2773,12.074,1415,2811.62
25659,-2.7857,0.9553,10.3801,1425,2811.62
25664,0.8847,3.1089,9.9419,1419,2811.75
25669,1.2354,3.1101,10.5405,1416,2811.75
25674,-1.6496,-0.5543,11.9566,1413,2811.75
25679,-3.1184,0.0024,11.1881,1414,2811.75
25684,0.3376,2.6444,9.7564,1426,2812.15
25689,1.4042,3.7086,10.1742,1421,2812.15
25694,-2.2565,0.5914,11.7029,1420,2812.15
25699,-2.9951,-0.6764,11.8824,1420,2812.15
25704,-0.7386,2.2972,9.5756,1423,2812.28
25709,1.3491,3.9229,10.1071,1420,2812.28
25714,-1.9644,1.6388,11.2863,1414,2812.28
25719,-2.3619,-1.2079,12.1661,1423,2812.28
25724,-1.9321,1.567,9.845,1427,2812.54
25729,1.1672,3.4632,10.0137,1417,2812.54
25734,0.0706,2.3906,10.7919,1425,2812.54
25739,-1.7478,-1.2629,12.0764,1416,2812.54
25744,-2.9042,0.6404,10.4842,1423,2812.54
25749,0.7638,2.9197,9.8928,1415,2812.28
25754,1.2797,3.3567,10.3908,1407,2812.28
25759,-1.8399,-0.2478,11.9531,1419,2812.28
25764,-3.1424,-0.1161,11.382,1418,2812.28
25769,0.1413,2.6085,9.6666,1416,2812.28
25774,1.4377,3.863,10.1634,1421,2812.28
25779,-2.3439,0.8859,11.6179,1421,2812.28
25784,-2.7749,-0.8392,11.9554,1414,2812.28
25789,-0.978,2.1129,9.6007,1427,2812.28
25794,1.3024,3.7362,10.0748,1422,2812.28
25799,-1.585,1.7514,11.1486,1415,2812.28
25804,-2.1919,-1.4018,12.1949,1415,2812.28
25809,-2.296,1.3072,9.9814,1416,2812.28
25814,1.0774,3.3459,10.0353,1416,2812.02
25819,0.4166,2.6959,10.6937,1419,2812.02
25824,-1.7154,-1.0032,12.0979,1417,2812.02
25829,-3.0586,0.5243,10.7643,1417,2812.02
25834,0.7123,2.9137,9.8414,1407,2811.89
25839,1.4557,3.5183,10.3178,1419,2811.89
25844,-1.9154,0.091,11.8142,1415,2811.89
25849,-3.0502,-0.346,11.4934,1427,2811.89
25854,-0.085,2.4588,9.6474,1421,2812.15
25859,1.4126,3.7972,10.1849,1419,2812.15
25864,-2.3511,1.1181,11.467,1413,2812.15
25869,-2.6887,-0.9996,12.056,1416,2812.15
25874,-1.3384,1.9489,9.6678,1421,2811.49
25879,1.2318,3.6859,10.137,1422,2811.49
25884,-1.0965,2.0446,11.0325,1425,2811.49
25889,-2.0291,-1.3216,12.1793,1416,2811.49
25894,-2.5355,1.1923,10.1574,1420,2811.49
25899,1.0044,3.2394,10.0233,1407,2811.23
25904,0.8978,2.8814,10.5512,1415,2811.23
25909,-1.6221,-0.8045,12.0273,1428,2811.23
25914,-3.0789,0.2167,10.9032,1419,2811.23
25919,0.516,2.7378,9.7396,1426,2811.09
25924,1.3934,3.6105,10.3154,1419,2811.09
25929,-2.0925,0.3531,11.8705,1415,2811.09
25934,-3.0813,-0.5758,11.6777,1420,2811.09
25939,-0.4082,2.3595,9.5852,1423,2811.62
25944,1.3563,3.8966,10.0724,1429,2811.62
25949,-2.217,1.4018,11.3832,1415,2811.62
25954,-2.5031,-1.1037,12.1254,1419,2811.62
25959,-1.6903,1.8052,9.7492,1417,2811.89
25964,1.257,3.5805,10.1167,1415,2811.89
25969,-0.4322,2.1859,10.8697,1422,2811.89
25974,-1.8184,-1.3144,12.1721,1417,2811.89
25979,-2.7509,0.8272,10.2891,1427,2811.89
25984,0.8511,3.1017,9.9982,1419,2812.02
25989,1.1001,3.1208,10.4926,1414,2812.02
25994,-1.719,-0.5375,11.9626,1407,2812.02
25999,-3.1819,0.0778,11.1582,1415,2812.02
26004,0.3316,2.7354,9.7252,1420,2812.15
26009,1.4569,3.7996,10.2484,1419,2812.15
26014,-2.241,0.6393,11.6131,1421,2812.15
26019,-2.9042,-0.6752,11.8776,1419,2812.15
26024,-0.6847,2.2398,9.566,1421,2812.28
26029,1.3312,3.7781,10.1155,1417,2812.28
26034,-1.9453,1.567,11.2527,1413,2812.28
26039,-2.3487,-1.2833,12.1625,1421,2812.28
26044,-2.0075,1.5455,9.8521,1423,2812.02
26049,1.1193,3.4465,10.1299,1416,2812.02
26054,-0.0359,2.4241,10.7799,1425,2812.02
26059,-1.8016,-1.1947,12.1901,1414,2812.02
26064,-2.9556,0.7398,10.507,1421,2812.02
26069,0.8045,3.0203,9.9467,1418,2812.15
26074,1.336,3.3267,10.4136,1421,2812.15
26079,-1.7705,-0.243,11.983,1417,2812.15
26084,-3.0945,-0.152,11.3342,1413,2812.15
26089,0.1125,2.5893,9.5888,1416,2811.75
26094,1.4257,3.7613,10.2232,1417,2811.75
26099,-2.3367,0.8811,11.5688,1419,2811.75
26104,-2.8072,-0.905,11.983,1417,2811.75
26109,-1.0307,2.0662,9.5648,1423,2811.62
26114,1.2665,3.802,10.2077,1425,2811.62
26119,-1.5981,1.7885,11.1199,1415,2811.62
26124,-2.1883,-1.2402,12.129,1413,2811.62
26129,-2.308,1.4078,9.9527,1417,2811.62
26134,1.1037,3.3698,10.0461,1421,2810.83
26139,0.4489,2.6217,10.7093,1417,2810.83
26144,-1.6257,-1.0307,12.1015,1415,2810.83
26149,-3.0382,0.3699,10.7212,1417,2810.83
26154,0.6656,2.8862,9.833,1408,2811.09
26159,1.4246,3.4907,10.3896,1406,2811.09
26164,-1.9178,0.0718,11.8178,1407,2811.09
26169,-3.1053,-0.3783,11.6167,1427,2811.09
26174,-0.1353,2.4828,9.6678,1427,2811.23
26179,1.3635,3.9265,10.2376,1416,2811.23
26184,-2.3679,1.1768,11.4203,1415,2811.23
26189,-2.6169,-0.9768,12.0871,1405,2811.23
26194,-1.3599,1.9225,9.6462,1427,2811.23
26199,1.3156,3.717,10.161,1418,2811.23
26204,-0.9601,1.986,10.975,1428,2811.23
26209,-1.9944,-1.3743,12.2212,1417,2811.23
26214,-2.5702,1.0882,10.1359,1425,2811.23
26219,0.972,3.207,10.0185,1407,2811.49
26224,0.8811,2.9113,10.5536,1415,2811.49
26229,-1.6628,-0.7973,12.1039,1419,2811.49
26234,-3.1448,0.2574,10.9367,1419,2811.49
26239,0.516,2.7725,9.7827,1420,2812.02
26244,1.4413,3.6679,10.3262,1419,2812.02
26249,-2.138,0.4178,11.7986,1415,2812.02
26254,-2.9532,-0.5243,11.7627,1416,2812.02
26259,-0.4094,2.3834,9.5349,1419,2811.75
26264,1.3982,3.8774,10.1382,1421,2811.75
26269,-2.1787,1.3551,11.3318,1417,2811.75
26274,-2.4756,-1.1839,12.0596,1427,2811.75
26279,-1.737,1.7011,9.7803,1427,2811.62
26284,1.2019,3.5686,10.1155,1416,2811.62
26289,-0.565,2.2446,10.914,1415,2811.62
26294,-1.895,-1.3072,12.1865,1417,2811.62
26299,-2.8108,0.9062,10.3358,1423,2811.62
26304,0.9014,3.1723,9.9707,1419,2811.36
26309,1.1696,3.1364,10.4722,1416,2811.36
26314,-1.64,-0.5267,11.9219,1419,2811.36
26319,-3.0813,-0.0096,11.2444,1417,2811.36
26324,0.328,2.6815,9.6798,1419,2811.36
26329,1.47,3.7469,10.246,1421,2811.36
26334,-2.2362,0.6309,11.6011,1423,2811.36
26339,-2.8659,-0.7434,11.8609,1421,2811.36
26344,-0.7039,2.1979,9.5457,1423,2811.36
26349,1.3072,3.8702,10.1143,1423,2811.36
26354,-1.9285,1.5933,11.2791,1416,2811.36
26359,-2.3367,-1.2067,12.1985,1419,2811.36
26364,-2.0087,1.5431,9.8785,1420,2811.09
26369,1.1349,3.4967,10.076,1421,2811.09
26374,0.0611,2.4636,10.756,1427,2811.09
26379,-1.7166,-1.1672,12.1362,1418,2811.09
26384,-2.9257,0.6081,10.5728,1407,2811.09
26389,0.7614,2.9556,9.8569,1416,2811.23
26394,1.3096,3.3387,10.4112,1423,2811.23
26399,-1.8459,-0.1915,11.9423,1418,2811.23
26404,-3.1137,-0.2334,11.4443,1419,2811.23
26409,0.0611,2.5582,9.6343,1427,2811.36
26414,1.4174,3.9073,10.1634,1416,2811.36
26419,-2.4026,0.9457,11.5975,1419,2811.36
26424,-2.7713,-0.8416,11.9782,1415,2811.36
26429,-1.0511,2.0973,9.6426,1423,2811.36
26434,1.3503,3.7996,10.1131,1423,2811.36
26439,-1.4353,1.8064,11.1007,1419,2811.36
26444,-2.1452,-1.3623,12.1446,1407,2811.36
26449,-2.3355,1.2905,9.9754,1408,2811.36
26454,1.0271,3.316,10.0449,1415,2811.75
26459,0.5219,2.6719,10.7404,1417,2811.75
26464,-1.6819,-1.0151,12.0859,1419,2811.75
26469,-3.0634,0.48,10.7859,1416,2811.75
26474,0.6632,2.8766,9.8354,1417,2812.15
26479,1.4581,3.5829,10.3286,1419,2812.15
26484,-1.9597,0.0874,11.8178,1417,2812.15
26489,-3.0191,-0.3388,11.6155,1427,2812.15
26494,-0.1413,2.466,9.6031,1427,2812.41
26499,1.4461,3.9217,10.1035,1420,2812.41
26504,-2.3715,1.172,11.4742,1415,2812.41
26509,-2.5917,-1.0307,12.0273,1419,2812.41
26514,-1.3994,1.9046,9.7097,1422,2812.54
26519,1.2151,3.6488,10.0497,1417,2812.54
26524,-1.0391,2.0435,11.0445,1427,2812.54
26529,-2.0446,-1.342,12.1865,1419,2812.54
26534,-2.5774,1.1145,10.1813,1425,2812.54
26539,0.9804,3.207,9.9946,1417,2812.41
26544,0.8859,2.9939,10.5848,1415,2812.41
26549,-1.664,-0.7685,11.9902,1417,2812.41
26554,-3.0981,0.2717,10.993,1414,2812.41
26559,0.504,2.7629,9.7217,1421,2812.54
26564,1.4521,3.6655,10.2364,1402,2812.54
26569,-2.1153,0.3735,11.7795,1415,2812.54
26574,-2.9975,-0.5674,11.7112,1417,2812.54
26579,-0.4334,2.3715,9.5924,1423,2812.28
26584,1.3384,3.893,10.1538,1422,2812.28
26589,-2.2194,1.3838,11.3892,1415,2812.28
26594,-2.5067,-1.1612,12.0704,1426,2812.28
26599,-1.7226,1.7669,9.7707,1429,2812.41
26604,1.2498,3.571,10.1059,1417,2812.41
26609,-0.4441,2.2529,10.9283,1417,2812.41
26614,-1.8328,-1.2653,12.159,1415,2812.41
26619,-2.8108,0.923,10.3908,1420,2812.41
26624,0.8882,3.0801,9.9407,1419,2812.54
26629,1.1205,3.0909,10.5285,1418,2812.54
26634,-1.658,-0.5662,11.9255,1420,2812.54
26639,-3.1591,-0.0156,11.145,1417,2812.54
26644,0.3089,2.6635,9.7324,1415,2812.15
26649,1.4641,3.7984,10.2388,1419,2812.15
26654,-2.2649,0.6584,11.7088,1419,2812.15
26659,-2.9329,-0.6788,11.8836,1421,2812.15
26664,-0.7039,2.2242,9.5804,1421,2812.15
26669,1.4198,3.8607,10.0724,1423,2812.15
26674,-1.9549,1.6137,11.2085,1407,2812.15
26679,-2.3379,-1.2713,12.1661,1421,2812.15
26684,-2.0279,1.5407,9.9024,1420,2811.75
26689,1.1121,3.4153,10.1059,1423,2811.75
26694,0.0096,2.4205,10.829,1420,2811.75
26699,-1.7681,-1.245,12.1625,1413,2811.75
26704,-2.9736,0.6704,10.586,1413,2811.75
26709,0.7542,2.958,9.8521,1405,2812.15
26714,1.3575,3.3471,10.3453,1421,2812.15
26719,-1.8064,-0.2634,12.0117,1417,2812.15
26724,-3.1089,-0.1377,11.388,1417,2812.15
26729,0.1724,2.6396,9.6438,1423,2812.15
26734,1.4533,3.8738,10.1574,1415,2812.15
26739,-2.3786,0.9529,11.5999,1419,2812.15
26744,-2.7581,-0.9026,11.8752,1407,2812.15
26749,-1.0163,2.0435,9.6247,1420,2811.89
26754,1.2725,3.7194,10.149,1421,2811.89
26759,-1.5479,1.7873,11.1318,1419,2811.89
26764,-2.2182,-1.3587,12.1661,1407,2811.89
26769,-2.2901,1.3431,10.0305,1414,2811.89
26774,1.0606,3.3507,10.1239,1415,2811.89
26779,0.4812,2.7114,10.6686,1415,2811.89
26784,-1.6891,-1.0295,12.0333,1419,2811.89
26789,-3.061,0.4322,10.7512,1417,2811.89
26794,0.6776,2.9006,9.8749,1421,2812.15
26799,1.4521,3.5075,10.2939,1415,2812.15
26804,-1.8962,0.0694,11.8645,1413,2812.15
26809,-3.0861,-0.3687,11.5568,1426,2812.15
26814,-0.1161,2.4684,9.6391,1423,2812.02
26819,1.3874,3.8199,10.1179,1415,2812.02
26824,-2.3511,1.136,11.497,1417,2812.02
26829,-2.6683,-1.0642,12.05,1415,2812.02
26834,-1.324,1.9788,9.6594,1415,2812.15
26839,1.3012,3.7314,10.0784,1405,2812.15
26844,-1.0666,2.0255,11.0313,1427,2812.15
26849,-1.9968,-1.33,12.1901,1416,2812.15
26854,-2.5235,1.16,10.137,1421,2812.15
26859,1.0415,3.2394,10.0149,1417,2812.02
26864,0.8882,2.8718,10.5896,1415,2812.02
26869,-1.6173,-0.8152,12.0704,1415,2812.02
26874,-3.134,0.1963,10.9451,1416,2812.02
26879,0.4848,2.7473,9.7779,1423,2812.02
26884,1.4437,3.6368,10.2687,1415,2812.02
26889,-2.1141,0.3567,11.7519,1415,2812.02
26894,-3.067,-0.5088,11.7112,1417,2812.02
26899,-0.3926,2.4361,9.5972,1420,2812.41
26904,1.3647,3.8786,10.1825,1419,2812.41
26909,-2.2541,1.3886,11.4012,1415,2812.41
26914,-2.4541,-1.1444,12.123,1426,2812.41
26919,-1.7358,1.7238,9.7193,1419,2811.89
26924,1.221,3.6105,10.1251,1407,2811.89
26929,-0.5327,2.2266,10.9032,1404,2811.89
26934,-1.8938,-1.3372,12.1997,1405,2811.89
26939,-2.794,0.8787,10.2843,1420,2811.89
26944,0.9002,3.0765,9.985,1413,2812.68
26949,1.0762,3.1029,10.4902,1415,2812.68
26954,-1.6999,-0.5231,12.0321,1419,2812.68
26959,-3.1759,0.0599,11.212,1419,2812.68
26964,0.3531,2.7485,9.7169,1407,2811.75
26969,1.4724,3.7481,10.2316,1417,2811.75
26974,-2.2362,0.6512,11.637,1419,2811.75
26979,-2.8778,-0.7015,11.8309,1417,2811.75
26984,-0.6955,2.2494,9.5517,1421,2811.62
26989,1.3503,3.8307,10.1083,1422,2811.62
26994,-1.9465,1.5227,11.2396,1413,2811.62
26999,-2.3116,-1.257,12.2128,1419,2811.62
27004,-2.0375,1.5538,9.8833,1415,2811.62
27009,1.0894,3.4872,10.0868,1420,2811.23
27014,-0.0539,2.4648,10.8673,1419,2811.23
27019,-1.7645,-1.1277,12.1446,1413,2811.23
27024,-2.9197,0.6584,10.5237,1415,2811.23
27029,0.7793,2.9736,9.8881,1406,2811.09
27034,1.3288,3.2681,10.4064,1421,2811.09
27039,-1.7753,-0.1963,11.8872,1415,2811.09
27044,-3.1017,-0.2155,11.3856,1419,2811.09
27049,0.1018,2.5522,9.6343,1419,2810.83
27054,1.391,3.8164,10.2304,1415,2810.83
27059,-2.3463,0.8775,11.5401,1415,2810.83
27064,-2.8108,-0.8835,11.9686,1415,2810.83
27069,-1.0534,2.0554,9.5936,1425,2810.3
27074,1.3204,3.7936,10.1083,1418,2810.3
27079,-1.5586,1.81,11.1773,1421,2810.3
27084,-2.1117,-1.2749,12.2044,1417,2810.3
27089,-2.2948,1.3372,9.979,1417,2810.3
27094,1.1061,3.3926,10.0437,1405,2809.65
27099,0.571,2.6839,10.6925,1413,2809.65
27104,-1.585,-0.9864,12.0297,1417,2809.65
27109,-3.0215,0.3759,10.732,1417,2809.65
27114,0.6189,2.8383,9.8414,1421,2810.17
27119,1.4234,3.5003,10.3489,1415,2810.17
27124,-1.9381,0.1233,11.8657,1403,2810.17
27129,-3.0777,-0.3915,11.5999,1419,2810.17
27134,-0.2167,2.46,9.5828,1407,2809.91
27139,1.4042,3.9397,10.167,1427,2809.91
27144,-2.3511,1.233,11.3653,1415,2809.91
27149,-2.5666,-1.0068,12.1003,1421,2809.91
27154,-1.4186,1.8567,9.6403,1416,2810.04
27159,1.2989,3.6763,10.149,1413,2810.04
27164,-0.9421,2.0363,10.9702,1417,2810.04
27169,-2.0016,-1.3503,12.1793,1416,2810.04
27174,-2.6624,1.0199,10.1957,1421,2810.04
27179,0.9206,3.1711,9.9838,1415,2810.17
27184,0.8667,2.9808,10.5728,1413,2810.17
27189,-1.6747,-0.7015,12.056,1419,2810.17
27194,-3.14,0.1903,11.0864,1405,2810.17
27199,0.4154,2.7414,9.7827,1420,2810.3
27204,1.4856,3.7038,10.2244,1419,2810.3
27209,-2.1536,0.4896,11.7364,1425,2810.3
27214,-2.9245,-0.577,11.7663,1417,2810.3
27219,-0.4262,2.3128,9.5888,1420,2810.3
27224,1.4138,3.8295,10.1155,1414,2810.3
27229,-2.1823,1.4186,11.3102,1415,2810.3
27234,-2.4193,-1.1983,12.1422,1421,2810.3
27239,-1.8627,1.6472,9.7743,1420,2810.04
27244,1.1277,3.5506,10.1382,1419,2810.04
27249,-0.3531,2.3284,10.914,1419,2810.04
27254,-1.8148,-1.2414,12.1602,1407,2810.04
27259,-2.8647,0.8344,10.4746,1414,2810.04
27264,0.8416,3.1113,9.9515,1407,2810.44
27269,1.2689,3.2106,10.4663,1419,2810.44
27274,-1.7226,-0.407,11.9483,1415,2810.44
27279,-3.1544,-0.0802,11.2635,1415,2810.44
27284,0.2251,2.5809,9.7061,1419,2810.57
27289,1.4688,3.7529,10.2328,1415,2810.57
27294,-2.3296,0.723,11.6191,1417,2810.57
27299,-2.9078,-0.7697,11.9375,1417,2810.57
27304,-0.8978,2.1799,9.5768,1418,2810.96
27309,1.3168,3.8714,10.1071,1421,2810.96
27314,-1.8304,1.749,11.2013,1416,2810.96
27319,-2.223,-1.2246,12.1733,1407,2810.96
27324,-2.1189,1.4653,9.9,1407,2810.96
27329,1.16,3.4093,10.0161,1415,2810.83
27334,0.2885,2.5355,10.7607,1408,2810.83
27339,-1.7131,-1.0846,12.0811,1417,2810.83
27344,-3.0071,0.5411,10.635,1417,2810.83
27349,0.6716,2.8778,9.8162,1419,2810.83
27354,1.3647,3.4117,10.3729,1416,2810.83
27359,-1.8663,-0.1209,11.8956,1407,2810.83
27364,-3.0622,-0.2634,11.5053,1421,2810.83
27369,-0.0527,2.5043,9.6546,1420,2810.7
27374,1.4234,3.9025,10.2005,1417,2810.7
27379,-2.3894,1.0534,11.5508,1408,2810.7
27384,-2.6564,-0.9098,11.9423,1415,2810.7
27389,-1.1696,1.9824,9.651,1421,2810.44
27394,1.2989,3.7134,10.0652,1415,2810.44
27399,-1.2677,1.9297,11.0409,1419,2810.44
27404,-2.0339,-1.415,12.1218,1416,2810.44
27409,-2.4157,1.1696,10.149,1421,2810.44
27414,1.0092,3.2298,10.0389,1417,2809.78
27419,0.6728,2.8491,10.6506,1404,2809.78
27424,-1.725,-0.9062,11.9842,1407,2809.78
27429,-3.0885,0.328,10.9654,1407,2809.78
27434,0.5602,2.8299,9.7755,1419,2809.51
27439,1.4521,3.6033,10.2903,1419,2809.51
27444,-2.0423,0.2693,11.71,1415,2809.51
27449,-2.9592,-0.51,11.6107,1415,2809.51
27454,-0.2682,2.3882,9.5828,1421,2809.25
27459,1.3946,3.8235,10.0568,1421,2809.25
27464,-2.296,1.2785,11.3677,1407,2809.25
27469,-2.5235,-1.1301,12.074,1427,2809.25
27474,-1.652,1.7681,9.7659,1415,2809.38
27479,1.1839,3.6033,10.088,1413,2809.38
27484,-0.6548,2.2362,10.9834,1421,2809.38
27489,-1.9573,-1.2438,12.1685,1407,2809.38
27494,-2.7114,1.0056,10.3657,1421,2809.38
27499,0.899,3.1352,9.906,1413,2809.65
27504,1.166,3.1017,10.5345,1417,2809.65
27509,-1.64,-0.5626,11.9554,1415,2809.65
27514,-3.0981,-0.0012,11.1893,1406,2809.65
27519,0.2969,2.6468,9.7456,1415,2809.65
27524,1.4509,3.7062,10.2029,1413,2809.65
27529,-2.2601,0.6021,11.6442,1419,2809.65
27534,-2.9688,-0.6883,11.801,1418,2809.65
27539,-0.7039,2.2613,9.6534,1419,2809.65
27544,1.3587,3.8211,10.1059,1423,2809.65
27549,-2.0231,1.6496,11.309,1415,2809.65
27554,-2.3152,-1.2139,12.1398,1415,2809.65
27559,-1.9896,1.5826,9.8976,1416,2809.65
27564,1.1408,3.4632,10.0712,1421,2809.65
27569,0.0215,2.4169,10.8374,1415,2809.65
27574,-1.6712,-1.2282,12.0799,1407,2809.65
27579,-2.9509,0.6189,10.5752,1417,2809.65
27584,0.7087,2.9473,9.9443,1416,2809.51
27589,1.2833,3.3782,10.4196,1416,2809.51
27594,-1.8136,-0.2598,11.9363,1407,2809.51
27599,-3.1436,-0.1353,11.3808,1427,2809.51
27604,0.1089,2.5965,9.6774,1423,2809.78
27609,1.4545,3.8487,10.1083,1406,2809.78
27614,-2.3918,1.008,11.5891,1408,2809.78
27619,-2.7306,-0.8475,11.9447,1414,2809.78
27624,-1.0415,2.0973,9.663,1418,2809.12
27629,1.2845,3.7409,10.0868,1415,2809.12
27634,-1.4413,1.7789,11.0576,1421,2809.12
27639,-2.1332,-1.3455,12.159,1408,2809.12
27644,-2.3379,1.2929,9.991,1421,2809.12
27649,0.9948,3.286,10.0616,1407,2810.17
27654,0.5076,2.7198,10.6925,1407,2810.17
27659,-1.7454,-0.9541,12.1135,1413,2810.17
27664,-3.0969,0.4465,10.8505,1425,2810.17
27669,0.6093,2.9102,9.8593,1419,2809.78
27674,1.4437,3.5482,10.2999,1415,2809.78
27679,-1.919,0.1532,11.8214,1415,2809.78
27684,-3.0119,-0.4322,11.5173,1407,2809.78
27689,-0.2059,2.4289,9.5696,1427,2809.51
27694,1.4198,3.8128,10.1382,1421,2809.51
27699,-2.3152,1.2127,11.4694,1413,2809.51
27704,-2.6252,-1.0726,12.062,1420,2809.51
27709,-1.4605,1.8567,9.6786,1423,2809.78
27714,1.2067,3.6763,10.155,1417,2809.78
27719,-0.9026,2.1021,10.9942,1415,2809.78
27724,-1.9549,-1.2749,12.1745,1413,2809.78
27729,-2.6779,1.0942,10.252,1421,2809.78
27734,0.9421,3.201,10.0509,1389,2809.91
27739,1.0092,3.0035,10.5381,1407,2809.91
27744,-1.5909,-0.6584,11.9985,1419,2809.91
27749,-3.1101,0.1041,10.9966,1416,2809.91
27754,0.3651,2.6995,9.7935,1407,2809.65
27759,1.4437,3.6272,10.2747,1417,2809.65
27764,-2.1871,0.4776,11.7244,1417,2809.65
27769,-3.0035,-0.6524,11.7831,1417,2809.65
27774,-0.5543,2.3535,9.6151,1422,2809.91
27779,1.3288,3.9061,10.1778,1421,2809.91
27784,-2.1249,1.5083,11.2982,1415,2809.91
27789,-2.4014,-1.1648,12.1171,1416,2809.91
27794,-1.8352,1.6831,9.8186,1407,2809.91
27799,1.1899,3.5303,10.088,1417,2809.51
27804,-0.2035,2.3044,10.8553,1407,2809.51
27809,-1.7789,-1.2965,12.1781,1405,2809.51
27814,-2.8587,0.753,10.4172,1415,2809.51
27819,0.7733,3.0203,9.9527,1405,2809.91
27824,1.1815,3.2298,10.4962,1417,2809.91
27829,-1.804,-0.3735,12.038,1407,2809.91
27834,-3.14,-0.1041,11.3234,1423,2809.91
27839,0.2071,2.6312,9.6845,1421,2809.91
27844,1.4581,3.8367,10.1849,1414,2809.91
27849,-2.3236,0.808,11.5592,1406,2809.91
27854,-2.7593,-0.7961,11.9016,1407,2809.91
27859,-0.8811,2.1572,9.5217,1426,2809.78
27864,1.3755,3.7816,10.094,1421,2809.78
27869,-1.7226,1.6999,11.1414,1421,2809.78
27874,-2.2039,-1.336,12.1973,1415,2809.78
27879,-2.2206,1.3803,9.973,1417,2809.78
27884,1.0762,3.3746,10.1071,1413,2810.57
27889,0.2705,2.6324,10.7188,1407,2810.57
27894,-1.7035,-1.0511,12.0764,1417,2810.57
27899,-3.0287,0.5842,10.7045,1415,2810.57
27904,0.7159,3.0035,9.9108,1420,2810.7
27909,1.4449,3.4788,10.3621,1417,2810.7
27914,-1.8543,0.0311,11.8238,1413,2810.7
27919,-3.0598,-0.3316,11.5221,1415,2810.7
27924,-0.0587,2.496,9.6043,1417,2810.44
27929,1.4054,3.8343,10.161,1423,2810.44
27934,-2.3499,1.0798,11.4658,1415,2810.44
27939,-2.7078,-0.9744,12.0716,1419,2810.44
27944,-1.312,1.9812,9.6857,1418,2810.44
27949,1.2342,3.7445,10.149,1415,2810.44
27954,-1.1995,1.9692,11.0528,1419,2810.44
27959,-2.0399,-1.2917,12.2068,1405,2810.44
27964,-2.5391,1.166,10.1011,1423,2810.44
27969,1.0762,3.2801,10.0329,1415,2810.44
27974,0.9026,2.8359,10.5955,1415,2810.44
27979,-1.6281,-0.7877,12.0428,1417,2810.44
27984,-3.0933,0.2215,11.0026,1416,2810.44
27989,0.4645,2.7689,9.7193,1419,2810.44
27994,1.4138,3.5781,10.3657,1419,2810.44
27999,-2.071,0.2873,11.7304,1421,2810.44
28004,-3.0095,-0.5399,11.7292,1419,2810.44
28009,-0.407,2.3296,9.5589,1421,2810.3
28014,1.3623,3.9157,10.1813,1416,2810.3
28019,-2.2901,1.3779,11.3533,1403,2810.3
28024,-2.4804,-1.087,12.1566,1421,2810.3
28029,-1.6508,1.7717,9.7169,1417,2810.3
28034,1.233,3.6152,10.0868,1417,2810.3
28039,-0.5459,2.1763,10.9259,1421,2810.3
28044,-1.8399,-1.3312,12.2044,1407,2810.3
28049,-2.7845,0.8691,10.3178,1399,2810.3
28054,0.844,3.0981,9.9826,1413,2810.44
28059,1.0511,3.1532,10.5309,1421,2810.44
28064,-1.6795,-0.5148,11.9674,1415,2810.44
28069,-3.1412,0.0778,11.1678,1407,2810.44
28074,0.2873,2.7318,9.7288,1421,2810.44
28079,1.4784,3.7864,10.2065,1415,2810.44
28084,-2.2613,0.6716,11.6322,1417,2810.44
28089,-2.8359,-0.6524,11.898,1404,2810.44
28094,-0.6692,2.1823,9.6055,1419,2810.17
28099,1.3719,3.8068,10.0628,1421,2810.17
28104,-1.9465,1.5598,11.2108,1417,2810.17
28109,-2.3284,-1.2414,12.1721,1402,2810.17
28114,-2.053,1.5227,9.8833,1414,2810.17
28119,1.0738,3.4536,10.0975,1415,2810.57
28124,-0.0215,2.4768,10.8026,1415,2810.57
28129,-1.7346,-1.1444,12.1937,1420,2810.57
28134,-2.964,0.6249,10.6446,1417,2810.57
28139,0.7709,3.0155,9.8641,1427,2810.44
28144,1.3551,3.3651,10.3741,1419,2810.44
28149,-1.7741,-0.1448,11.8597,1407,2810.44
28154,-3.0634,-0.2239,11.4419,1423,2810.44
28159,0.0658,2.5391,9.6558,1421,2810.57
28164,1.4724,3.808,10.1849,1419,2810.57
28169,-2.3607,0.9134,11.5604,1415,2810.57
28174,-2.7294,-0.9134,11.9722,1417,2810.57
28179,-1.0942,2.0482,9.5912,1421,2810.17
28184,1.2845,3.802,10.1131,1416,2810.17
28189,-1.5095,1.8495,11.1654,1421,2810.17
28194,-2.1296,-1.2677,12.1554,1415,2810.17
28199,-2.3631,1.3264,10.0868,1421,2810.17
28204,1.0678,3.3603,10.0173,1419,2810.3
28209,0.6057,2.709,10.7033,1413,2810.3
28214,-1.6616,-0.9481,11.9961,1405,2810.3
28219,-3.1005,0.3531,10.8038,1419,2810.3
28224,0.571,2.8335,9.8342,1419,2810.3
28229,1.3958,3.5542,10.2687,1417,2810.3
28234,-1.9716,0.1065,11.8309,1416,2810.3
28239,-3.0909,-0.3998,11.6538,1419,2810.3
28244,-0.1963,2.4792,9.6247,1420,2810.3
28249,1.4281,3.9085,10.1359,1421,2810.3
28254,-2.3523,1.2438,11.4419,1414,2810.3
28259,-2.5929,-1.0211,12.0728,1427,2810.3
28264,-1.4748,1.8806,9.7145,1430,2810.17
28269,1.2605,3.6428,10.0676,1413,2810.17
28274,-0.8942,2.059,10.9619,1421,2810.17
28279,-1.9465,-1.336,12.1446,1415,2810.17
28284,-2.6384,1.063,10.1861,1421,2810.17
28289,0.9014,3.1161,9.9455,1419,2810.3
28294,0.9361,2.9652,10.58,1419,2810.3
28299,-1.6149,-0.7362,12.0799,1415,2810.3
28304,-3.1436,0.2083,11.0911,1416,2810.3
28309,0.4094,2.7617,9.7767,1421,2810.04
28314,1.5083,3.7146,10.2807,1415,2810.04
28319,-2.1979,0.5088,11.7172,1413,2810.04
28324,-2.909,-0.5411,11.7184,1417,2810.04
28329,-0.498,2.32,9.5289,1425,2809.91
28334,1.397,3.8403,10.1107,1419,2809.91
28339,-2.15,1.4748,11.3545,1417,2809.91
28344,-2.3978,-1.2091,12.1027,1415,2809.91
28349,-1.8651,1.6352,9.8533,1418,2809.91
28354,1.1061,3.4764,10.1359,1421,2809.91
28359,-0.3041,2.3499,10.908,1407,2809.91
28364,-1.8531,-1.251,12.1111,1417,2809.91
28369,-2.885,0.8164,10.4698,1417,2809.91
28374,0.8152,3.0191,9.9551,1415,2810.17
28379,1.3001,3.2358,10.4998,1417,2810.17
28384,-1.6963,-0.334,11.9602,1401,2810.17
28389,-3.0574,-0.1113,11.2444,1428,2810.17
28394,0.2346,2.6133,9.6295,1421,2809.91
28399,1.4593,3.7673,10.1813,1417,2809.91
28404,-2.3212,0.7961,11.5915,1416,2809.91
28409,-2.8036,-0.8475,11.8944,1407,2809.91
28414,-0.9254,2.1296,9.6091,1433,2809.91
28419,1.2809,3.8092,10.1622,1421,2809.91
28424,-1.7202,1.7442,11.2097,1419,2809.91
28429,-2.2362,-1.2821,12.129,1414,2809.91
28434,-2.2158,1.4676,9.9778,1427,2809.91
28439,1.1109,3.3758,10.0437,1417,2810.17
28444,0.3747,2.5905,10.7619,1415,2810.17
28449,-1.6352,-1.0953,12.1075,1415,2810.17
28454,-2.9808,0.4717,10.653,1419,2810.17
28459,0.6524,2.9066,9.8438,1421,2810.17
28464,1.397,3.4536,10.3477,1419,2810.17
28469,-1.9237,-0.0503,11.8705,1415,2810.17
28474,-3.1388,-0.3316,11.552,1419,2810.17
28479,-0.0898,2.5055,9.6175,1439,2810.57
28484,1.4317,3.8595,10.1957,1427,2810.57
28489,-2.4122,1.1061,11.5341,1415,2810.57
28494,-2.6683,-0.9529,12.0105,1423,2810.57
28499,-1.2725,1.9728,9.6546,1428,2810.83
28504,1.318,3.6775,10.0963,1417,2810.83
28509,-1.1624,1.9058,11.0157,1417,2810.83
28514,-1.9788,-1.3623,12.1853,1415,2810.83
28519,-2.5498,1.148,10.088,1427,2810.83
28524,0.9661,3.2094,10.0281,1421,2811.09
28529,0.7626,2.8036,10.6303,1417,2811.09
28534,-1.6472,-0.8667,12.0632,1421,2811.09
28539,-3.1532,0.3005,10.9235,1417,2811.09
28544,0.5578,2.8395,9.8402,1413,2811.23
28549,1.4246,3.5889,10.2807,1419,2811.23
28554,-2.1033,0.3304,11.7699,1423,2811.23
28559,-2.988,-0.5183,11.6945,1417,2811.23
28564,-0.3172,2.3942,9.6079,1427,2810.96
28569,1.4006,3.8164,10.0987,1427,2810.96
28574,-2.2158,1.3324,11.3605,1415,2810.96
28579,-2.5271,-1.154,12.1051,1421,2810.96
28584,-1.6436,1.7837,9.7121,1419,2810.83
28589,1.1827,3.5518,10.1215,1427,2810.83
28594,-0.6584,2.211,10.9499,1421,2810.83
28599,-1.8974,-1.257,12.2846,1415,2810.83
28604,-2.7773,0.9744,10.2783,1416,2810.83
28609,0.8918,3.1328,9.9994,1414,2811.49
28614,1.1468,3.1113,10.4423,1421,2811.49
28619,-1.6472,-0.5662,11.9794,1415,2811.49
28624,-3.1268,0.0251,11.1366,1413,2811.49
28629,0.3579,2.6779,9.7241,1429,2811.23
28634,1.4808,3.6919,10.246,1420,2811.23
28639,-2.2482,0.5914,11.6945,1415,2811.23
28644,-2.9365,-0.735,11.8453,1417,2811.23
28649,-0.6596,2.217,9.56,1418,2811.36
28654,1.3108,3.8547,10.1622,1423,2811.36
28659,-2.0339,1.5502,11.2958,1419,2811.36
28664,-2.32,-1.2354,12.1781,1416,2811.36
28669,-2.0123,1.6185,9.8497,1415,2811.36
28674,1.1648,3.5183,10.0796,1415,2811.75
28679,-0.0311,2.399,10.835,1413,2811.75
28684,-1.7095,-1.1983,12.1194,1420,2811.75
28689,-2.9353,0.6608,10.4483,1417,2811.75
28694,0.7853,2.9892,9.9982,1427,2811.62
28699,1.3024,3.231,10.4399,1417,2811.62
28704,-1.731,-0.2442,11.9566,1413,2811.62
28709,-3.1783,-0.1712,11.333,1417,2811.62
28714,0.1065,2.6013,9.6367,1423,2811.75
28719,1.4389,3.8188,10.149,1426,2811.75
28724,-2.3942,0.9421,11.5616,1417,2811.75
28729,-2.818,-0.7997,11.9531,1419,2811.75
28734,-0.9936,2.0662,9.5876,1427,2811.62
28739,1.3671,3.7637,10.1179,1407,2811.62
28744,-1.5814,1.7921,11.1318,1427,2811.62
28749,-2.1691,-1.3048,12.1745,1415,2811.62
28754,-2.2877,1.3539,9.9922,1423,2811.62
28759,1.0858,3.3172,10.0365,1418,2811.62
28764,0.4752,2.654,10.6745,1419,2811.62
28769,-1.7071,-1.0642,12.068,1415,2811.62
28774,-3.0706,0.504,10.7571,1417,2811.62
28779,0.6764,2.9173,9.8976,1422,2811.62
28784,1.391,3.4668,10.3681,1419,2811.62
28789,-1.9249,0.0718,11.8381,1407,2811.62
28794,-3.043,-0.3112,11.5604,1419,2811.62
28799,-0.0826,2.5247,9.5972,1422,2811.75
28804,1.4533,3.8511,10.1382,1422,2811.75
28809,-2.3403,1.1025,11.4072,1415,2811.75
28814,-2.6252,-1.0139,12.0261,1421,2811.75
28819,-1.3168,1.9094,9.5984,1429,2811.89
28824,1.2486,3.6835,10.161,1419,2811.89
28829,-1.1265,2.0051,11.0169,1423,2811.89
28834,-2.0602,-1.3048,12.2009,1422,2811.89
28839,-2.6001,1.1756,10.1454,1427,2811.89
28844,0.984,3.2801,10.1251,1420,2812.15
28849,0.7997,2.9305,10.6338,1416,2812.15
28854,-1.634,-0.7649,12.0333,1420,2812.15
28859,-3.1089,0.1867,10.9271,1419,2812.15
28864,0.5375,2.7809,9.7276,1417,2812.28
28869,1.494,3.5757,10.2831,1420,2812.28
28874,-2.0806,0.34,11.7424,1426,2812.28
28879,-3.0538,-0.5878,11.7017,1421,2812.28
28884,-0.3891,2.387,9.5816,1423,2812.54
28889,1.3838,3.9073,10.167,1427,2812.54
28894,-2.3068,1.3551,11.3689,1415,2812.54
28899,-2.5582,-1.1217,12.1578,1419,2812.54
28904,-1.658,1.7813,9.6989,1419,2812.54
28909,1.2641,3.6536,10.0916,1421,2812.68
28914,-0.5734,2.1871,10.9223,1422,2812.68
28919,-1.8711,-1.2534,12.1661,1417,2812.68
28924,-2.7222,0.9673,10.3406,1417,2812.68
28929,0.9062,3.1208,9.9311,1415,2812.81
28934,1.1013,3.0394,10.5788,1421,2812.81
28939,-1.6089,-0.5854,11.9878,1415,2812.81
28944,-3.1328,0.0012,11.0828,1423,2812.81
28949,0.3017,2.6935,9.6379,1426,2812.94
28954,1.4485,3.7661,10.2627,1419,2812.94
28959,-2.2565,0.6249,11.6909,1417,2812.94
28964,-2.9054,-0.6381,11.8657,1418,2812.94
28969,-0.6369,2.2709,9.517,1431,2813.07
28974,1.4329,3.8846,10.0461,1421,2813.07
28979,-1.9848,1.6113,11.2456,1421,2813.07
28984,-1.8663,-1.3288,12.2104,1417,2813.07
28989,-1.9417,1.5526,9.8174,1417,2813.07
28994,0.899,3.0969,9.9862,1417,2812.81
28999,-0.1209,2.3894,10.8733,1417,2812.81
29004,-1.6484,-0.6009,12.0309,1421,2812.81
29009,-3.1508,0.1137,11.0911,1417,2812.81
29014,0.3855,2.727,9.7169,1427,2812.81
29019,1.5167,3.7505,10.2376,1419,2812.81
29024,-2.2027,0.6201,11.6693,1407,2812.81
29029,-2.8802,-0.6656,11.7519,1427,2812.81
29034,-0.6225,2.2637,9.5421,1423,2812.41
29039,1.3455,3.8307,10.0928,1429,2812.41
29044,-2.0111,1.5443,11.3222,1418,2812.41
29049,-2.3942,-1.2402,12.1613,1419,2812.41
29054,-1.9501,1.5886,9.8294,1429,2812.68
29059,1.1528,3.4596,10.0916,1419,2812.68
29064,-0.1736,2.4134,10.8577,1422,2812.68
29069,-1.8184,-1.1504,12.1649,1419,2812.68
29074,-2.9281,0.7757,10.5596,1426,2812.68
29079,0.7997,3.0275,9.9096,1419,2812.54
29084,1.3396,3.31,10.4471,1407,2812.54
29089,-1.7466,-0.3124,11.8776,1414,2812.54
29094,-3.1196,-0.1472,11.3186,1417,2812.54
29099,0.1772,2.5522,9.5565,1427,2812.68
29104,1.4712,3.7745,10.2161,1421,2812.68
29109,-2.3403,0.8045,11.6035,1419,2812.68
29114,-2.8527,-0.8703,11.995,1417,2812.68
29119,-0.9565,2.1428,9.578,1427,2812.54
29124,1.318,3.8595,10.1406,1423,2812.54
29129,-1.7119,1.7549,11.1953,1416,2812.54
29134,-2.2494,-1.2402,12.2176,1429,2812.54
29139,-2.2015,1.4736,9.9467,1431,2812.28
29144,1.0989,3.4189,10.1382,1419,2812.28
29149,0.346,2.5833,10.7619,1427,2812.28
29154,-1.6676,-1.0726,12.0488,1415,2812.28
29159,-3.0418,0.5136,10.6075,1427,2812.28
29164,0.6333,2.8958,9.8426,1419,2812.28
29169,1.3455,3.4297,10.3908,1421,2812.28
29174,-1.8471,-0.0611,11.8621,1421,2812.28
29179,-3.1089,-0.2777,11.4874,1417,2812.28
29184,-0.0682,2.5151,9.7205,1418,2812.41
29189,1.4557,3.8954,10.1323,1419,2812.41
29194,-2.381,1.0906,11.4694,1426,2812.41
29199,-2.6719,-0.9254,12.0249,1423,2812.41
29204,-1.2163,2.0087,9.6307,1427,2812.94
29209,1.3264,3.7409,10.0736,1427,2812.94
29214,-1.2402,1.901,11.0696,1415,2812.94
29219,-2.0363,-1.3982,12.1817,1423,2812.94
29224,-2.4924,1.148,10.0928,1419,2812.94
29229,0.929,3.237,10.0497,1427,2812.94
29234,0.6812,2.8144,10.6326,1423,2812.94
29239,-1.6987,-0.9194,12.0871,1415,2812.94
29244,-3.0969,0.3543,10.9463,1418,2812.94
29249,0.6081,2.8311,9.8007,1415,2813.07
29254,1.4796,3.6129,10.2939,1419,2813.07
29259,-2.0303,0.2574,11.7603,1418,2813.07
29264,-2.9772,-0.4166,11.6669,1425,2813.07
29269,-0.2167,2.4277,9.584,1423,2813.07
29274,1.4736,3.8211,10.1323,1422,2813.07
29279,-2.2913,1.2797,11.4742,1417,2813.07
29284,-2.5271,-1.1253,12.0692,1419,2813.07
29289,-1.5048,1.81,9.6594,1423,2813.07
29294,1.1684,3.6045,10.1167,1423,2813.07
29299,-0.82,2.1572,11.0361,1419,2813.07
29304,-1.9513,-1.2881,12.1733,1415,2813.07
29309,-2.6815,1.0534,10.2592,1419,2813.07
29314,0.9301,3.1915,10.0365,1417,2813.07
29319,1.0894,3.0382,10.5417,1418,2813.07
29324,-1.5802,-0.6093,12.0177,1419,2813.07
29329,-3.1256,0.1197,11.054,1418,2813.07
29334,0.395,2.6671,9.7528,1429,2813.2
29339,1.4234,3.6236,10.1945,1421,2813.2
29344,-2.1368,0.4405,11.6945,1417,2813.2
29349,-2.9844,-0.668,11.7723,1427,2813.2
29354,-0.5602,2.3068,9.6163,1425,2813.2
29359,1.3623,3.8666,10.1059,1429,2813.2
29364,-2.1416,1.5191,11.3282,1419,2813.2
29369,-2.4505,-1.1145,12.1422,1417,2813.2
29374,-1.804,1.7406,9.7827,1423,2813.34
29379,1.221,3.5817,10.0425,1419,2813.34
29384,-0.2634,2.3176,10.8553,1429,2813.34
29389,-1.7621,-1.2522,12.2152,1421,2813.34
29394,-2.8228,0.7913,10.4375,1429,2813.34
29399,0.8547,3.0275,9.93,1421,2813.34
29404,1.2474,3.1256,10.4579,1417,2813.34
29409,-1.7202,-0.4752,12.0033,1416,2813.34
29414,-3.2154,-0.0323,11.2456,1419,2813.34
29419,0.2155,2.6647,9.7312,1426,2812.94
29424,1.4042,3.7996,10.2484,1421,2812.94
29429,-2.3679,0.7757,11.6897,1419,2812.94
29434,-2.8647,-0.7147,11.9028,1421,2812.94
29439,-0.7649,2.1907,9.5996,1427,2812.54
29444,1.4042,3.8056,10.1359,1427,2812.54
29449,-1.7968,1.664,11.1438,1417,2812.54
29454,-2.241,-1.2833,12.1805,1431,2812.54
29459,-2.1261,1.4353,9.8952,1429,2812.15
29464,1.0965,3.4058,10.1311,1420,2812.15
29469,0.1425,2.49,10.799,1418,2812.15
29474,-1.7669,-1.1528,12.1302,1419,2812.15
29479,-3.0215,0.6608,10.5872,1427,2812.15
29484,0.7626,3.0083,9.9252,1420,2812.54
29489,1.3707,3.4189,10.3956,1419,2812.54
29494,-1.8459,-0.0587,11.9052,1427,2812.54
29499,-3.0873,-0.1915,11.4407,1423,2812.54
29504,0.0766,2.5857,9.6199,1415,2812.68
29509,1.4545,3.7924,10.1478,1421,2812.68
29514,-2.3451,0.9481,11.5568,1425,2812.68
29519,-2.7521,-0.9613,11.9662,1421,2812.68
29524,-1.1085,2.0087,9.6391,1429,2812.68
29529,1.2893,3.7577,10.0975,1427,2812.68
29534,-1.4545,1.8387,11.169,1415,2812.68
29539,-2.1679,-1.2845,12.214,1427,2812.68
29544,-2.4146,1.3707,10.0269,1421,2812.68
29549,1.0463,3.3591,10.0449,1429,2813.07
29554,0.6057,2.7162,10.6614,1422,2813.07
29559,-1.6484,-0.8894,12.0823,1417,2813.07
29564,-3.0239,0.3831,10.8002,1417,2813.07
29569,0.6177,2.8371,9.7995,1416,2813.07
29574,1.4569,3.4441,10.3142,1421,2813.07
29579,-1.9453,0.1257,11.8333,1419,2813.07
29584,-3.1089,-0.4836,11.5855,1420,2813.07
29589,-0.2239,2.4445,9.5253,1428,2813.34
29594,1.3803,3.8918,10.1825,1420,2813.34
29599,-2.3834,1.1995,11.4934,1419,2813.34
29604,-2.6109,-0.9637,12.0883,1417,2813.34
29609,-1.4281,1.9118,9.59,1426,2813.34
29614,1.3144,3.7565,10.137,1427,2813.34
29619,-0.9254,2.0698,10.9846,1419,2813.34
29624,-1.9585,-1.3072,12.2116,1416,2813.34
29629,-2.5893,1.0523,10.143,1417,2813.34
29634,0.9876,3.1819,10.0449,1419,2813.34
29639,0.899,2.8706,10.6027,1417,2813.34
29644,-1.6783,-0.7769,12.0213,1419,2813.34
29649,-3.1615,0.1867,10.9858,1417,2813.34
29654,0.4645,2.7988,9.7588,1426,2813.73
29659,1.4186,3.6919,10.2939,1423,2813.73
29664,-2.1691,0.4417,11.7867,1423,2813.73
29669,-2.9868,-0.5016,11.7519,1429,2813.73
29674,-0.3855,2.405,9.5541,1430,2813.73
29679,1.4593,3.8954,10.1538,1421,2813.73
29684,-2.1668,1.3575,11.2994,1419,2813.73
29689,-2.4481,-1.1648,12.129,1419,2813.73
29694,-1.7142,1.664,9.7121,1427,2814.13
29699,1.1899,3.5362,10.0856,1420,2814.13
29704,-0.5519,2.1967,10.8936,1427,2814.13
29709,-1.9297,-1.3156,12.214,1420,2814.13
29714,-2.8264,0.9541,10.3789,1431,2814.13
29719,0.9194,3.1352,10.0054,1420,2813.86
29724,1.1289,3.1807,10.5512,1419,2813.86
29729,-1.6628,-0.4956,12.0021,1417,2813.86
29734,-3.1208,0.0563,11.1761,1427,2813.86
29739,0.3831,2.6731,9.6199,1426,2813.99
29744,1.5323,3.7373,10.2089,1417,2813.99
29749,-2.2386,0.6129,11.6514,1417,2813.99
29754,-2.891,-0.6991,11.8621,1415,2813.99
29759,-0.6752,2.2051,9.499,1426,2814.13
29764,1.3228,3.869,10.1574,1429,2814.13
29769,-2.0399,1.5682,11.3078,1417,2814.13
29774,-2.405,-1.227,12.1721,1431,2814.13
29779,-1.9836,1.6257,9.7779,1427,2814.13
29784,1.1911,3.5614,10.1538,1419,2814.13
29789,-0.0922,2.4122,10.8326,1422,2814.13
29794,-1.737,-1.1289,12.1709,1418,2814.13
29799,-2.9161,0.7087,10.5189,1422,2814.13
29804,0.7853,2.9951,9.8964,1421,2814.39
29809,1.3443,3.1843,10.4387,1419,2814.39
29814,-1.7023,-0.3699,11.9782,1417,2814.39
29819,-3.2154,-0.1796,11.3342,1405,2814.39
29824,0.1329,2.5714,9.7001,1421,2814.26
29829,1.4377,3.8211,10.1789,1422,2814.26
29834,-2.3715,0.8392,11.5951,1425,2814.26
29839,-2.8383,-0.7661,11.9363,1422,2814.26
29844,-0.9254,2.1895,9.5672,1427,2814.13
29849,1.409,3.8858,10.1227,1429,2814.13
29854,-1.64,1.731,11.1594,1415,2814.13
29859,-2.1835,-1.245,12.1781,1426,2814.13
29864,-2.1955,1.4186,9.9527,1432,2813.73
29869,1.0953,3.3746,10.0209,1421,2813.73
29874,0.31,2.5343,10.6889,1427,2813.73
29879,-1.6879,-1.154,12.0404,1417,2813.73
29884,-3.0454,0.5662,10.6662,1425,2813.73
29889,0.6692,2.9197,9.8916,1417,2813.6
29894,1.342,3.45,10.3621,1427,2813.6
29899,-1.9178,-0.0551,11.9447,1420,2813.6
29904,-3.0789,-0.1951,11.5532,1419,2813.6
29909,0.0227,2.5295,9.5768,1417,2813.34
29914,1.5036,3.8642,10.1227,1419,2813.34
29919,-2.387,1.0283,11.4874,1425,2813.34
29924,-2.6683,-0.923,11.9985,1421,2813.34
29929,-1.16,1.9884,9.5421,1426,2813.07
29934,1.2737,3.6835,10.1203,1429,2813.07
29939,-1.3731,1.9058,11.0923,1417,2813.07
29944,-2.0638,-1.385,12.214,1415,2813.07
29949,-2.4541,1.2773,10.0592,1417,2813.07
29954,1.0463,3.286,10.0556,1425,2812.41
29959,0.6309,2.8204,10.6662,1421,2812.41
29964,-1.7142,-0.8679,12.0752,1415,2812.41
29969,-3.0622,0.3962,10.8781,1418,2812.41
29974,0.5914,2.8383,9.8234,1417,2812.68
29979,1.5131,3.5434,10.2975,1423,2812.68
29984,-1.9872,0.1844,11.7711,1419,2812.68
29989,-3.0203,-0.4741,11.5652,1430,2812.68
29994,-0.2873,2.3774,9.6079,1427,2812.41
30006,5.521,15.342,40.6392,1421,2812.41
30010,-2.9664,-0.6357,11.789,1426,2812.41
30015,-0.5567,2.2829,9.5768,1432,2812.41
30020,1.3455,3.8786,10.0365,1433,2812.41
30025,-2.1632,1.5048,11.3557,1421,2812.41
30030,-2.4529,-1.1468,12.1075,1419,2812.41
30035,-1.8423,1.737,9.8246,1421,2812.41
30040,1.2306,3.5482,10.0353,1427,2812.54
30045,-0.2729,2.3367,10.9212,1427,2812.54
30050,-1.7753,-1.2605,12.0859,1421,2812.54
30055,-2.8144,0.8068,10.3944,1419,2812.54
30060,0.8452,2.9784,9.8988,1423,2812.94
30065,1.2486,3.1376,10.501,1423,2812.94
30070,-1.7214,-0.4597,11.971,1415,2812.94
30075,-3.1747,-0.0922,11.2599,1433,2812.94
30080,0.2011,2.6492,9.6534,1431,2813.34
30085,1.3886,3.8391,10.1754,1421,2813.34
30090,-2.3619,0.7614,11.6466,1419,2813.34
30095,-2.8539,-0.6871,11.8836,1421,2813.34
30100,-0.7865,2.2206,9.5792,1437,2813.47
30105,1.391,3.8942,10.1131,1427,2813.47
30110,-1.834,1.6676,11.2396,1435,2813.47
30115,-2.1883,-1.2821,12.1482,1421,2813.47
30120,-2.1428,1.4437,9.8378,1429,2813.47
30125,1.1049,3.3938,10.009,1415,2813.47
30130,0.1508,2.4912,10.805,1418,2813.47
30135,-1.7585,-1.1959,12.1494,1423,2813.47
30140,-3.0562,0.6488,10.6303,1427,2813.47
30145,0.7482,3.0095,9.9323,1429,2813.86
30150,1.3958,3.4058,10.3729,1426,2813.86
30155,-1.8579,-0.1221,11.9088,1419,2813.86
30160,-3.1196,-0.1389,11.3856,1427,2813.86
30165,0.0622,2.5486,9.6594,1429,2813.73
30170,1.5131,3.7613,10.1179,1435,2813.73
30175,-2.3691,0.9589,11.5891,1415,2813.73
30180,-2.7569,-0.8882,11.983,1423,2813.73
30185,-1.0834,2.0387,9.6055,1423,2813.73
30190,1.2546,3.7445,10.0975,1423,2813.73
30195,-1.5335,1.8399,11.157,1430,2813.73
30200,-2.2398,-1.3252,12.1542,1421,2813.73
30205,-2.393,1.342,10.0449,1430,2813.73
30210,1.0499,3.3387,10.058,1421,2814.13
30215,0.5124,2.7102,10.7871,1421,2814.13
30220,-1.658,-0.9912,12.159,1421,2814.13
30225,-3.0634,0.4178,10.7619,1421,2814.13
30230,0.6476,2.8455,9.7827,1431,2813.99
30235,1.5107,3.4465,10.2867,1423,2813.99
30240,-1.9309,0.0407,11.8537,1421,2813.99
30245,-3.1316,-0.4166,11.5161,1423,2813.99
30250,-0.1736,2.4373,9.6307,1429,2814.13
30255,1.4257,3.8391,10.1694,1427,2814.13
30260,-2.3822,1.1624,11.4814,1419,2814.13
30265,-2.6779,-0.972,12.0117,1434,2814.13
30270,-1.3803,1.9417,9.5996,1435,2813.99
30275,1.2677,3.723,10.0784,1422,2813.99
30280,-1.0175,2.0135,10.9954,1431,2813.99
30285,-1.9537,-1.3168,12.2032,1419,2813.99
30290,-2.575,1.1325,10.1191,1427,2813.99
30295,1.0044,3.2166,10.009,1427,2814.39
30300,0.8823,2.8024,10.5656,1423,2814.39
30305,-1.6328,-0.844,12.1003,1427,2814.39
30310,-3.1747,0.255,10.9439,1425,2814.39
30315,0.4788,2.7773,9.8426,1421,2814.26
30320,1.4126,3.6081,10.3525,1427,2814.26
30325,-2.1045,0.3232,11.8633,1427,2814.26
30330,-3.0586,-0.4764,11.7711,1429,2814.26
30335,-0.3412,2.3882,9.5708,1432,2814.39
30340,1.4533,3.9109,10.0832,1427,2814.39
30345,-2.2254,1.3635,11.3605,1421,2814.39
30350,-2.5043,-1.1372,12.1135,1428,2814.39
30355,-1.6233,1.7729,9.7001,1421,2814.39
30360,1.2175,3.5686,10.1047,1427,2814.39
30365,-0.6752,2.156,10.9247,1430,2814.39
30370,-1.9201,-1.3408,12.2272,1415,2814.39
30375,-2.7509,0.9792,10.2903,1421,2814.39
30380,0.9469,3.1556,9.9958,1419,2814.13
30385,1.0906,3.0789,10.5153,1431,2814.13
30390,-1.7071,-0.5411,11.971,1421,2814.13
30395,-3.1412,0.1484,11.1414,1427,2814.13
30400,0.3926,2.7557,9.6965,1434,2814.13
30405,1.561,3.7122,10.2364,1427,2814.13
30410,-2.2075,0.559,11.655,1422,2814.13
30415,-2.9233,-0.6919,11.7819,1421,2814.13
30420,-0.5471,2.2206,9.4954,1431,2814.26
30425,1.3587,3.8176,10.1514,1431,2814.26
30430,-2.1213,1.488,11.309,1420,2814.26
30435,-2.4373,-1.2198,12.2068,1417,2814.26
30440,-1.9513,1.64,9.7468,1418,2814.26
30445,1.1396,3.5757,10.1742,1421,2814.26
30450,-0.2514,2.3631,10.8601,1425,2814.26
30455,-1.7957,-1.2091,12.1602,1423,2814.26
30460,-2.8922,0.7877,10.4567,1422,2814.26
30465,0.8859,3.0418,9.9359,1431,2814.26
30470,1.2857,3.2034,10.4603,1423,2814.26
30475,-1.7394,-0.3639,11.9507,1417,2814.26
30480,-3.0119,-0.6452,11.8178,1430,2814.26
30485,0.2131,2.6193,9.6702,1433,2813.99
30490,1.3743,3.8475,10.1215,1419,2813.99
30495,-2.1344,1.4784,11.3018,1421,2813.99
30500,-2.4229,-1.154,12.1793,1423,2813.99
30505,-1.8471,1.7047,9.7899,1431,2813.86
30510,1.2282,3.5901,10.0652,1421,2813.86
30515,-0.2406,2.2984,10.8769,1433,2813.86
30520,-1.8004,-1.2605,12.1649,1421,2813.86
30525,-2.8515,0.7745,10.3968,1432,2813.86
30530,0.844,3.0311,9.9563,1421,2814.13
30535,1.2007,3.1544,10.507,1421,2814.13
30540,-1.7214,-0.4226,12.0093,1421,2814.13
30545,-3.1603,-0.0024,11.3102,1425,2814.13
30550,0.2789,2.636,9.6798,1431,2813.99
30555,1.4485,3.8032,10.1993,1423,2813.99
30560,-2.3391,0.7697,11.6083,1423,2813.99
30565,-2.8838,-0.7147,11.9088,1421,2813.99
30570,-0.7937,2.1644,9.5493,1431,2813.86
30575,1.4246,3.8511,10.1263,1430,2813.86
30580,-1.8459,1.6496,11.248,1421,2813.86
30585,-2.2709,-1.2821,12.1757,1429,2813.86
30590,-2.1033,1.4904,9.8186,1433,2813.73
30595,1.1049,3.4465,10.0975,1423,2813.73
30600,0.0359,2.4696,10.8002,1431,2813.73
30605,-1.7023,-1.1827,12.1721,1419,2813.73
30610,-3.0394,0.6129,10.6051,1432,2813.73
30615,0.759,2.982,9.93,1425,2813.34
30620,1.4066,3.3423,10.3992,1418,2813.34
30625,-1.8304,-0.1784,11.9171,1429,2813.34
30630,-3.1041,-0.1604,11.3784,1423,2813.34
30635,0.1065,2.5809,9.6127,1427,2813.07
30640,1.5012,3.8475,10.1299,1428,2813.07
30645,-2.3846,0.9397,11.5484,1429,2813.07
30650,-2.7629,-0.8906,11.989,1429,2813.07
30655,-1.0391,2.0435,9.6247,1429,2812.68
30660,1.2893,3.7816,10.1155,1429,2812.68
30665,-1.5083,1.8531,11.1127,1421,2812.68
30670,-2.1596,-1.3012,12.147,1430,2812.68
30675,-2.3774,1.3431,10.009,1431,2812.28
30680,1.0558,3.3423,10.0449,1427,2812.28
30685,0.5375,2.7186,10.6961,1432,2812.28
30690,-1.6472,-0.9325,12.0967,1423,2812.28
30695,-3.043,0.4154,10.7811,1421,2812.28
30700,0.6153,2.8683,9.8246,1422,2812.28
30705,1.4341,3.4848,10.3657,1429,2812.28
30710,-1.9345,0.0634,11.8166,1421,2812.28
30715,-3.0562,-0.3891,11.5879,1426,2812.28
30720,-0.17,2.4157,9.5792,1435,2812.02
30725,1.409,3.899,10.1801,1421,2812.02
30730,-2.4229,1.1456,11.4539,1427,2812.02
30735,-2.648,-0.9673,12.0835,1425,2812.02
30740,-1.3743,1.9417,9.6486,1428,2812.15
30745,1.336,3.7397,10.094,1431,2812.15
30750,-1.0127,2.0171,11.0133,1421,2812.15
30755,-1.9417,-1.3192,12.1949,1420,2812.15
30760,-2.6073,1.075,10.1287,1415,2812.15
30765,0.9852,3.1867,9.9659,1423,2812.28
30770,0.9038,2.8323,10.5908,1427,2812.28
30775,-1.6688,-0.8128,12.038,1423,2812.28
30780,-3.1603,0.2322,10.9283,1421,2812.28
30785,0.4585,2.7497,9.8055,1425,2813.07
30790,1.4688,3.6727,10.3034,1426,2813.07
30795,-2.1512,0.3879,11.734,1420,2813.07
30800,-2.9963,-0.504,11.7663,1431,2813.07
30805,-0.3795,2.3451,9.5756,1433,2813.34
30810,1.3958,3.8822,10.0461,1427,2813.34
30815,-2.2625,1.3695,11.3593,1419,2813.34
30820,-2.472,-1.1444,12.1051,1423,2813.34
30825,-1.7047,1.6891,9.7707,1435,2813.07
30830,1.2342,3.5578,10.0616,1420,2813.07
30835,-0.5363,2.2709,10.963,1433,2813.07
30840,-1.9046,-1.3192,12.1338,1423,2813.07
30845,-2.8228,0.9026,10.3633,1433,2813.07
30850,0.9218,3.0981,9.9467,1418,2813.99
30855,1.1588,3.1113,10.5237,1420,2813.99
30860,-1.7442,-0.577,12.0177,1423,2813.99
30865,-3.1699,0.0694,11.1737,1428,2813.99
30870,0.3711,2.7054,9.6953,1429,2813.47
30875,1.4581,3.7517,10.2328,1427,2813.47
30880,-2.2458,0.6129,11.6729,1419,2813.47
30885,-2.8838,-0.729,11.8022,1423,2813.47
30890,-0.6668,2.217,9.5193,1427,2813.2
30895,1.3491,3.8463,10.1155,1432,2813.2
30900,-2.0123,1.5514,11.2899,1422,2813.2
30905,-2.3691,-1.2378,12.1254,1432,2813.2
30910,-1.9632,1.6257,9.8174,1431,2813.2
30915,1.1456,3.5087,10.094,1421,2813.2
30920,-0.0934,2.4325,10.8601,1429,2813.2
30925,-1.7238,-1.1636,12.0955,1419,2813.2
30930,-2.8958,0.7159,10.4926,1431,2813.2
30935,0.8021,2.9987,9.9659,1427,2813.34
30940,1.3587,3.2537,10.4351,1425,2813.34
30945,-1.7382,-0.334,11.8752,1427,2813.34
30950,-3.1388,-0.158,11.327,1422,2813.34
30955,0.1808,2.5833,9.6654,1427,2813.47
30960,1.4138,3.8259,10.1382,1426,2813.47
30965,-2.3798,0.8404,11.6346,1432,2813.47
30970,-2.8623,-0.8212,11.9698,1426,2813.47
30975,-0.9589,2.15,9.6403,1433,2813.6
30980,1.3683,3.8379,10.1119,1425,2813.6
30985,-1.6759,1.7573,11.1414,1420,2813.6
30990,-2.1691,-1.3024,12.1051,1430,2813.6
30995,-2.2218,1.4006,9.8857,1432,2813.6
31000,1.1289,3.3651,10.0497,1421,2813.6
31005,0.4082,2.5666,10.7583,1431,2813.6
31010,-1.7071,-1.1145,12.1314,1417,2813.6
31015,-3.0598,0.5507,10.6985,1423,2813.6
31020,0.7111,2.8958,9.8474,1423,2813.6
31025,1.4042,3.456,10.3789,1431,2813.6
31030,-1.889,-0.0263,11.9016,1427,2813.6
31035,-3.1208,-0.2574,11.5365,1429,2813.6
31040,-0.0407,2.4912,9.6666,1427,2813.47
31045,1.47,3.9049,10.1837,1425,2813.47
31050,-2.3511,1.0738,11.5365,1433,2813.47
31055,-2.63,-0.9541,12.0428,1423,2813.47
31060,-1.257,1.9525,9.5816,1435,2813.47
31065,1.33,3.7038,10.082,1431,2813.47
31070,-1.2378,1.9525,11.0696,1427,2813.47
31075,-2.1081,-1.3755,12.1649,1421,2813.47
31080,-2.5055,1.2282,10.082,1425,2813.47
31085,0.9972,3.292,10.1179,1429,2813.07
31090,0.6201,2.8024,10.6291,1429,2813.07
31095,-1.6305,-0.8882,12.0368,1419,2813.07
31100,-3.1173,0.3448,10.8469,1421,2813.07
31105,0.6129,2.8503,9.833,1421,2813.2
31110,1.4796,3.5362,10.2831,1429,2813.2
31115,-1.9656,0.2382,11.8585,1418,2813.2
31120,-3.0251,-0.4573,11.6298,1433,2813.2
31125,-0.2562,2.4397,9.5924,1435,2813.34
31130,1.4126,3.8654,10.0712,1425,2813.34
31135,-2.3595,1.2163,11.4563,1420,2813.34
31140,-2.5881,-1.148,12.1171,1423,2813.34
31145,-1.5419,1.8663,9.7001,1435,2813.6
31150,1.251,3.6607,10.1239,1429,2813.6
31155,-0.8284,2.1225,10.9846,1430,2813.6
31160,-1.9285,-1.2354,12.1853,1421,2813.6
31165,-2.6743,1.063,10.2364,1427,2813.6
31170,0.9625,3.1951,9.9443,1419,2813.47
31175,1.0451,2.9736,10.5656,1421,2813.47
31180,-1.64,-0.7063,12.0201,1423,2813.47
31185,-3.1687,0.1053,11.0552,1427,2813.47
31190,0.431,2.6899,9.7636,1431,2814.66
31195,1.4425,3.6907,10.3082,1423,2814.66
31200,-2.138,0.4657,11.728,1421,2814.66
31205,-2.9939,-0.6261,11.807,1421,2814.66
31210,-0.5459,2.2996,9.5553,1435,2814.52
31215,1.4162,3.8906,10.1394,1431,2814.52
31220,-2.1679,1.4808,11.3389,1423,2814.52
31225,-2.4385,-1.1588,12.1566,1427,2814.52
31230,-1.8172,1.7178,9.6833,1432,2814.52
31235,1.2665,3.5518,10.1059,1423,2814.52
31240,-0.3388,2.2948,10.8362,1431,2814.52
31245,-1.7945,-1.3288,12.2332,1426,2814.52
31250,-2.8551,0.82,10.3561,1431,2814.52
31255,0.8835,3.0514,9.9431,1426,2814.66
31260,1.1337,3.1388,10.562,1423,2814.66
31265,-1.6807,-0.4812,12.0189,1421,2814.66
31270,-3.1831,0.018,11.23,1423,2814.66
31275,0.2945,2.7019,9.7516,1431,2814.13
31280,1.47,3.7972,10.2161,1423,2814.13
31285,-2.3044,0.7063,11.5808,1423,2814.13
31290,-2.8802,-0.7422,11.874,1427,2814.13
31295,-0.7242,2.1967,9.5457,1431,2813.73
31300,1.403,3.8355,10.1155,1431,2813.73
31305,-1.913,1.6257,11.2085,1425,2813.73
31310,-2.2889,-1.2689,12.1194,1434,2813.73
31315,-2.0351,1.5095,9.8234,1435,2812.81
31320,1.1277,3.4465,10.1394,1429,2812.81
31325,-0.0371,2.4313,10.8098,1421,2812.81
31330,-1.7346,-1.172,12.1613,1416,2812.81
31335,-2.9796,0.6752,10.58,1431,2812.81
31340,0.8021,3.0622,9.9347,1423,2812.81
31345,1.3551,3.3471,10.4387,1423,2812.81
31350,-1.7885,-0.1748,11.9147,1429,2812.81
31355,-3.1113,-0.1927,11.3928,1418,2812.81
31360,0.1041,2.6025,9.6295,1420,2812.41
31365,1.4748,3.8235,10.2232,1427,2812.41
31370,-2.4062,0.8727,11.5401,1431,2812.41
31375,-2.7665,-0.9122,12.0177,1427,2812.41
31380,-1.0534,2.0542,9.5553,1429,2812.68
31385,1.3312,3.7876,10.1574,1431,2812.68
31390,-1.585,1.8028,11.1007,1421,2812.68
31395,-2.1703,-1.2929,12.2571,1423,2812.68
31400,-2.3272,1.3815,9.9838,1425,2812.41
31405,1.1181,3.4213,10.0449,1433,2812.41
31410,0.498,2.636,10.7009,1429,2812.41
31415,-1.6269,-1.0032,12.0548,1419,2812.41
31420,-3.0347,0.4166,10.7284,1420,2812.41
31425,0.6381,2.8407,9.8701,1421,2812.68
31430,1.4521,3.4991,10.3334,1429,2812.68
31435,-1.9561,0.0227,11.8968,1407,2812.68
31440,-3.1161,-0.3783,11.6011,1429,2812.68
31445,-0.1568,2.4948,9.6582,1436,2812.68
31450,1.397,3.9253,10.1981,1423,2812.68
31455,-2.3858,1.1624,11.4575,1423,2812.68
31460,-2.6492,-0.9685,12.1338,1421,2812.68
31465,-1.3647,1.9453,9.6905,1429,2812.81
31470,1.3659,3.7421,10.0987,1431,2812.81
31475,-1.0714,1.9632,11.0169,1426,2812.81
31480,-2.0027,-1.33,12.1781,1422,2812.81
31485,-2.5558,1.0989,10.1933,1423,2812.81
31490,0.9517,3.1639,10.0054,1422,2812.94
31495,0.8128,2.8659,10.6518,1423,2812.94
31500,-1.6676,-0.8296,12.0297,1429,2812.94
31505,-3.1424,0.261,10.9475,1426,2812.94
31510,0.5219,2.7869,9.8007,1429,2813.07
31515,1.47,3.7002,10.3382,1421,2813.07
31520,-2.1584,0.4046,11.7364,1421,2813.07
31525,-2.976,-0.4693,11.7316,1431,2813.07
31530,-0.2873,2.3296,9.5397,1433,2812.81
31535,1.4808,3.8427,10.1107,1427,2812.81
31540,-2.2649,1.3288,11.3174,1422,2812.81
31545,-2.4409,-1.1396,12.0704,1425,2812.81
31550,-1.6652,1.7334,9.7564,1429,2812.68
31555,1.1815,3.6188,10.167,1420,2812.68
31560,-0.6476,2.2015,10.9403,1433,2812.68
31565,-1.9249,-1.2965,12.1841,1427,2812.68
31570,-2.7545,0.9553,10.3286,1431,2812.68
31575,0.9278,3.1256,10.0221,1426,2813.6
31580,1.1277,3.128,10.5321,1425,2813.6
31585,-1.6951,-0.4896,11.9542,1415,2813.6
31590,-3.122,0.0622,11.1594,1425,2813.6
31595,0.3723,2.6408,9.7085,1431,2813.6
31600,1.5119,3.7385,10.2388,1423,2813.6
31605,-2.2458,0.5112,11.6705,1421,2813.6
31610,-2.9341,-0.7099,11.7783,1426,2813.6
31615,-0.6548,2.217,9.5672,1429,2813.99
31620,1.3443,3.8523,10.1323,1430,2813.99
31625,-2.1057,1.5479,11.3042,1423,2813.99
31630,-2.4469,-1.1672,12.1446,1431,2813.99
31635,-1.9752,1.6604,9.8186,1431,2814.13
31640,1.1935,3.5314,10.0413,1425,2814.13
31645,-0.1185,2.381,10.8481,1419,2814.13
31650,-1.7154,-1.227,12.0979,1417,2814.13
31655,-2.8958,0.7266,10.4878,1433,2814.13
31660,0.8212,2.9856,9.8928,1429,2814.52
31665,1.3443,3.1963,10.4914,1425,2814.52
31670,-1.7514,-0.3675,11.9243,1427,2814.52
31675,-3.1651,-0.0515,11.2887,1423,2814.52
31680,0.1903,2.5869,9.645,1427,2814.39
31685,1.4605,3.8535,10.2532,1421,2814.39
31690,-2.4002,0.8452,11.655,1432,2814.39
31695,-2.8299,-0.7242,11.9483,1426,2814.39
31700,-0.9134,2.1476,9.5636,1434,2814.52
31705,1.4162,3.8379,10.1143,1427,2814.52
31710,-1.7214,1.6795,11.2037,1421,2814.52
31715,-2.1955,-1.2953,12.141,1431,2814.52
31720,-2.1871,1.4365,9.8773,1431,2814.39
31725,1.148,3.4022,10.137,1427,2814.39
31730,0.2418,2.5259,10.7978,1432,2814.39
31735,-1.7933,-1.1516,12.1039,1408,2814.39
31740,-3.049,0.5842,10.6566,1423,2814.39
31745,0.7374,2.9425,9.9192,1421,2814.13
31750,1.3611,3.4405,10.386,1431,2814.13
31755,-1.8818,-0.085,11.9135,1427,2814.13
31760,-3.1196,-0.1951,11.4658,1427,2814.13
31765,0.103,2.5833,9.6462,1431,2813.99
31770,1.476,3.8307,10.1382,1429,2813.99
31775,-2.3762,1.0056,11.5233,1429,2813.99
31780,-2.715,-0.9457,11.9614,1426,2813.99
31785,-1.1349,2.0219,9.6055,1429,2813.86
31790,1.2833,3.7134,10.1119,1421,2813.86
31795,-1.488,1.8519,11.1259,1425,2813.86
31800,-2.1751,-1.3455,12.1793,1419,2813.86
31805,-2.4433,1.3001,10.0329,1427,2813.86
31810,1.057,3.3423,10.0556,1429,2814.26
31815,0.6297,2.7485,10.7452,1429,2814.26
31820,-1.6484,-0.972,12.0907,1427,2814.26
31825,-3.0813,0.3962,10.8026,1421,2814.26
31830,0.6273,2.8503,9.8258,1425,2814.39
31835,1.5299,3.4788,10.3465,1425,2814.39
31840,-1.9728,0.1197,11.9004,1417,2814.39
31845,-3.0813,-0.4274,11.576,1435,2814.39
31850,-0.1915,2.4193,9.5062,1437,2814.39
31855,1.4126,3.8427,10.1347,1427,2814.39
31860,-2.3918,1.2163,11.5353,1421,2814.39
31865,-2.6863,-1.0116,12.0644,1421,2814.39
31870,-1.415,1.9309,9.7013,1421,2814.13
31875,1.2965,3.729,10.1562,1431,2814.13
31880,-0.9876,2.0435,11.066,1439,2814.13
31885,-1.9884,-1.2833,12.1578,1423,2814.13
31890,-2.5295,1.0858,10.1179,1431,2814.13
31895,1.0247,3.1711,9.9922,1421,2813.86
31900,0.9278,2.8647,10.5764,1421,2813.86
31905,-1.634,-0.7817,12.0931,1427,2813.86
31910,-3.1711,0.2155,10.9331,1428,2813.86
31915,0.5076,2.7677,9.8533,1431,2813.99
31920,1.4114,3.6547,10.2352,1426,2813.99
31925,-2.1069,0.413,11.8501,1421,2813.99
31930,-3.055,-0.4729,11.734,1423,2813.99
31935,-0.3891,2.4277,9.5876,1429,2813.6
31940,1.4856,3.8906,10.1035,1435,2813.6
31945,-2.211,1.3862,11.3557,1421,2813.6
31950,-2.4983,-1.1157,12.1374,1429,2813.6
31955,-1.6424,1.7585,9.7085,1428,2813.47
31960,1.257,3.5686,10.0592,1427,2813.47
31965,-0.577,2.1847,10.9547,1435,2813.47
31970,-1.8615,-1.3611,12.1542,1425,2813.47
31975,-2.7713,0.9158,10.3034,1429,2813.47
31980,0.8739,3.1244,9.9838,1425,2814.52
31985,1.0798,3.1388,10.4627,1425,2814.52
31990,-1.719,-0.5435,12.0608,1419,2814.52
31995,-3.1316,0.097,11.1642,1427,2814.52
32000,0.3843,2.7665,9.6869,1429,2814.13
32005,1.5107,3.6895,10.2125,1427,2814.13
32010,-2.1931,0.6237,11.7388,1427,2814.13
32015,-2.9149,-0.6644,11.8513,1426,2814.13
32020,-0.6333,2.247,9.5565,1433,2813.99
32025,1.3539,3.8128,10.1478,1421,2813.99
32030,-2.0614,1.5479,11.2563,1423,2813.99
32035,-2.393,-1.1911,12.1458,1432,2813.99
32040,-2.0207,1.5969,9.7719,1435,2813.73
32045,1.166,3.5458,10.1311,1427,2813.73
32050,-0.1628,2.4002,10.8338,1429,2813.73
32055,-1.798,-1.1779,12.1901,1417,2813.73
32060,-2.9353,0.7446,10.4663,1429,2813.73
32065,0.82,3.0155,9.8928,1427,2813.73
32070,1.324,3.2178,10.4339,1427,2813.73
32075,-1.7059,-0.3663,11.9088,1427,2813.73
32080,-3.1424,-0.1413,11.3054,1423,2813.73
32085,0.2263,2.5786,9.645,1420,2813.73
32090,1.4293,3.784,10.1801,1429,2813.73
32095,-2.3343,0.8116,11.6382,1427,2813.73
32100,-2.8599,-0.7829,11.9435,1427,2813.73
32105,-0.9086,2.1261,9.5325,1435,2813.73
32110,1.3934,3.8259,10.0652,1430,2813.73
32115,-1.725,1.7346,11.1857,1421,2813.73
32120,-2.2685,-1.2546,12.2188,1431,2813.73
32125,-2.1931,1.4461,9.8737,1426,2813.86
32130,1.136,3.3938,10.0796,1433,2813.86
32135,0.2777,2.5331,10.7464,1432,2813.86
32140,-1.6735,-1.1061,12.0799,1417,2813.86
32145,-3.0311,0.5267,10.6183,1421,2813.86
32150,0.7266,2.8982,9.8485,1426,2813.6
32155,1.3491,3.4069,10.4208,1429,2813.6
32160,-1.883,-0.0682,11.8944,1421,2813.6
32165,-3.1711,-0.1796,11.5173,1426,2813.6
32170,-0.0144,2.5474,9.5804,1431,2813.73
32175,1.4928,3.8595,10.1706,1426,2813.73
32180,-2.3978,1.0451,11.467,1423,2813.73
32185,-2.7186,-0.911,12.0009,1420,2813.73
32190,-1.1396,1.9656,9.56,1431,2813.47
32195,1.3515,3.7158,10.1143,1433,2813.47
32200,-1.3779,1.8507,11.1043,1426,2813.47
32205,-2.0794,-1.3276,12.1757,1423,2813.47
32210,-2.4337,1.2426,10.0173,1420,2813.47
32215,1.0151,3.3016,10.1011,1419,2813.47
32220,0.6009,2.7246,10.6614,1421,2813.47
32225,-1.634,-0.9266,12.0799,1429,2813.47
32230,-3.1711,0.3651,10.8457,1423,2813.47
32235,0.6416,2.8874,9.8222,1433,2813.47
32240,1.4952,3.5698,10.3034,1427,2813.47
32245,-1.9884,0.2095,11.7843,1421,2813.47
32250,-3.0167,-0.4262,11.6059,1431,2813.47
32255,-0.1664,2.3739,9.5337,1433,2813.47
32260,1.4485,3.8235,10.1035,1431,2813.47
32265,-2.3284,1.1935,11.4287,1426,2813.47
32270,-2.6133,-1.0582,12.0823,1421,2813.47
32275,-1.4856,1.8687,9.6343,1433,2813.47
32280,1.2366,3.6883,10.1203,1423,2813.47
32285,-0.9218,2.077,11.0277,1437,2813.47
32290,-2.0183,-1.2773,12.226,1421,2813.47
32295,-2.6348,1.0726,10.1909,1433,2813.47
32300,0.9744,3.2046,9.9814,1421,2813.6
32305,0.9756,2.9485,10.6027,1421,2813.6
32310,-1.6053,-0.747,11.995,1421,2813.6
32315,-3.1615,0.1245,11.0085,1423,2813.6
32320,0.4585,2.739,9.7085,1432,2813.6
32325,1.4844,3.6835,10.2544,1427,2813.6
32330,-2.1596,0.3926,11.6705,1420,2813.6
32335,-3.0263,-0.6081,11.7615,1425,2813.6
32340,-0.4274,2.3236,9.5612,1433,2813.47
32345,1.4425,3.9277,10.1945,1433,2813.47
32350,-2.2242,1.4317,11.3521,1421,2813.47
32355,-2.4361,-1.1217,12.1111,1431,2813.47
32360,-1.7885,1.7154,9.6822,1429,2813.07
32365,1.257,3.6248,10.0952,1423,2813.07
32370,-0.4022,2.1991,10.8948,1427,2813.07
32375,-1.8124,-1.3252,12.159,1421,2813.07
32380,-2.8311,0.832,10.3896,1432,2813.07
32385,0.893,3.0358,10.0185,1425,2814.13
32390,1.142,3.1089,10.4986,1423,2814.13
32395,-1.6987,-0.5112,11.9734,1427,2814.13
32400,-3.1963,0.0407,11.2863,1427,2814.13
32405,0.3304,2.6288,9.7695,1429,2813.47
32410,1.4964,3.8271,10.1873,1429,2813.47
32415,-2.326,0.7111,11.661,1428,2813.47
32420,-2.8695,-0.6261,11.9064,1428,2813.47
32425,-0.7338,2.2015,9.572,1434,2813.2
32430,1.4042,3.8271,10.0784,1431,2813.2
32435,-1.9465,1.5766,11.2468,1423,2813.2
32440,-2.3703,-1.2653,12.1482,1431,2813.2
32445,-2.0889,1.5335,9.8857,1431,2813.34
32450,1.1396,3.4488,10.0796,1429,2813.34
32455,-0.0239,2.4732,10.8924,1431,2813.34
32460,-1.743,-1.2043,12.2068,1420,2813.34
32465,-2.9796,0.7314,10.5644,1427,2813.34
32470,0.7973,2.964,9.8869,1423,2813.2
32475,1.3431,3.3471,10.4028,1429,2813.2
32480,-1.7657,-0.261,11.8824,1430,2813.2
32485,-3.1304,-0.1616,11.3294,1427,2813.2
32490,0.1448,2.5654,9.6558,1433,2813.47
32495,1.47,3.79,10.1957,1423,2813.47
32500,-2.3451,0.8978,11.5951,1429,2813.47
32505,-2.8419,-0.8667,11.9279,1427,2813.47
32510,-1.0008,2.0734,9.5409,1423,2813.47
32515,1.3012,3.7769,10.1227,1427,2813.47
32520,-1.6316,1.7633,11.1941,1425,2813.47
32525,-2.2422,-1.2594,12.1889,1421,2813.47
32530,-2.2877,1.4102,9.9982,1421,2813.47
32535,1.1025,3.3591,10.0772,1429,2813.34
32540,0.4764,2.6803,10.7057,1427,2813.34
32545,-1.6652,-1.0534,12.0572,1416,2813.34
32550,-3.0646,0.413,10.6698,1425,2813.34
32555,0.6764,2.8443,9.8438,1423,2813.34
32560,1.4317,3.462,10.3789,1427,2813.34
32565,-1.913,0.0204,11.892,1417,2813.34
32570,-3.1675,-0.3519,11.5281,1431,2813.34
32575,-0.103,2.466,9.6319,1433,2813.34
32580,1.4365,3.863,10.0999,1425,2813.34
32585,-2.3834,1.1061,11.5233,1421,2813.34
32590,-2.6959,-0.9756,12.0512,1423,2813.34
32595,-1.3072,1.9788,9.645,1436,2813.2
32600,1.3563,3.7541,10.082,1431,2813.2
32605,-1.1528,1.9896,11.0696,1437,2813.2
32610,-2.0411,-1.3599,12.1602,1418,2813.2
32615,-2.49,1.1684,10.0664,1430,2813.2
32620,1.0092,3.1831,10.0185,1423,2813.2
32625,0.7925,2.824,10.659,1427,2813.2
32630,-1.64,-0.8715,12.1039,1422,2813.2
32635,-3.1364,0.3172,10.896,1426,2813.2
32640,0.571,2.8287,9.7923,1431,2813.47
32645,1.4808,3.6057,10.2963,1425,2813.47
32650,-2.0518,0.2574,11.8034,1422,2813.47
32655,-3.061,-0.4214,11.631,1427,2813.47
32660,-0.2945,2.381,9.5876,1431,2813.47
32665,1.4581,3.8666,10.0916,1433,2813.47
32670,-2.2853,1.3132,11.3617,1427,2813.47
32675,-2.5642,-1.1301,12.1015,1429,2813.47
32680,-1.5909,1.8172,9.6642,1427,2813.47
32685,1.245,3.6033,10.1035,1427,2813.47
32690,-0.7661,2.1584,10.9212,1429,2813.47
32695,-1.9106,-1.3396,12.1829,1423,2813.47
32700,-2.7509,1.0175,10.3334,1431,2813.47
32705,0.9122,3.14,10.0185,1427,2813.2
32710,1.057,3.0526,10.4818,1423,2813.2
32715,-1.6759,-0.6345,12.0608,1421,2813.2
32720,-3.1591,0.1125,11.0624,1425,2813.2
32725,0.4561,2.7461,9.6989,1429,2813.2
32730,1.4653,3.6823,10.1945,1423,2813.2
32735,-2.1919,0.5327,11.7555,1429,2813.2
32740,-2.9544,-0.6644,11.7974,1429,2813.2
32745,-0.5351,2.2936,9.5768,1433,2813.07
32750,1.3599,3.8343,10.1406,1427,2813.07
32755,-2.1416,1.4712,11.3138,1419,2813.07
32760,-2.4445,-1.1923,12.1242,1431,2813.07
32765,-1.8783,1.6795,9.7803,1431,2813.07
32770,1.2103,3.5817,10.1442,1422,2813.07
32775,-0.2538,2.3439,10.89,1431,2813.07
32780,-1.7693,-1.2749,12.1937,1419,2813.07
32785,-2.8898,0.7865,10.3944,1427,2813.07
32790,0.8595,3.0478,9.9311,1427,2812.68
32795,1.2617,3.2094,10.4519,1429,2812.68
32800,-1.7119,-0.4142,11.9531,1427,2812.68
32805,-3.1891,-0.0946,11.303,1427,2812.68
32810,0.2107,2.6312,9.7025,1429,2812.15
32815,1.4461,3.7816,10.2388,1419,2812.15
32820,-2.3331,0.7805,11.6418,1429,2812.15
32825,-2.8922,-0.7793,11.9291,1429,2812.15
32830,-0.8715,2.1955,9.5421,1434,2813.07
32835,1.3838,3.8547,10.1311,1435,2813.07
32840,-1.8184,1.6915,11.1761,1426,2813.07
32845,-2.2314,-1.2929,12.1805,1421,2813.07
32850,-2.144,1.5012,9.9048,1423,2813.07
32855,1.1468,3.4405,10.0652,1427,2812.81
32860,0.2023,2.5103,10.7296,1427,2812.81
32865,-1.6735,-1.172,12.1171,1421,2812.81
32870,-3.0514,0.5495,10.5788,1423,2812.81
32875,0.7195,2.9652,9.9671,1423,2812.81
32880,1.3527,3.3878,10.3753,1428,2812.81
32885,-1.8651,-0.0886,11.9255,1419,2812.81
32890,-3.1328,-0.1856,11.473,1433,2812.81
32895,0.0575,2.5618,9.5672,1435,2812.81
32900,1.4748,3.8559,10.1406,1427,2812.81
32905,-2.4074,1.0175,11.4706,1421,2812.81
32910,-2.7174,-0.8823,11.9399,1427,2812.81
32915,-1.1504,1.9896,9.5361,1433,2812.54
32920,1.3048,3.6883,10.1275,1429,2812.54
32925,-1.4114,1.895,11.072,1432,2812.54
32930,-2.1081,-1.3276,12.2595,1427,2812.54
32935,-2.4624,1.2725,10.0269,1427,2812.54
32940,1.0894,3.292,10.1143,1419,2813.86
32945,0.6117,2.721,10.6602,1421,2813.86
32950,-1.6328,-0.9146,12.1302,1426,2813.86
32955,-3.1149,0.3663,10.8362,1429,2813.86
32960,0.6608,2.8467,9.833,1431,2812.94
32965,1.4772,3.5422,10.3465,1429,2812.94
32970,-1.9704,0.1879,11.8381,1421,2812.94
32975,-3.0478,-0.4525,11.6286,1431,2812.94
32980,-0.2107,2.4301,9.566,1429,2812.54
32985,1.4437,3.869,10.2113,1434,2812.54
32990,-2.3535,1.1851,11.4168,1421,2812.54
32995,-2.6013,-1.0415,12.1087,1427,2812.54
33000,-1.4856,1.8806,9.6618,1429,2812.41
33005,1.2965,3.7218,10.1502,1427,2812.41
33010,-0.9122,2.0818,11.0133,1432,2812.41
33015,-1.962,-1.2641,12.159,1425,2812.41
33020,-2.654,1.0798,10.2029,1433,2812.41
33025,1.0116,3.2214,9.9982,1425,2812.94
33030,0.978,2.9149,10.5656,1433,2812.94
33035,-1.6185,-0.7494,12.0404,1421,2812.94
33040,-3.1759,0.1221,11.0337,1421,2812.94
33045,0.4717,2.721,9.7803,1431,2813.07
33050,1.4676,3.6847,10.2472,1421,2813.07
33055,-2.1584,0.4764,11.7483,1439,2813.07
33060,-3.0394,-0.5303,11.8034,1427,2813.07
33065,-0.4609,2.3583,9.5517,1434,2813.07
33070,1.4114,3.8882,10.1754,1427,2813.07
33075,-2.241,1.4198,11.3066,1421,2813.07
33080,-2.4349,-1.1337,12.1326,1433,2813.07
33085,-1.7406,1.6604,9.7193,1437,2812.94
33090,1.2665,3.5889,10.088,1423,2812.94
33095,-0.3986,2.2482,10.8685,1435,2812.94
33100,-1.8914,-1.3072,12.1721,1421,2812.94
33105,-2.8419,0.8356,10.4088,1431,2812.94
33110,0.8404,3.0706,9.9288,1427,2813.07
33115,1.1217,3.1292,10.4962,1428,2813.07
33120,-1.743,-0.5136,12.0285,1427,2813.07
33125,-3.1448,0.0359,11.224,1427,2813.07
33130,0.3089,2.6528,9.7097,1427,2813.2
33135,1.4988,3.8044,10.2304,1421,2813.2
33140,-2.3128,0.7266,11.6646,1429,2813.2
33145,-2.8048,-0.7075,11.8573,1428,2813.2
33150,-0.7135,2.1907,9.5445,1436,2813.2
33155,1.3647,3.8116,10.0856,1436,2813.2
33160,-1.9321,1.5514,11.236,1423,2813.2
33165,-2.3212,-1.3276,12.1434,1427,2813.2
33170,-2.0818,1.4928,9.8366,1427,2813.2
33175,1.1432,3.4524,10.1323,1431,2813.6
33180,0.0048,2.4397,10.8421,1429,2813.6
33185,-1.7298,-1.1672,12.1159,1421,2813.6
33190,-2.9556,0.6907,10.556,1421,2813.6
33195,0.7661,3.0011,9.9048,1421,2813.34
33200,1.3958,3.3435,10.41,1427,2813.34
33205,-1.7538,-0.2095,11.9363,1421,2813.34
33210,-3.1101,-0.2131,11.4371,1432,2813.34
