timestamp_ms,ax,ay,az,acs_adc,rpm
17319,2.2721,4.0498,10.0521,1272,2952.17
17324,-1.3108,0.8068,12.4331,1267,2952.17
17329,-4.0618,-1.2354,12.1829,1266,2952.17
17334,-1.1337,2.3906,8.5856,1269,2952.17
17339,2.1512,3.9899,9.9347,1271,2952.17
17344,-1.0918,1.0822,12.3301,1269,2952.17
17349,-3.8918,-1.4641,12.3433,1266,2952.17
17354,-1.6819,2.2913,8.7053,1270,2952.03
17359,2.0458,3.9277,9.7671,1269,2952.03
17364,-0.8607,1.3216,12.2212,1263,2952.03
17369,-3.65,-1.6771,12.4965,1273,2952.03
17374,-2.1787,2.1512,8.7891,1268,2951.88
17379,1.9668,3.9049,9.7169,1272,2951.88
17384,-0.498,1.5407,11.9447,1263,2951.88
17389,-3.3926,-1.7837,12.6797,1271,2951.88
17394,-2.6576,2.0279,8.9866,1267,2951.88
17399,1.919,3.8499,9.6881,1263,2951.88
17404,-0.0479,1.743,11.8262,1277,2951.88
17409,-3.0969,-1.8184,12.8066,1269,2951.88
17414,-3.1244,1.8543,9.1147,1267,2951.88
17419,1.889,3.7421,9.5337,1263,2951.88
17424,0.4693,2.0662,11.5676,1273,2951.88
17429,-2.7761,-1.8375,12.9095,1261,2951.88
17434,-3.5841,1.7382,9.3206,1268,2951.88
17439,1.8854,3.6643,9.4487,1273,2951.74
17444,1.0092,2.3284,11.4634,1272,2951.74
17449,-2.5331,-1.7621,12.9203,1263,2951.74
17454,-3.9289,1.4856,9.6283,1275,2951.74
17459,1.8088,3.5111,9.2668,1268,2952.03
17464,1.4808,2.5989,11.2468,1273,2952.03
17469,-2.2206,-1.646,12.9766,1257,2952.03
17474,-4.2844,1.2845,9.8892,1271,2952.03
17479,1.6628,3.4357,9.147,1266,2951.88
17484,1.8435,2.8347,11.0744,1267,2951.88
17489,-2.0458,-1.4593,12.9969,1274,2951.88
17494,-4.5633,1.0032,10.1981,1275,2951.88
17499,1.4425,3.2501,9.1363,1273,2952.17
17504,2.0973,3.0634,10.8649,1276,2952.17
17509,-1.8364,-1.1851,12.9981,1272,2952.17
17514,-4.7537,0.7338,10.5381,1277,2952.17
17519,1.2677,3.1831,8.9699,1275,2951.88
17524,2.3439,3.3615,10.6913,1277,2951.88
17529,-1.7202,-0.8392,13.0771,1279,2951.88
17534,-4.8291,0.4477,10.817,1277,2951.88
17539,1.0403,3.0885,8.8992,1290,2951.74
17544,2.4157,3.5542,10.5273,1279,2951.74
17549,-1.5909,-0.48,12.9909,1277,2951.74
17554,-4.8147,0.1065,11.1115,1277,2951.74
17559,0.747,2.9449,8.7197,1279,2951.59
17564,2.4744,3.7002,10.3765,1279,2951.59
17569,-1.4617,-0.1652,12.9287,1272,2951.59
17574,-4.7106,-0.2011,11.4826,1277,2951.59
17579,0.4082,2.8371,8.6215,1273,2951.74
17584,2.4648,3.869,10.2675,1284,2951.74
17589,-1.4808,0.1496,12.821,1275,2951.74
17594,-4.5669,-0.5507,11.661,1285,2951.74
17599,0.0168,2.6911,8.5688,1277,2951.88
17604,2.3679,3.9576,10.1251,1275,2951.88
17609,-1.4533,0.4286,12.7443,1279,2951.88
17614,-4.4137,-0.8535,11.8992,1276,2951.88
17619,-0.4357,2.5833,8.5712,1274,2951.74
17624,2.2122,3.948,10.0269,1277,2951.74
17629,-1.3491,0.68,12.5456,1277,2951.74
17634,-4.2437,-1.1396,12.0536,1279,2951.74
17639,-0.9421,2.4337,8.5844,1275,2951.88
17644,2.1296,4.027,9.9276,1279,2951.88
17649,-1.2749,0.9708,12.4331,1273,2951.88
17654,-4.0438,-1.3803,12.2846,1275,2951.88
17659,-1.4437,2.3451,8.6371,1277,2951.45
17664,2.0686,4.0223,9.8114,1277,2951.45
17669,-1.069,1.1947,12.2344,1275,2951.45
17674,-3.8008,-1.5646,12.4738,1287,2951.45
17679,-1.919,2.1955,8.7364,1277,2951.3
17684,2.0853,4.0199,9.7779,1277,2951.3
17689,-0.7147,1.4257,12.0584,1275,2951.3
17694,-3.486,-1.7238,12.6414,1287,2951.3
17699,-2.4014,2.0782,8.8741,1275,2951.74
17704,2.0638,3.8954,9.6582,1277,2951.74
17709,-0.2933,1.664,11.886,1279,2951.74
17714,-3.2082,-1.8244,12.7,1277,2951.74
17719,-2.8659,1.913,9.0609,1277,2950.87
17724,1.98,3.808,9.5972,1272,2950.87
17729,0.2334,1.9381,11.6705,1285,2950.87
17734,-2.9257,-1.8639,12.7048,1273,2950.87
17739,-3.3543,1.7418,9.2524,1277,2950.87
17744,1.9273,3.6679,9.4763,1285,2950.87
17749,0.7853,2.1668,11.546,1274,2950.87
17754,-2.6528,-1.9022,12.8425,1273,2950.87
17759,-3.7792,1.5694,9.5277,1291,2950.87
17764,1.8028,3.5099,9.4044,1278,2950.72
17769,1.1983,2.4876,11.2887,1277,2950.72
17774,-1.7526,-0.9026,13.0496,1277,2950.72
17779,-4.7704,0.5375,10.7416,1287,2950.72
17784,1.6819,3.4225,9.2775,1273,2950.87
17789,2.4253,3.5147,10.5692,1273,2950.87
17794,-1.5694,-0.565,13.0065,1275,2950.87
17799,-4.7872,0.2382,11.0145,1279,2950.87
17804,0.8607,2.9784,8.7472,1275,2950.72
17809,2.5187,3.6955,10.4351,1277,2950.72
17814,-1.47,-0.249,12.9047,1273,2950.72
17819,-4.7345,-0.1089,11.3234,1279,2950.72
17824,0.4836,2.8419,8.6514,1273,2950.87
17829,2.4744,3.8487,10.3418,1277,2950.87
17834,-1.4772,0.0479,12.8066,1277,2950.87
17839,-4.6112,-0.4764,11.5939,1277,2950.87
17844,0.0994,2.6743,8.5784,1289,2950.87
17849,2.3822,3.9169,10.1706,1275,2950.87
17854,-1.4688,0.3412,12.6929,1279,2950.87
17859,-4.4879,-0.808,11.8381,1287,2950.87
17864,-0.3208,2.5642,8.576,1279,2950.72
17869,2.241,3.9935,10.0999,1277,2950.72
17874,-1.4509,0.6009,12.5767,1275,2950.72
17879,-4.3191,-1.1001,12.0357,1278,2950.72
17884,-0.8595,2.49,8.5724,1269,2950.43
17889,2.1679,4.0294,9.9575,1287,2950.43
17894,-1.318,0.911,12.3816,1275,2950.43
17899,-4.1288,-1.2881,12.3265,1286,2950.43
17904,-1.3036,2.4193,8.6706,1279,2950.14
17909,2.1105,4.051,9.9108,1274,2950.14
17914,-1.1504,1.1983,12.2583,1285,2950.14
17919,-3.7972,-1.5048,12.384,1277,2950.14
17924,-1.8124,2.223,8.758,1274,2949.85
17929,2.0662,4.0259,9.8617,1279,2949.85
17934,-0.7386,1.4162,12.0764,1285,2949.85
17939,-3.4512,-1.6807,12.56,1279,2949.85
17944,-2.3116,2.0818,8.8286,1275,2949.71
17949,2.0686,3.9037,9.7145,1285,2949.71
17954,-0.2993,1.6664,11.813,1285,2949.71
17959,-3.1891,-1.7945,12.724,1279,2949.71
17964,-2.8395,1.9297,9.08,1297,2950.0
17969,1.9525,3.7733,9.663,1277,2950.0
17974,0.1808,1.8914,11.6693,1279,2950.0
17979,-2.9461,-1.8735,12.8066,1286,2950.0
17984,-3.3603,1.7178,9.3111,1287,2950.29
17989,1.8375,3.6368,9.5373,1279,2950.29
17994,0.7219,2.1548,11.461,1278,2950.29
17999,-2.6755,-1.8555,12.8449,1288,2950.29
18004,-3.8068,1.5838,9.5744,1275,2950.72
18009,1.7418,3.5398,9.4248,1278,2950.72
18014,1.1803,2.4684,11.3186,1287,2950.72
18019,-2.4169,-1.6628,12.9454,1278,2950.72
18024,-4.1743,1.3838,9.8533,1285,2950.72
18029,1.6664,3.48,9.3314,1275,2950.72
18034,1.6927,2.6995,11.1654,1287,2950.72
18039,-2.0889,-1.4605,13.0364,1277,2950.72
18044,-4.4616,1.1732,10.1251,1273,2950.72
18049,1.579,3.3986,9.183,1285,2950.29
18054,2.053,3.0047,10.9247,1277,2950.29
18059,-1.8723,-1.1911,13.0376,1275,2950.29
18064,-4.6495,0.8751,10.3848,1287,2950.29
18069,1.3719,3.2334,8.9866,1275,2950.58
18074,2.326,3.201,10.7105,1287,2950.58
18079,-1.7166,-0.9457,13.0592,1278,2950.58
18084,-4.7345,0.5267,10.756,1289,2950.58
18089,1.1145,3.0718,8.9148,1269,2950.58
18094,2.4038,3.4093,10.5788,1275,2950.58
18099,-1.555,-0.6237,12.9036,1279,2950.58
18104,-4.7692,0.1879,11.0301,1279,2950.58
18109,0.8056,2.9293,8.7867,1274,2950.43
18114,2.4122,3.6536,10.483,1278,2950.43
18119,-1.506,-0.2933,12.8569,1279,2950.43
18124,-4.7872,-0.1353,11.2994,1277,2950.43
18129,0.4657,2.7689,8.6455,1275,2950.29
18134,2.3822,3.8355,10.3106,1285,2950.29
18139,-1.5431,0.0383,12.7802,1277,2950.29
18144,-4.6292,-0.4154,11.5951,1295,2950.29
18149,0.073,2.7054,8.6838,1288,2950.29
18154,2.2649,3.9002,10.2149,1285,2950.29
18159,-1.5179,0.3795,12.7036,1289,2950.29
18164,-4.4784,-0.7015,11.7687,1279,2950.29
18169,-0.2993,2.642,8.6155,1279,2950.29
18174,2.2769,3.9672,10.0664,1284,2950.29
18179,-1.4126,0.662,12.5911,1275,2950.29
18184,-4.2605,-1.008,12.0069,1289,2950.29
18189,-0.7697,2.5139,8.6347,1273,2950.0
18194,2.1799,3.9971,9.9778,1285,2950.0
18199,-1.3072,0.8906,12.4283,1285,2950.0
18204,-3.9768,-1.318,12.1925,1287,2950.0
18209,-1.3156,2.3679,8.6048,1277,2949.85
18214,2.1404,3.9708,9.9276,1277,2949.85
18219,-1.0319,1.154,12.238,1287,2949.85
18224,-3.7218,-1.5838,12.408,1277,2949.85
18229,-1.8663,2.1835,8.7257,1273,2949.71
18234,1.9824,3.9133,9.7851,1279,2949.71
18239,-0.7913,1.3551,12.068,1277,2949.71
18244,-3.5123,-1.7526,12.5229,1279,2949.71
18249,-2.4134,2.0889,8.8945,1275,2949.56
18254,1.883,3.8571,9.7312,1285,2949.56
18259,-0.4238,1.6616,11.8932,1275,2949.56
18264,-3.2597,-1.8304,12.6581,1277,2949.56
18269,-2.9161,1.9764,9.0992,1277,2949.56
18274,1.9082,3.7781,9.6139,1290,2949.56
18279,0.1772,1.9046,11.734,1277,2949.56
18284,-2.9485,-1.8375,12.7767,1288,2949.56
18289,-3.3986,1.834,9.3003,1277,2949.13
18294,1.8866,3.6931,9.5193,1279,2949.13
18299,0.7422,2.2003,11.552,1277,2949.13
18304,-2.6181,-1.7753,12.9047,1285,2949.13
18309,-3.8044,1.6113,9.5577,1277,2949.71
18314,1.8136,3.632,9.3577,1274,2949.71
18319,1.3276,2.4541,11.297,1291,2949.71
18324,-2.3164,-1.6269,12.9047,1275,2949.71
18329,-4.1575,1.3707,9.8282,1276,2949.13
18334,1.7274,3.4381,9.2452,1275,2949.13
18339,1.7262,2.6887,11.1342,1285,2949.13
18344,-2.0494,-1.5299,12.985,1279,2949.13
18349,-4.4568,1.0271,10.1251,1275,2949.13
18354,1.5167,3.2813,9.1231,1279,2948.55
18359,2.0315,2.988,10.9271,1286,2948.55
18364,-1.9393,-1.2605,12.9838,1279,2948.55
18369,-4.6603,0.7458,10.4734,1292,2948.55
18374,1.3443,3.1436,8.9388,1275,2948.26
18379,2.2458,3.3148,10.7739,1279,2948.26
18384,-1.737,-0.8787,13.0041,1276,2948.26
18389,-4.8159,0.4872,10.7943,1286,2948.26
18394,1.0678,3.067,8.8621,1275,2948.26
18399,2.3727,3.5626,10.6279,1278,2948.26
18404,-1.6496,-0.5483,12.9239,1287,2948.26
18409,-4.7848,0.1939,11.0792,1273,2948.26
18414,0.7685,2.9808,8.7604,1275,2948.26
18419,2.4301,3.7481,10.3657,1275,2948.26
18424,-1.5443,-0.1401,12.9155,1274,2948.26
18429,-4.7202,-0.176,11.376,1279,2948.26
18434,0.3915,2.8323,8.6694,1278,2948.84
18439,2.4277,3.8188,10.2711,1287,2948.84
18444,-1.4832,0.1808,12.7719,1285,2948.84
18449,-4.543,-0.5315,11.6502,1279,2948.84
18454,-0.0072,2.7306,8.5808,1279,2948.69
18459,2.326,3.8942,10.1945,1279,2948.69
18464,-1.4425,0.4645,12.6186,1275,2948.69
18469,-4.3898,-0.8942,11.8968,1287,2948.69
18474,-0.516,2.5642,8.5485,1277,2948.84
18479,2.2122,3.9648,10.0796,1287,2948.84
18484,-1.385,0.6776,12.4989,1278,2948.84
18489,-4.2042,-1.1887,12.0931,1289,2948.84
18494,-1.0259,2.4337,8.5413,1285,2948.69
18499,2.0638,4.051,9.9754,1285,2948.69
18504,-1.2151,1.0092,12.3254,1293,2948.69
18509,-3.9409,-1.4257,12.3744,1277,2948.69
18514,-1.5526,2.314,8.6766,1275,2948.84
18519,2.0171,3.972,9.8689,1285,2948.84
18524,-0.9828,1.251,12.1446,1287,2948.84
18529,-3.6775,-1.5969,12.5205,1275,2948.84
18534,-2.0877,2.1883,8.7819,1276,2949.13
18539,2.0303,3.9433,9.7971,1287,2949.13
18544,-0.5794,1.5191,11.959,1277,2949.13
18549,-3.3627,-1.7286,12.6426,1277,2949.13
18554,-2.5857,2.0554,8.9902,1279,2948.84
18559,1.998,3.8583,9.669,1277,2948.84
18564,-0.0551,1.7202,11.7495,1277,2948.84
18569,-2.9868,-1.8028,12.7168,1285,2948.84
18574,-3.1316,1.8483,9.1602,1279,2948.84
18579,1.9597,3.7326,9.596,1285,2948.84
18584,0.4393,2.0039,11.5939,1277,2948.84
18589,-2.7761,-1.8375,12.8664,1289,2948.84
18594,-3.5398,1.6496,9.3218,1279,2949.42
18599,1.8507,3.6045,9.4942,1279,2949.42
18604,0.9936,2.2613,11.3353,1285,2949.42
18609,-2.4792,-1.7681,12.9083,1277,2949.42
18614,-4.0019,1.4533,9.6786,1279,2949.42
18619,1.7454,3.4979,9.3099,1275,2949.42
18624,1.4617,2.5714,11.2635,1291,2949.42
18629,-2.2769,-1.6017,12.9742,1276,2949.42
18634,-4.3694,1.2546,9.9395,1277,2949.42
18639,1.6065,3.3758,9.1734,1287,2950.29
18644,1.8352,2.9018,11.0804,1275,2950.29
18649,-2.0602,-1.3815,13.0664,1284,2950.29
18654,-4.5969,1.0367,10.2999,1291,2950.29
18659,1.4748,3.3004,9.0429,1277,2950.0
18664,2.1703,3.1544,10.9032,1285,2950.0
18669,-1.7669,-1.0762,12.9838,1275,2950.0
18674,-4.6663,0.6919,10.5285,1290,2950.0
18679,1.2797,3.1843,8.9148,1275,2950.14
18684,2.4181,3.3686,10.6267,1277,2950.14
18689,-1.6233,-0.7075,12.9969,1278,2950.14
18694,-4.7585,0.3687,10.8852,1285,2950.14
18699,0.9708,3.037,8.8107,1285,2949.56
18704,2.5271,3.5255,10.4782,1285,2949.56
18709,-1.4664,-0.4094,12.9024,1277,2949.56
18714,-4.8004,0.0036,11.066,1278,2949.56
18719,0.6788,2.9102,8.7257,1277,2949.13
18724,2.4517,3.6859,10.3872,1277,2949.13
18729,-1.4676,-0.0958,12.8054,1279,2949.13
18734,-4.7154,-0.3136,11.4682,1279,2949.13
18739,0.1999,2.7138,8.6467,1289,2949.42
18744,2.3439,3.8654,10.2807,1287,2949.42
18749,-1.4856,0.255,12.7348,1284,2949.42
18754,-4.5729,-0.6464,11.7483,1285,2949.42
18759,-0.1903,2.6324,8.6227,1288,2949.56
18764,2.2386,3.9899,10.1873,1288,2949.56
18769,-1.4808,0.5315,12.633,1277,2949.56
18774,-4.3766,-0.9349,12.0357,1285,2949.56
18779,-0.6452,2.5163,8.5904,1273,2949.85
18784,2.2182,3.9995,9.9958,1287,2949.85
18789,-1.3623,0.8296,12.4834,1277,2949.85
18794,-4.1384,-1.1947,12.1494,1279,2949.85
18799,-1.1205,2.4481,8.6443,1286,2950.0
18804,2.1811,4.0342,9.8689,1277,2950.0
18809,-1.1648,1.1193,12.3098,1279,2950.0
18814,-3.8307,-1.4353,12.3469,1278,2950.0
18819,-1.6281,2.2649,8.679,1275,2949.85
18824,2.1201,3.9552,9.8198,1277,2949.85
18829,-0.844,1.2917,12.1278,1277,2949.85
18834,-3.5973,-1.6915,12.5073,1279,2949.85
18839,-2.1512,2.1488,8.8107,1276,2950.14
18844,2.0399,3.881,9.7528,1279,2950.14
18849,-0.4561,1.5634,11.9399,1275,2950.14
18854,-3.3172,-1.7873,12.6019,1276,2950.14
18859,-2.6695,1.9788,8.9567,1277,2950.29
18864,1.9848,3.7445,9.6857,1276,2950.29
18869,-0.0359,1.7957,11.7519,1275,2950.29
18874,-3.073,-1.8854,12.8018,1287,2950.29
18879,-3.1903,1.8208,9.1482,1279,2950.14
18884,1.8771,3.6919,9.5505,1285,2950.14
18889,0.4633,2.0542,11.6059,1279,2950.14
18894,-2.8048,-1.81,12.882,1287,2950.14
18899,-3.6428,1.7023,9.4595,1277,2950.29
18904,1.804,3.6021,9.4296,1277,2950.29
18909,0.9996,2.4217,11.4575,1291,2950.29
18914,-2.5151,-1.6915,12.9083,1273,2950.29
18919,-3.9756,1.476,9.7001,1285,2950.0
18924,1.7741,3.4584,9.3027,1261,2950.0
18929,1.555,2.5953,11.23,1286,2950.0
18934,-2.2122,-1.5886,12.9335,1277,2950.0
18939,-4.3598,1.233,10.0329,1291,2950.0
18944,1.6472,3.3794,9.1375,1287,2950.14
18949,1.9537,2.9125,11.0325,1279,2950.14
18954,-1.9142,-1.3611,12.9682,1275,2950.14
18959,-4.5849,0.911,10.2795,1291,2950.14
18964,1.4473,3.2286,9.0537,1269,2950.72
18969,2.2134,3.1065,10.8158,1285,2950.72
18974,-1.7813,-1.081,13.0364,1275,2950.72
18979,-4.7716,0.6189,10.6111,1289,2950.72
18984,1.2426,3.1496,8.928,1279,2950.87
18989,2.3092,3.3627,10.6626,1273,2950.87
18994,-1.6245,-0.7602,12.9562,1273,2950.87
18999,-4.8566,0.3208,10.8864,1279,2950.87
19004,0.9349,2.9556,8.8358,1276,2950.87
19009,2.3595,3.5698,10.5548,1273,2950.87
19014,-1.6137,-0.419,12.9095,1279,2950.87
19019,-4.792,0.0563,11.2324,1279,2950.87
19024,0.5962,2.9078,8.7137,1275,2951.16
19029,2.4409,3.8056,10.4184,1276,2951.16
19034,-1.5287,-0.0646,12.8377,1279,2951.16
19039,-4.7214,-0.2394,11.497,1285,2951.16
19044,0.2789,2.7809,8.6514,1285,2951.3
19049,2.4253,3.8858,10.2568,1285,2951.3
19054,-1.4964,0.2598,12.7874,1275,2951.3
19059,-4.5657,-0.5315,11.7268,1287,2951.3
19064,-0.1197,2.6468,8.6036,1269,2951.3
19069,2.3511,3.9516,10.0808,1279,2951.3
19074,-1.4581,0.5471,12.6689,1272,2951.3
19079,-4.361,-0.8882,11.9279,1289,2951.3
19084,-0.6177,2.5079,8.5341,1273,2951.16
19089,2.2146,3.9301,10.0126,1279,2951.16
19094,-1.3455,0.7961,12.481,1275,2951.16
19099,-4.1635,-1.2007,12.1374,1287,2951.16
19104,-1.0463,2.4253,8.6167,1277,2951.16
19109,2.1356,3.9923,9.9048,1276,2951.16
19114,-1.1947,1.0726,12.3708,1279,2951.16
19119,-3.9205,-1.4413,12.3289,1275,2951.16
19124,-1.573,2.2745,8.6215,1279,2951.3
19129,2.0315,3.9516,9.8988,1277,2951.3
19134,-0.9649,1.2426,12.1781,1278,2951.3
19139,-3.6847,-1.6161,12.4882,1277,2951.3
19144,-2.0937,2.1811,8.7448,1275,2951.45
19149,1.9609,3.9468,9.7779,1285,2951.45
19154,-0.5674,1.5071,12.0153,1279,2951.45
19159,-3.4381,-1.7442,12.6953,1274,2951.45
19164,-2.5738,2.0638,8.9196,1276,2951.59
19169,1.992,3.8343,9.6522,1277,2951.59
19174,-0.0742,1.7466,11.8178,1279,2951.59
19179,-3.1316,-1.7933,12.7551,1287,2951.59
19184,-3.0263,1.8794,9.1075,1275,2951.74
19189,1.9369,3.7828,9.5529,1279,2951.74
19194,0.4298,2.0315,11.6047,1279,2951.74
19199,-2.8084,-1.8304,12.8461,1287,2951.74
19204,-3.5111,1.7322,9.3769,1276,2951.74
19209,1.901,3.5997,9.4427,1278,2951.74
19214,0.9768,2.2338,11.4443,1288,2951.74
19219,-2.5402,-1.8172,12.888,1275,2951.74
19224,-3.9289,1.5071,9.6115,1278,2951.74
19229,1.7753,3.5446,9.3853,1275,2951.74
19234,1.4461,2.5187,11.2647,1289,2951.74
19239,-2.3176,-1.6616,12.9538,1275,2951.74
19244,-4.3048,1.2881,9.8438,1278,2951.74
19249,1.6963,3.3902,9.2596,1288,2952.03
19254,1.7992,2.7665,11.0289,1279,2952.03
19259,-2.0494,-1.4437,13.0197,1277,2952.03
19264,-4.5717,1.0798,10.1658,1287,2952.03
19269,1.5502,3.3232,9.0812,1273,2951.88
19274,2.1129,3.049,10.8793,1279,2951.88
19279,-1.8771,-1.1684,13.0041,1277,2951.88
19284,-4.7465,0.7949,10.4914,1291,2951.88
19289,1.312,3.158,8.9268,1273,2952.03
19294,2.3643,3.2908,10.7224,1275,2952.03
19299,-1.7226,-0.8499,13.0041,1277,2952.03
19304,-4.8028,0.5076,10.8601,1285,2952.03
19309,1.0714,3.0813,8.8047,1273,2951.74
19314,2.4756,3.5362,10.5536,1277,2951.74
19319,-1.5646,-0.5435,12.8796,1276,2951.74
19324,-4.774,0.2047,11.1211,1277,2951.74
19329,0.7661,2.9233,8.7317,1272,2951.88
19334,2.4924,3.6464,10.4411,1272,2951.88
19339,-1.488,-0.2191,12.9036,1277,2951.88
19344,-4.7525,-0.1532,11.3306,1273,2951.88
19349,0.4549,2.8108,8.6131,1287,2951.74
19354,2.4169,3.808,10.2424,1285,2951.74
19359,-1.5227,0.0634,12.7922,1278,2951.74
19364,-4.6316,-0.5004,11.5365,1277,2951.74
19369,0.0778,2.7402,8.5796,1279,2951.88
19374,2.3068,3.9097,10.1634,1277,2951.88
19379,-1.4988,0.3974,12.6941,1274,2951.88
19384,-4.4688,-0.7961,11.8345,1286,2951.88
19389,-0.3843,2.5762,8.5784,1271,2951.74
19394,2.2685,3.9409,10.0904,1279,2951.74
19399,-1.4114,0.6536,12.5313,1277,2951.74
19404,-4.3024,-1.0918,12.0943,1287,2951.74
19409,-0.8332,2.4756,8.5712,1279,2951.74
19414,2.2039,4.0211,10.0042,1279,2951.74
19419,-1.2953,0.9385,12.378,1276,2951.74
19424,-4.0654,-1.306,12.2523,1277,2951.74
19429,-1.3467,2.3547,8.6538,1271,2951.74
19434,2.1751,4.0007,9.8797,1277,2951.74
19439,-1.0546,1.1301,12.2894,1304,2951.74
19444,-3.802,-1.4868,12.4427,1276,2951.74
19449,-1.8375,2.2637,8.758,1277,2951.88
19454,2.0578,3.9995,9.7707,1285,2951.88
19459,-0.7649,1.4365,12.0859,1275,2951.88
19464,-3.5542,-1.658,12.5348,1273,2951.88
19469,-2.3439,2.1069,8.8741,1277,2952.17
19474,2.0638,3.8774,9.7049,1277,2952.17
19479,-0.3184,1.6328,11.971,1277,2952.17
19484,-3.2717,-1.8364,12.6773,1277,2952.17
19489,-2.8419,1.9321,9.0525,1276,2952.47
19494,1.9944,3.7852,9.6151,1279,2952.47
19499,0.1269,1.8196,11.7136,1275,2952.47
19504,-3.0083,-1.8699,12.7719,1288,2952.47
19509,-3.2992,1.7921,9.2392,1276,2952.61
19514,1.8639,3.6691,9.5732,1277,2952.61
19519,0.6644,2.0925,11.5796,1287,2952.61
19524,-2.745,-1.8244,12.9622,1279,2952.61
19529,-3.7445,1.6364,9.5002,1275,2952.76
19534,1.8052,3.5362,9.3482,1276,2952.76
19539,1.1768,2.3798,11.321,1289,2952.76
19544,-2.5319,-1.7023,12.9742,1263,2952.76
19549,-4.142,1.4329,9.809,1279,2952.76
19554,1.7214,3.4105,9.2428,1295,2952.47
19559,1.5945,2.6217,11.2527,1277,2952.47
19564,-2.2194,-1.5383,12.9981,1277,2952.47
19569,-4.3766,1.1684,10.0185,1279,2952.47
19574,1.5897,3.3507,9.0896,1275,2952.32
19579,1.9537,2.9173,11.0684,1285,2952.32
19584,-1.974,-1.2953,13.0304,1273,2952.32
19589,-4.5897,0.9637,10.3154,1291,2952.32
19594,1.4317,3.2477,9.0453,1272,2952.47
19599,2.2589,3.1244,10.805,1291,2952.47
19604,-1.7873,-1.0439,13.0089,1273,2952.47
19609,-4.7106,0.6464,10.5967,1289,2952.47
19614,1.2378,3.0837,8.8765,1273,2952.17
19619,2.4241,3.3782,10.659,1279,2952.17
19624,-1.6316,-0.7111,12.9993,1278,2952.17
19629,-4.8315,0.3448,10.8469,1277,2952.17
19634,0.9301,2.97,8.7652,1275,2952.17
19639,2.4134,3.541,10.4794,1277,2952.17
19644,-1.5514,-0.413,12.9443,1278,2952.17
19649,-4.8195,0.0299,11.1378,1275,2952.17
19654,0.6512,2.8599,8.7329,1275,2952.47
19659,2.4098,3.705,10.3813,1287,2952.47
19664,-1.5514,-0.0982,12.8748,1285,2952.47
19669,-4.7561,-0.2705,11.4646,1273,2952.47
19674,0.2717,2.7533,8.5928,1285,2951.88
19679,2.3715,3.8738,10.2783,1285,2951.88
19684,-1.5335,0.1724,12.7898,1276,2951.88
19689,-4.5897,-0.5567,11.6957,1285,2951.88
19694,-0.1041,2.6288,8.6,1287,2952.17
19699,2.3391,3.9409,10.1694,1286,2952.17
19704,-1.4497,0.492,12.6234,1275,2952.17
19709,-4.3958,-0.8428,11.9471,1285,2952.17
19714,-0.5567,2.551,8.594,1270,2952.9
19719,2.2745,3.9744,10.0209,1279,2952.9
19724,-1.336,0.7494,12.5372,1287,2952.9
19729,-4.2018,-1.1612,12.0943,1279,2952.9
19734,-0.9948,2.4361,8.6143,1275,2953.48
19739,2.1835,4.0019,9.9335,1279,2953.48
19744,-1.1851,0.9888,12.39,1286,2953.48
19749,-3.9804,-1.3743,12.2547,1276,2953.48
19754,-1.4545,2.3655,8.661,1272,2953.63
19759,2.0901,3.9504,9.8509,1275,2953.63
19764,-0.9433,1.1779,12.1949,1276,2953.63
19769,-3.7397,-1.6065,12.4127,1277,2953.63
19774,-1.9824,2.1691,8.7317,1279,2953.34
19779,2.0195,3.9109,9.7695,1287,2953.34
19784,-0.6333,1.3767,12.0297,1275,2953.34
19789,-3.5015,-1.7154,12.5863,1275,2953.34
19794,-2.4708,2.1177,8.8681,1277,2953.48
19799,1.992,3.8834,9.6845,1278,2953.48
19804,-0.2562,1.6245,11.892,1292,2953.48
19809,-3.2382,-1.8256,12.7527,1288,2953.48
19814,-2.9329,1.9728,9.0668,1285,2953.34
19819,1.9429,3.7553,9.5804,1286,2953.34
19824,0.2658,1.9034,11.7388,1277,2953.34
19829,-2.9377,-1.8064,12.8114,1278,2953.34
19834,-3.3758,1.8208,9.238,1277,2953.34
19839,1.9046,3.7038,9.5002,1279,2953.34
19844,0.7685,2.2027,11.5724,1279,2953.34
19849,-2.6576,-1.7873,12.9239,1275,2953.34
19854,-3.7924,1.6089,9.5241,1277,2953.19
19859,1.8687,3.5745,9.3374,1274,2953.19
19864,1.2498,2.4169,11.2946,1290,2953.19
19869,-2.4014,-1.6508,12.9622,1271,2953.19
19874,-4.0773,1.4305,9.754,1279,2953.19
19879,1.7945,3.4704,9.2536,1279,2952.47
19884,1.7035,2.6731,11.145,1275,2952.47
19889,-2.1679,-1.5514,12.9766,1275,2952.47
19894,-4.4616,1.1372,10.0545,1289,2952.47
19899,1.6197,3.3279,9.0704,1275,2953.05
19904,2.0027,2.9137,10.9738,1286,2953.05
19909,-1.9597,-1.3036,12.9861,1274,2953.05
19914,-4.6531,0.8954,10.3154,1290,2953.05
19919,1.4042,3.2346,8.9854,1275,2953.05
19924,2.2601,3.2346,10.8457,1273,2953.05
19929,-1.7693,-1.0247,13.0424,1275,2953.05
19934,-4.7441,0.6117,10.6111,1287,2953.05
19939,1.166,3.1161,8.9064,1277,2953.19
19944,2.3954,3.4117,10.6458,1277,2953.19
19949,-1.6592,-0.7135,13.0149,1277,2953.19
19954,-4.8387,0.3615,10.9044,1279,2953.19
19959,0.9481,3.0179,8.7532,1291,2953.77
19964,2.4912,3.6248,10.5141,1286,2953.77
19969,-1.5598,-0.4034,12.9706,1272,2953.77
19974,-4.8028,0.0407,11.1905,1279,2953.77
19979,0.6285,2.9197,8.6682,1287,2954.06
19984,2.5127,3.7948,10.3286,1286,2954.06
19989,-1.482,-0.0407,12.9538,1277,2954.06
19994,-4.713,-0.2921,11.4191,1277,2954.06
19999,0.2765,2.8072,8.606,1285,2954.5
20004,2.4888,3.8403,10.173,1279,2954.5
20009,-1.4365,0.1856,12.8114,1275,2954.5
20014,-4.61,-0.6129,11.6634,1277,2954.5
20019,-0.1137,2.7186,8.5509,1276,2954.65
20024,2.3739,3.9109,10.0999,1279,2954.65
20029,-1.3755,0.4357,12.6953,1273,2954.65
20034,-4.4568,-0.8966,11.9315,1267,2954.65
20039,-0.5531,2.5355,8.5198,1277,2954.36
20044,2.2494,3.9576,10.0245,1285,2954.36
20056,16.9318,-29.9981,0.1556,1275,2954.36
20059,-1.0104,2.4517,8.6155,1275,2954.21
20064,2.15,3.9863,10.0042,1276,2954.21
20069,-1.2474,0.9361,12.4247,1278,2954.21
20074,-4.0462,-1.3048,12.2942,1278,2954.21
20079,-1.4844,2.3427,8.6503,1273,2954.21
20084,2.1691,3.9995,9.8892,1276,2954.21
20089,-0.9888,1.1791,12.2475,1275,2954.21
20094,-3.8104,-1.5275,12.4582,1277,2954.21
20099,-1.9166,2.2075,8.7329,1276,2954.21
20104,2.0961,3.9828,9.7516,1285,2954.21
20109,-0.6991,1.4593,12.1242,1275,2954.21
20114,-3.535,-1.6855,12.5504,1274,2954.21
20119,-2.3882,2.1129,8.8454,1277,2954.5
20124,2.0518,3.8774,9.6079,1279,2954.5
20129,-0.2574,1.6879,11.995,1277,2954.5
20134,-3.2441,-1.8352,12.6797,1287,2954.5
20139,-2.8611,1.9501,8.9914,1277,2954.65
20144,2.0063,3.7769,9.5756,1279,2954.65
20149,0.2035,1.9034,11.7519,1275,2954.65
20154,-2.988,-1.8699,12.797,1271,2954.65
20159,-3.3148,1.7933,9.2189,1276,2955.08
20164,1.9225,3.6931,9.5349,1277,2955.08
20169,0.65,2.0542,11.57,1289,2955.08
20174,-2.7438,-1.8256,12.8138,1271,2955.08
20179,-3.699,1.6436,9.3601,1277,2954.65
20184,1.8172,3.5602,9.3853,1275,2954.65
20189,1.0858,2.3499,11.4359,1291,2954.65
20194,-2.5259,-1.7322,12.9873,1273,2954.65
20199,-4.1228,1.4257,9.6893,1275,2954.65
20204,1.7107,3.4764,9.2117,1279,2954.79
20209,1.5443,2.6181,11.3234,1275,2954.79
20214,-2.302,-1.5658,13.0209,1273,2954.79
20219,-4.3539,1.2749,9.9144,1287,2954.79
20224,1.6305,3.3662,9.1243,1274,2954.94
20229,1.962,2.8778,11.0828,1277,2954.94
20234,-2.0399,-1.3348,12.9897,1268,2954.94
20239,-4.555,1.0642,10.2615,1289,2954.94
20244,1.482,3.2956,9.0118,1271,2955.08
20249,2.2458,3.0765,10.8816,1276,2955.08
20254,-1.7921,-1.1025,13.0472,1272,2955.08
20259,-4.6831,0.7386,10.5082,1287,2955.08
20264,1.3336,3.0909,8.8921,1275,2955.67
20269,2.4816,3.2992,10.7248,1274,2955.67
20274,-1.6783,-0.7997,13.0568,1272,2955.67
20279,-4.81,0.4202,10.744,1277,2955.67
20284,1.0211,3.0358,8.6993,1276,2955.67
20289,2.4936,3.486,10.5788,1275,2955.67
20294,-1.6245,-0.5543,13.0472,1275,2955.67
20299,-4.8171,0.0826,11.0864,1285,2955.67
20304,0.7709,2.8754,8.655,1279,2955.67
20309,2.484,3.6619,10.4184,1286,2955.67
20314,-1.6029,-0.2167,12.9526,1277,2955.67
20319,-4.786,-0.1173,11.3006,1277,2955.67
20324,0.4621,2.7725,8.5365,1275,2955.96
20329,2.4612,3.8283,10.3513,1275,2955.96
20334,-1.5682,0.0658,12.8808,1277,2955.96
20339,-4.7022,-0.3292,11.5664,1285,2955.96
20344,0.1065,2.7426,8.497,1279,2955.96
20349,2.4325,3.9301,10.2029,1278,2955.96
20354,-1.5766,0.3196,12.8509,1275,2955.96
20359,-4.5346,-0.6249,11.8226,1277,2955.96
20364,-0.2131,2.6252,8.5377,1274,2955.81
20369,2.3667,3.9373,10.0844,1287,2955.81
20374,-1.4401,0.6273,12.6773,1275,2955.81
20379,-4.3479,-0.9565,11.9782,1287,2955.81
20384,-0.6393,2.4983,8.521,1275,2955.96
20389,2.3212,3.9804,10.0269,1271,2955.96
20401,16.9318,5.1368,-15.5539,1276,2955.96
20404,-1.0977,2.3906,8.521,1273,2955.96
20409,2.2829,3.9756,9.8809,1275,2955.96
20414,-1.1911,1.0523,12.4498,1273,2955.96
20419,-3.9337,-1.4605,12.3649,1275,2955.96
20424,-1.5574,2.2565,8.5473,1271,2956.25
20429,2.1117,3.9313,9.8689,1278,2956.25
20434,-0.9888,1.2139,12.232,1274,2956.25
20439,-3.7553,-1.5634,12.5085,1272,2956.25
20444,-2.059,2.1811,8.6838,1273,2956.98
20449,2.0722,3.9169,9.7432,1275,2956.98
20454,-0.6823,1.4413,12.2128,1273,2956.98
20459,-3.5326,-1.731,12.6462,1275,2956.98
20464,-2.5127,2.0542,8.8202,1271,2957.12
20469,2.0063,3.8595,9.5972,1278,2957.12
20474,-0.2047,1.6819,12.044,1289,2957.12
20479,-3.3232,-1.7466,12.7048,1279,2957.12
20484,-2.9185,1.9872,9.0585,1270,2957.56
20489,1.9692,3.7649,9.5481,1271,2957.56
20494,0.2263,1.883,11.8728,1277,2957.56
20499,-3.0083,-1.7538,12.8365,1276,2957.56
20504,-3.3399,1.8172,9.1578,1273,2957.56
20509,1.9609,3.6715,9.4583,1269,2957.56
20514,0.7171,2.0973,11.6538,1287,2957.56
20519,-2.7964,-1.8076,12.9227,1267,2957.56
20524,-3.7206,1.6891,9.4104,1277,2957.41
20529,1.9142,3.5829,9.2787,1271,2957.41
20534,1.1684,2.3427,11.4874,1275,2957.41
20539,-2.4828,-1.7597,12.9694,1273,2957.41
20544,-3.9947,1.4617,9.6139,1273,2957.41
20549,1.8004,3.456,9.1662,1267,2957.41
20554,1.5263,2.5127,11.3389,1277,2957.41
20559,-2.3248,-1.6269,13.0077,1271,2957.41
20564,-4.3287,1.2977,9.912,1287,2957.41
20569,1.658,3.3842,9.0561,1272,2956.98
20574,1.8507,2.7892,11.151,1276,2956.98
20579,-2.162,-1.3886,13.0628,1272,2956.98
20584,-4.5622,1.075,10.1801,1279,2956.98
20589,1.5107,3.2453,8.9639,1267,2956.68
20594,2.1584,3.0789,11.0193,1271,2956.68
20599,-1.9405,-1.166,13.0951,1275,2956.68
20604,-4.6795,0.8715,10.4806,1277,2956.68
20609,1.3539,3.1903,8.8573,1270,2955.96
20614,2.3667,3.292,10.7847,1270,2955.96
20619,-1.7837,-0.9301,13.058,1275,2955.96
20624,-4.7956,0.5555,10.7667,1275,2955.96
20629,1.1241,3.0777,8.7867,1269,2956.1
20634,2.5283,3.4488,10.7153,1275,2956.1
20639,-1.6149,-0.6201,13.0496,1271,2956.1
20644,-4.7932,0.2885,10.9343,1275,2956.1
20649,0.8835,3.0095,8.7017,1279,2955.67
20654,2.5654,3.6547,10.4914,1279,2955.67
20659,-1.5239,-0.2897,12.9634,1276,2955.67
20664,-4.7848,-0.0754,11.2013,1275,2955.67
20669,0.5435,2.8359,8.6191,1279,2955.08
20674,2.484,3.7254,10.3956,1275,2955.08
20679,-1.4676,-0.0323,12.8784,1267,2955.08
20684,-4.6567,-0.3388,11.4718,1277,2955.08
20689,0.1772,2.7294,8.5006,1275,2954.65
20694,2.4301,3.8451,10.2592,1277,2954.65
20699,-1.4641,0.2658,12.724,1271,2954.65
20704,-4.5526,-0.6285,11.7783,1287,2954.65
20709,-0.2263,2.624,8.4779,1271,2954.94
20714,2.3092,3.9433,10.0952,1287,2954.94
20719,-1.4425,0.4872,12.6629,1275,2954.94
20724,-4.44,-0.9194,11.971,1285,2954.94
20729,-0.6476,2.5331,8.5341,1271,2954.94
20734,2.2338,4.0091,10.0341,1275,2954.94
20739,-1.3922,0.7973,12.615,1277,2954.94
20744,-4.215,-1.1911,12.1458,1275,2954.94
20749,-1.069,2.405,8.515,1269,2955.67
20754,2.2517,3.9851,9.8881,1275,2955.67
20759,-1.2007,1.0187,12.4965,1275,2955.67
20764,-4.0031,-1.4114,12.3194,1275,2955.67
20769,-1.5167,2.3272,8.6467,1272,2955.96
20774,2.1775,3.9241,9.8438,1279,2955.96
20779,-1.0127,1.2594,12.287,1275,2955.96
20784,-3.7445,-1.5682,12.4307,1271,2955.96
20789,-1.9549,2.1871,8.679,1273,2956.54
20794,2.1644,3.9169,9.7037,1276,2956.54
20799,-0.6955,1.4126,12.1865,1270,2956.54
20804,-3.4967,-1.7322,12.6246,1274,2956.54
20809,-2.405,2.0207,8.8226,1275,2956.39
20814,2.0758,3.8535,9.6774,1277,2956.39
20819,-0.3148,1.6316,11.9722,1275,2956.39
20824,-3.2992,-1.8208,12.7886,1287,2956.39
20829,-2.8563,1.9142,8.9388,1273,2956.1
20834,1.9824,3.7769,9.5122,1275,2956.1
20839,0.1173,1.883,11.8369,1273,2956.1
20844,-3.0789,-1.8531,12.8018,1274,2956.1
20849,-3.2968,1.7921,9.1877,1274,2956.68
20854,1.8974,3.6787,9.4308,1267,2956.68
20859,0.5698,2.1153,11.7268,1287,2956.68
20864,-2.8024,-1.8411,12.894,1269,2956.68
20869,-3.6978,1.6328,9.42,1275,2956.68
20874,1.81,3.5578,9.3565,1273,2956.1
20879,1.1073,2.4421,11.5317,1279,2956.1
20884,-2.5594,-1.7334,12.985,1271,2956.1
20889,-4.027,1.5263,9.6654,1271,2956.1
20894,1.8256,3.462,9.238,1273,2955.52
20899,1.5742,2.6157,11.303,1271,2955.52
20904,-2.3355,-1.6077,12.9742,1267,2955.52
20909,-4.3132,1.2665,9.8186,1279,2955.52
20914,1.664,3.3758,9.1087,1271,2955.23
20919,1.9465,2.8695,11.1199,1274,2955.23
20924,-2.0399,-1.3791,13.0628,1271,2955.23
20929,-4.5622,1.0127,10.1287,1276,2955.23
20934,1.5407,3.2406,8.9591,1273,2954.79
20939,2.2206,3.0418,10.9283,1269,2954.79
20944,-1.9213,-1.136,13.0185,1276,2954.79
20949,-4.7202,0.7362,10.4052,1273,2954.79
20954,1.3623,3.1256,8.8981,1272,2954.36
20959,2.3367,3.3291,10.7943,1276,2954.36
20964,-1.7358,-0.8236,12.9897,1273,2954.36
20969,-4.7968,0.4992,10.7416,1271,2954.36
20974,1.0582,2.9688,8.7065,1267,2953.92
20979,2.4433,3.5003,10.6159,1276,2953.92
20984,-1.6388,-0.5698,12.955,1273,2953.92
20989,-4.8746,0.2143,11.0061,1275,2953.92
20994,0.7422,2.9078,8.691,1285,2953.63
20999,2.4983,3.7529,10.4663,1275,2953.63
21004,-1.5933,-0.1688,12.9299,1272,2953.63
21009,-4.792,-0.0826,11.3018,1275,2953.63
21014,0.4429,2.7797,8.6491,1274,2953.48
21019,2.4576,3.8176,10.3621,1278,2953.48
21024,-1.5251,0.1173,12.9766,1267,2953.48
21029,-4.7022,-0.3627,11.5891,1277,2953.48
21034,0.0826,2.721,8.5677,1267,2953.19
21039,2.4361,3.8906,10.228,1285,2953.19
21044,-1.4976,0.3723,12.8078,1269,2953.19
21049,-4.5011,-0.6991,11.7926,1279,2953.19
21054,-0.2861,2.5845,8.4671,1271,2953.48
21059,2.3427,3.9193,10.058,1273,2953.48
21064,-1.4533,0.6393,12.6881,1277,2953.48
21069,-4.3263,-0.9936,11.9842,1273,2953.48
21074,-0.7638,2.4612,8.442,1269,2953.63
21079,2.2805,3.9576,10.0042,1275,2953.63
21084,-1.3264,0.8296,12.5109,1269,2953.63
21089,-4.0965,-1.2773,12.2619,1271,2953.63
21094,-1.2115,2.3583,8.5748,1271,2953.77
21099,2.1596,3.9397,9.9084,1278,2953.77
21104,-1.1744,1.0858,12.4451,1273,2953.77
21109,-3.8714,-1.4617,12.3672,1272,2953.77
21114,-1.6807,2.1931,8.6275,1273,2954.36
21119,2.0758,3.9612,9.7803,1275,2954.36
21124,-0.8775,1.3012,12.2846,1275,2954.36
21129,-3.6907,-1.6436,12.5181,1273,2954.36
21134,-2.1548,2.1632,8.8202,1269,2954.94
21139,2.0411,3.893,9.6977,1277,2954.94
21144,-0.4561,1.5419,12.1613,1272,2954.94
21149,-3.4225,-1.7717,12.6127,1275,2954.94
21154,-2.6899,2.0243,8.9256,1272,2955.23
21159,2.0494,3.8475,9.5936,1279,2955.23
21164,-0.0072,1.8004,11.9135,1279,2955.23
21169,-3.1496,-1.8244,12.7874,1275,2955.23
21174,-3.1077,1.8914,9.0992,1271,2955.52
21179,2.0159,3.7685,9.5553,1275,2955.52
21184,0.4573,1.9944,11.6993,1287,2955.52
21189,-2.8276,-1.81,12.7934,1270,2955.52
21194,-3.5147,1.7083,9.2656,1268,2955.52
21199,1.9429,3.6751,9.4284,1273,2955.52
21204,0.9337,2.1847,11.5053,1277,2955.52
21209,-2.6037,-1.7538,12.9454,1271,2955.52
21214,-3.8822,1.5766,9.5253,1269,2955.52
21219,1.8208,3.5039,9.2237,1279,2955.81
21224,1.3695,2.4565,11.406,1276,2955.81
21229,-2.3798,-1.6735,12.9826,1269,2955.81
21234,-4.2054,1.3635,9.7875,1288,2955.81
21239,1.7262,3.3842,9.1111,1274,2955.96
21244,1.7561,2.7677,11.2384,1273,2955.96
21249,-2.2146,-1.5143,13.0101,1269,2955.96
21254,-4.4568,1.1384,10.0664,1289,2955.96
21259,1.5814,3.2908,9.0656,1269,2955.67
21264,2.0901,3.0059,11.0205,1271,2955.67
21269,-2.0375,-1.2617,13.0352,1272,2955.67
21274,-4.6843,0.9661,10.3549,1275,2955.67
21279,1.421,3.2022,8.9507,1272,2956.39
21284,2.3343,3.2202,10.8673,1271,2956.39
21289,-1.8364,-0.9912,13.0939,1273,2956.39
21294,-4.7848,0.6764,10.6051,1277,2956.39
21299,1.2989,3.1268,8.8478,1273,2956.25
21304,2.5175,3.4285,10.6781,1272,2956.25
21309,-1.6891,-0.7051,13.0795,1273,2956.25
21314,-4.8471,0.3555,10.8625,1275,2956.25
21319,0.9912,2.9928,8.6395,1278,2956.39
21324,2.5546,3.5961,10.5369,1276,2956.39
21329,-1.6257,-0.3855,13.0376,1276,2956.39
21334,-4.8315,0.0694,11.1701,1275,2956.39
21339,0.7314,2.891,8.5892,1279,2956.25
21344,2.545,3.7302,10.4303,1274,2956.25
21349,-1.5658,-0.1185,12.9323,1271,2956.25
21354,-4.689,-0.2418,11.4347,1278,2956.25
21359,0.3424,2.6995,8.491,1285,2956.25
21364,2.5151,3.8343,10.2831,1273,2956.25
21369,-1.5,0.091,12.8784,1272,2956.25
21374,-4.6603,-0.5171,11.6753,1277,2956.25
21379,-0.0347,2.6336,8.4934,1272,2956.39
21384,2.3858,3.9133,10.2232,1277,2956.39
21389,-1.5359,0.4381,12.803,1273,2956.39
21394,-4.4975,-0.7889,11.8345,1285,2956.39
21399,-0.4393,2.5474,8.5269,1275,2956.25
21404,2.3008,3.9696,10.0389,1274,2956.25
21409,-1.4461,0.6907,12.6965,1277,2956.25
21414,-4.3539,-1.0163,12.0512,1273,2956.25
21419,-0.8511,2.4277,8.5162,1269,2956.25
21424,2.3104,3.9911,9.9551,1272,2956.25
21429,-1.3515,0.9134,12.5289,1274,2956.25
21434,-4.1563,-1.2498,12.2583,1271,2956.25
21439,-1.2617,2.3595,8.5521,1269,2956.1
21444,2.2326,4.0115,9.8976,1279,2956.1
21449,-1.1301,1.1444,12.3445,1275,2956.1
21454,-3.8451,-1.4174,12.4487,1276,2956.1
21459,-1.7298,2.2302,8.6143,1275,2955.67
21464,2.1679,3.9672,9.7648,1275,2955.67
21469,-0.82,1.3408,12.1458,1275,2955.67
21474,-3.6332,-1.6149,12.5648,1278,2955.67
21479,-2.1572,2.1093,8.7161,1273,2955.08
21484,2.0542,3.8559,9.663,1277,2955.08
21489,-0.4812,1.5419,12.0428,1293,2955.08
21494,-3.4297,-1.7573,12.6378,1287,2955.08
21499,-2.6324,1.9644,8.9256,1273,2955.52
21504,1.9908,3.7338,9.6438,1275,2955.52
21509,-0.0958,1.7957,11.91,1277,2955.52
21514,-3.1723,-1.8375,12.718,1278,2955.52
21519,-3.1029,1.883,9.1123,1273,2955.67
21524,1.9501,3.6667,9.4739,1271,2955.67
21529,0.431,1.992,11.7256,1287,2955.67
21534,-2.9042,-1.8735,12.8425,1269,2955.67
21539,-3.5314,1.7657,9.3075,1273,2955.67
21544,1.8735,3.6009,9.414,1270,2955.81
21549,0.9421,2.2541,11.5915,1276,2955.81
21554,-2.6456,-1.7585,12.9502,1261,2955.81
21559,-3.8487,1.5886,9.5421,1273,2955.81
21564,1.8411,3.5303,9.2811,1273,2954.94
21569,1.3503,2.5043,11.3892,1275,2954.94
21574,-2.4062,-1.5945,13.0065,1269,2954.94
21579,-4.2114,1.4198,9.7767,1287,2954.94
21584,1.7789,3.4249,9.1399,1267,2953.19
21589,1.8064,2.7701,11.1342,1267,2953.19
21594,-2.1021,-1.4449,13.0113,1271,2953.19
21599,-4.4221,1.16,10.0509,1286,2953.19
21604,1.6293,3.2872,9.0465,1269,2951.59
21609,2.1129,3.0478,11.0576,1273,2951.59
21614,-1.9369,-1.2127,13.0029,1274,2951.59
21619,-4.6124,0.8416,10.3573,1271,2951.59
21624,1.385,3.1532,8.8992,1271,2950.43
21629,2.3427,3.2848,10.835,1279,2950.43
21634,-1.7813,-0.9601,12.967,1272,2950.43
21639,-4.7441,0.5291,10.6853,1273,2950.43
21644,1.081,3.0143,8.8334,1269,2949.85
21649,2.411,3.4967,10.7093,1272,2949.85
21654,-1.6472,-0.583,12.961,1274,2949.85
21659,-4.7956,0.2227,10.9571,1275,2949.85
21664,0.8212,2.9197,8.7197,1277,2949.42
21669,2.4313,3.6787,10.4734,1273,2949.42
21674,-1.5778,-0.2251,12.955,1273,2949.42
21679,-4.7297,-0.1101,11.2863,1277,2949.42
21684,0.4465,2.8515,8.7029,1276,2949.27
21689,2.4493,3.8666,10.3477,1275,2949.27
21694,-1.555,0.164,12.8712,1272,2949.27
21699,-4.6304,-0.4381,11.57,1285,2949.27
21704,0.0467,2.7378,8.5569,1271,2949.42
21709,2.3691,3.9732,10.2053,1275,2949.42
21714,-1.4784,0.401,12.7743,1279,2949.42
21719,-4.4161,-0.7673,11.8333,1273,2949.42
21724,-0.3962,2.5881,8.5234,1270,2950.0
21729,2.3284,3.9959,10.0461,1275,2950.0
21734,-1.3491,0.6943,12.5564,1276,2950.0
21739,-4.1767,-1.075,12.0656,1277,2950.0
21744,-0.8763,2.4086,8.5593,1271,2950.14
21749,2.2314,3.9959,10.0209,1274,2950.14
21754,-1.2426,0.8835,12.3924,1273,2950.14
21759,-3.9935,-1.3659,12.2116,1269,2950.14
21764,-1.397,2.2913,8.5557,1275,2950.58
21769,2.1356,3.9588,9.924,1276,2950.58
21774,-1.0511,1.1744,12.311,1275,2950.58
21779,-3.8235,-1.5347,12.378,1274,2950.58
21784,-1.9201,2.2218,8.7041,1263,2950.29
21789,2.0554,3.8942,9.7432,1277,2950.29
21794,-0.6991,1.4222,12.1362,1273,2950.29
21799,-3.5362,-1.6975,12.554,1285,2950.29
21804,-2.4505,2.0889,8.8609,1270,2949.85
21809,2.0171,3.8571,9.7205,1275,2949.85
21814,-0.2622,1.7059,12.038,1279,2949.85
21819,-3.2022,-1.7406,12.7551,1277,2949.85
21824,-2.9568,1.9477,9.0764,1275,2949.56
21829,2.0051,3.7996,9.59,1269,2949.56
21834,0.2394,1.9225,11.7639,1285,2949.56
21839,-2.8718,-1.7849,12.8245,1271,2949.56
21844,-3.4465,1.7466,9.25,1277,2949.56
21849,1.9609,3.7026,9.4667,1275,2949.85
21854,0.8499,2.2051,11.5353,1275,2949.85
21859,-2.5977,-1.7837,12.8497,1272,2949.85
21864,-3.8499,1.5395,9.5577,1275,2949.85
21869,1.828,3.4776,9.2883,1277,2950.0
21874,1.3264,2.484,11.3988,1277,2950.0
21879,-2.3355,-1.6879,12.9514,1271,2950.0
21884,-4.2329,1.3084,9.7887,1292,2950.0
21889,1.6891,3.3591,9.1937,1271,2950.0
21894,1.7705,2.7761,11.1833,1272,2950.0
21899,-2.1943,-1.5215,12.9826,1274,2950.0
21904,-4.4748,1.0882,10.1394,1287,2950.0
21909,1.5514,3.2645,9.0621,1271,2950.14
21914,2.0889,3.0789,11.0038,1273,2950.14
21919,-1.9154,-1.1971,13.0245,1273,2950.14
21924,-4.6974,0.8152,10.4315,1274,2950.14
21929,1.3384,3.1699,8.9531,1271,2950.14
21934,2.296,3.377,10.7799,1280,2950.14
21939,-1.7765,-0.8404,12.9802,1272,2950.14
21944,-4.8159,0.5459,10.7631,1274,2950.14
21949,1.1349,3.1077,8.831,1278,2950.43
21954,2.4936,3.5183,10.6147,1279,2950.43
21959,-1.5742,-0.5626,12.9658,1277,2950.43
21964,-4.7513,0.1796,11.072,1275,2950.43
21969,0.7985,2.9736,8.6969,1273,2950.29
21974,2.5079,3.6943,10.4579,1276,2950.29
21979,-1.5167,-0.1568,12.8617,1272,2950.29
21984,-4.719,-0.1664,11.3389,1276,2950.29
21989,0.4645,2.7952,8.6407,1271,2949.85
21994,2.496,3.8164,10.3334,1277,2949.85
21999,-1.5179,0.1185,12.7779,1272,2949.85
22004,-4.5921,-0.5351,11.6238,1285,2949.85
22009,0.0048,2.6504,8.5401,1273,2949.56
22014,2.4014,3.9265,10.1981,1275,2949.56
22019,-1.5071,0.3603,12.6127,1274,2949.56
22024,-4.4676,-0.8535,11.8489,1273,2949.56
22029,-0.4836,2.5139,8.5497,1273,2949.42
22034,2.2697,3.9636,10.0556,1279,2949.42
22039,-1.4784,0.7123,12.6198,1277,2949.42
22044,-4.3144,-1.063,12.1099,1274,2949.42
22049,-0.9697,2.4146,8.588,1271,2949.56
22054,2.211,4.0187,9.9778,1285,2949.56
22059,-1.3312,0.9912,12.4738,1273,2949.56
22064,-4.0354,-1.2665,12.287,1273,2949.56
22069,-1.5048,2.3858,8.667,1275,2949.56
22074,2.1464,4.0187,9.9012,1279,2949.56
22079,-1.0475,1.2677,12.2679,1273,2949.56
22084,-3.7338,-1.5479,12.3661,1277,2949.56
22089,-1.9309,2.1943,8.7616,1274,2949.56
22094,2.1739,3.96,9.8138,1285,2949.56
22099,-0.6273,1.4437,12.0584,1273,2949.56
22104,-3.4321,-1.6963,12.5911,1285,2949.56
22109,-2.4421,2.0183,8.8406,1269,2949.85
22114,2.0746,3.8307,9.6857,1277,2949.85
22119,-0.1772,1.7023,11.8896,1288,2949.85
22124,-3.1615,-1.8292,12.6809,1275,2949.85
22129,-2.9916,1.7992,8.9878,1279,2949.13
22134,1.9632,3.6919,9.59,1273,2949.13
22139,0.3124,1.9597,11.7029,1286,2949.13
22144,-2.8922,-1.8375,12.8365,1260,2949.13
22149,-3.4836,1.7286,9.3362,1273,2949.13
22154,1.8675,3.541,9.414,1277,2949.27
22159,0.8559,2.2613,11.5412,1277,2949.27
22164,-2.642,-1.7801,12.864,1270,2949.27
22169,-3.9133,1.488,9.5732,1286,2949.27
22174,1.7561,3.5099,9.3374,1272,2949.27
22179,1.3551,2.5798,11.3868,1279,2949.27
22184,-2.3331,-1.5981,12.9838,1271,2949.27
22189,-4.2605,1.3467,9.894,1279,2949.27
22194,1.6556,3.4261,9.2009,1271,2949.42
22199,1.8507,2.8252,11.0959,1271,2949.42
22204,-2.0135,-1.3563,13.0101,1278,2949.42
22209,-4.5238,1.0391,10.1933,1269,2949.42
22214,1.5227,3.3112,9.0633,1271,2949.56
22219,2.2206,3.0933,10.9259,1276,2949.56
22224,-1.7957,-1.0822,13.0245,1272,2949.56
22229,-4.6986,0.7195,10.4663,1273,2949.56
22234,1.3096,3.1268,8.9184,1271,2949.85
22239,2.4289,3.322,10.6853,1273,2949.85
22244,-1.6388,-0.8164,12.9478,1275,2949.85
22249,-4.7728,0.3807,10.7835,1275,2949.85
22254,1.0295,2.9928,8.7987,1285,2949.42
22259,2.4624,3.4931,10.562,1277,2949.42
22264,-1.5658,-0.5148,12.9083,1275,2949.42
22269,-4.7764,0.073,11.1103,1275,2949.42
22274,0.6764,2.8431,8.655,1279,2948.84
22279,2.4469,3.7086,10.4483,1279,2948.84
22284,-1.555,-0.1197,12.8581,1272,2948.84
22289,-4.7525,-0.2083,11.4503,1277,2948.84
22294,0.2825,2.7186,8.6443,1269,2948.84
22299,2.3559,3.8786,10.3765,1285,2948.84
22304,-1.6113,0.2047,12.8042,1276,2948.84
22309,-4.622,-0.5339,11.6622,1276,2948.84
22314,-0.0838,2.6516,8.57,1271,2949.13
22319,2.3607,3.9947,10.1586,1276,2949.13
22324,-1.5467,0.5495,12.7647,1272,2949.13
22329,-4.3491,-0.8104,11.8992,1271,2949.13
22334,-0.5578,2.5582,8.582,1268,2949.42
22339,2.3176,4.0031,10.0401,1275,2949.42
22344,-1.3563,0.7709,12.5396,1273,2949.42
22349,-4.1527,-1.1432,12.1183,1269,2949.42
22354,-0.9984,2.3523,8.5724,1273,2949.42
22359,2.2494,4.0031,9.9838,1277,2949.42
22364,-1.2043,1.0259,12.4271,1268,2949.42
22369,-3.9253,-1.4401,12.2823,1273,2949.42
22374,-1.5718,2.2781,8.5952,1272,2949.42
22379,2.0961,3.9433,9.8605,1275,2949.42
22384,-0.923,1.2546,12.2164,1271,2949.42
22389,-3.7146,-1.6436,12.5001,1279,2949.42
22394,-2.1548,2.0734,8.752,1268,2949.27
22399,1.9956,3.8475,9.7588,1273,2949.27
22404,-0.5794,1.5143,12.0859,1275,2949.27
22409,-3.4081,-1.7801,12.5612,1274,2949.27
22414,-2.709,1.9896,8.9783,1273,2949.27
22419,1.9477,3.8032,9.675,1271,2949.27
22424,-0.0922,1.798,11.9243,1285,2949.27
22429,-3.1424,-1.7897,12.7467,1271,2949.27
22434,-3.213,1.8675,9.1482,1287,2948.69
22439,1.8998,3.699,9.5265,1275,2948.69
22444,0.4824,2.1009,11.7316,1277,2948.69
22449,-2.7713,-1.7837,12.7791,1273,2948.69
22454,-3.6368,1.6939,9.4284,1275,2948.69
22459,1.8926,3.5949,9.396,1277,2948.84
22464,1.081,2.3655,11.4395,1278,2948.84
22469,-2.478,-1.7059,12.9179,1267,2948.84
22474,-4.027,1.4413,9.6822,1289,2948.84
22479,1.7909,3.4548,9.2572,1271,2948.84
22484,1.5886,2.5929,11.2312,1272,2948.84
22489,-2.2206,-1.5981,12.967,1271,2948.84
22494,-4.3072,1.1696,9.9539,1286,2948.84
22499,1.6328,3.316,9.1315,1275,2948.84
22504,1.9609,2.9054,11.0373,1275,2948.84
22509,-2.0027,-1.3276,12.9993,1277,2948.84
22514,-4.6232,0.8894,10.2819,1275,2948.84
22519,1.3874,3.1819,9.0094,1274,2948.69
22524,2.2063,3.1771,10.9104,1263,2948.69
22529,-1.8184,-1.0391,12.9909,1272,2948.69
22534,-4.7525,0.6225,10.6171,1277,2948.69
22539,1.1995,3.0706,8.8585,1276,2949.13
22544,2.3822,3.4632,10.7715,1279,2949.13
22549,-1.6795,-0.6704,12.9407,1275,2949.13
22554,-4.8052,0.3484,10.9331,1275,2949.13
22559,0.9768,2.9497,8.7496,1285,2949.56
22564,2.4816,3.6823,10.568,1276,2949.56
22569,-1.6005,-0.3316,12.9502,1269,2949.56
22574,-4.7657,0.0144,11.2372,1275,2949.56
22579,0.5746,2.8754,8.6131,1275,2950.0
22584,2.4972,3.802,10.3813,1272,2950.0
22589,-1.5071,0.0048,12.8245,1273,2950.0
22594,-4.6711,-0.3328,11.4694,1289,2950.0
22599,0.2071,2.6887,8.5437,1275,2950.58
22604,2.5043,3.8642,10.2232,1277,2950.58
22609,-1.4808,0.2693,12.7958,1279,2950.58
22614,-4.4784,-0.6859,11.7184,1277,2950.58
22619,-0.2358,2.5798,8.5078,1275,2951.01
22624,2.3475,3.9349,10.1359,1279,2951.01
22629,-1.4341,0.583,12.6462,1277,2951.01
22634,-4.3144,-1.0068,11.9794,1275,2951.01
22639,-2.2733,2.0877,8.8083,1288,2951.3
22644,2.2434,3.9648,10.0281,1276,2951.3
22649,-0.4896,1.5718,12.0345,1273,2951.3
22654,-4.1623,-1.2234,12.1494,1277,2951.3
22659,-2.7653,2.0279,8.928,1273,2951.16
22664,2.1332,3.9923,9.9276,1279,2951.16
22669,0.0754,1.8172,11.7938,1275,2951.16
22674,-3.0813,-1.731,12.7467,1273,2951.16
22679,-3.2465,1.8579,9.1806,1273,2951.16
22684,1.9597,3.7086,9.5421,1276,2951.16
22689,0.5758,2.071,11.6921,1273,2951.16
22694,-2.7461,-1.7909,12.8162,1287,2951.16
22699,-3.6212,1.6532,9.4188,1270,2951.88
22704,1.8926,3.5542,9.3338,1273,2951.88
22709,1.1468,2.3451,11.467,1279,2951.88
22714,-2.484,-1.7442,12.9658,1275,2951.88
22719,-4.0175,1.4676,9.6163,1275,2951.74
22724,1.8184,3.4369,9.2392,1269,2951.74
22729,1.5814,2.6025,11.2516,1287,2951.74
22734,-2.2709,-1.6077,12.9802,1270,2951.74
22739,-4.391,1.2366,9.9228,1277,2951.74
22744,1.6664,3.3507,9.1542,1273,2951.74
22749,1.9405,2.8778,11.0205,1275,2951.74
22754,-2.0746,-1.3815,12.9766,1274,2951.74
22759,-4.6184,1.0116,10.2568,1274,2951.74
22764,1.4545,3.2525,8.9747,1275,2951.74
22769,2.1943,3.1496,10.9212,1277,2951.74
22774,-1.8699,-1.1145,13.0328,1273,2951.74
22779,-4.7369,0.7302,10.556,1287,2951.74
22784,1.2522,3.1687,8.8657,1269,2951.45
22789,2.4337,3.4357,10.7488,1276,2951.45
22794,-1.7442,-0.7398,13.0292,1271,2951.45
22799,-4.8028,0.4453,10.8517,1279,2951.45
22804,1.0032,3.0323,8.7233,1269,2951.16
22809,2.5127,3.6547,10.5931,1268,2951.16
22814,-1.5993,-0.4465,12.9335,1274,2951.16
22819,-4.7154,0.1137,11.157,1273,2951.16
22824,0.6309,2.8635,8.6239,1273,2951.01
22829,2.5343,3.7673,10.4794,1275,2951.01
22834,-1.4988,-0.1065,12.955,1273,2951.01
22839,-4.6483,-0.2406,11.406,1271,2951.01
22844,0.2909,2.7294,8.5437,1272,2951.45
22849,2.4672,3.8583,10.2615,1277,2951.45
22854,-1.4964,0.1987,12.8808,1275,2951.45
22859,-4.5681,-0.589,11.6083,1273,2951.45
22864,-0.1221,2.6875,8.515,1277,2951.59
22869,2.3056,3.954,10.1466,1272,2951.59
22874,-1.494,0.4836,12.7372,1273,2951.59
22879,-4.4508,-0.9074,11.8238,1275,2951.59
22884,-0.6105,2.5534,8.5162,1277,2951.01
22889,2.2733,4.0079,10.0772,1277,2951.01
22894,-1.4102,0.7422,12.5767,1273,2951.01
22899,-4.2497,-1.1456,12.1326,1277,2951.01
22904,-1.0726,2.393,8.6084,1271,2950.87
22909,2.2087,4.0007,10.0042,1273,2950.87
22914,-1.2282,1.0199,12.3708,1272,2950.87
22919,-3.9804,-1.3264,12.3038,1275,2950.87
22924,-1.5514,2.3068,8.6,1272,2951.16
22929,2.1679,3.9923,9.8952,1272,2951.16
22934,-0.9888,1.2785,12.2463,1277,2951.16
22939,-3.7218,-1.5502,12.5432,1275,2951.16
22944,-2.0375,2.1715,8.7712,1271,2951.45
22949,2.1308,3.9744,9.7372,1271,2951.45
22954,-0.595,1.5119,12.1003,1279,2951.45
22959,-3.4249,-1.731,12.6234,1263,2951.45
22964,-2.5666,2.0063,8.8885,1272,2950.72
22969,2.059,3.8235,9.6474,1275,2950.72
22974,-0.1089,1.7334,11.8477,1273,2950.72
22979,-3.1831,-1.7873,12.7048,1273,2950.72
22984,-3.0897,1.8818,9.0537,1274,2950.58
22989,1.9692,3.6978,9.5373,1293,2950.58
22994,0.3795,1.9764,11.6693,1272,2950.58
22999,-2.8946,-1.8806,12.8006,1285,2950.58
23004,-3.559,1.725,9.3601,1271,2950.72
23009,1.8771,3.5566,9.4355,1248,2950.72
23014,0.9529,2.2589,11.5377,1276,2950.72
23019,-2.6157,-1.7609,12.9131,1274,2950.72
23024,-3.9313,1.4976,9.5876,1275,2950.58
23029,1.816,3.4524,9.3182,1271,2950.58
23034,1.397,2.5941,11.333,1287,2950.58
23039,-2.3535,-1.6113,12.973,1270,2950.58
23044,-4.2569,1.3264,9.9515,1275,2950.87
23049,1.6855,3.3734,9.1351,1275,2950.87
23054,1.8794,2.8551,11.1378,1273,2950.87
23059,-2.077,-1.403,12.967,1291,2950.87
23064,-4.5107,1.0187,10.1706,1273,2950.87
23069,1.555,3.2382,9.0429,1275,2950.87
23074,2.1703,3.1256,10.9786,1277,2950.87
23079,-1.889,-1.1049,13.0053,1272,2950.87
23084,-4.6579,0.7434,10.5117,1288,2950.87
23089,1.2965,3.1161,8.9028,1269,2950.58
23094,2.405,3.3208,10.799,1273,2950.58
23099,-1.7142,-0.8619,12.9167,1273,2950.58
23104,-4.7417,0.4633,10.8038,1286,2950.58
23109,1.0523,3.0011,8.8011,1272,2950.29
23114,2.472,3.5494,10.6195,1275,2950.29
23119,-1.573,-0.486,12.9179,1275,2950.29
23124,-4.7776,0.0934,11.0373,1276,2950.29
23129,0.7015,2.8874,8.667,1272,2949.56
23134,2.4421,3.7158,10.41,1277,2949.56
23139,-1.5311,-0.1125,12.8796,1274,2949.56
23144,-4.7333,-0.237,11.3557,1275,2949.56
23149,0.3077,2.7629,8.6479,1276,2948.69
23154,2.4265,3.8427,10.3346,1277,2948.69
23159,-1.5443,0.1736,12.7791,1278,2948.69
23164,-4.6148,-0.5291,11.6765,1275,2948.69
23169,-0.1077,2.6659,8.5784,1277,2948.55
23174,2.3774,3.9935,10.2101,1277,2948.55
23179,-1.5419,0.5136,12.6438,1275,2948.55
23184,-4.4341,-0.8212,11.9183,1278,2948.55
23189,-0.5195,2.5738,8.6072,1277,2948.26
23194,2.2673,4.0294,10.0916,1279,2948.26
23199,-1.4281,0.7673,12.5109,1272,2948.26
23204,-4.1803,-1.1157,12.1721,1288,2948.26
23209,-1.0618,2.4409,8.5102,1273,2948.98
23214,2.1512,4.0211,9.9096,1285,2948.98
23219,-1.2438,1.0523,12.3493,1286,2948.98
23224,-3.9444,-1.3563,12.3146,1275,2948.98
23229,-1.5742,2.3128,8.7245,1272,2948.84
23234,2.1308,3.9576,9.8102,1277,2948.84
23239,-0.9708,1.3204,12.226,1277,2948.84
23244,-3.6955,-1.6137,12.4726,1273,2948.84
23249,-2.1308,2.1225,8.74,1272,2948.69
23254,2.0087,3.8571,9.7528,1287,2948.69
23259,-0.5698,1.5347,12.0548,1273,2948.69
23264,-3.4345,-1.7609,12.6186,1275,2948.69
23269,-2.6228,2.0231,8.928,1275,2949.56
23274,1.992,3.7673,9.6654,1275,2949.56
23279,-0.0838,1.7741,11.7974,1276,2949.56
23284,-3.0765,-1.8352,12.7395,1278,2949.56
23289,-3.1663,1.8364,9.165,1277,2949.13
23294,1.8938,3.6931,9.59,1279,2949.13
23299,0.4405,2.0423,11.6717,1275,2949.13
23304,-2.788,-1.8184,12.8581,1277,2949.13
23309,-3.6332,1.6592,9.3458,1271,2949.85
23314,1.9022,3.5626,9.4212,1275,2949.85
23319,0.9948,2.3056,11.4527,1287,2949.85
23324,-2.5402,-1.7478,12.9,1273,2949.85
23329,-3.984,1.4341,9.6678,1273,2949.27
23334,1.8136,3.4824,9.2536,1273,2949.27
23339,1.5,2.6193,11.333,1286,2949.27
23344,-2.2326,-1.5634,12.9431,1271,2949.27
23349,-4.3,1.2115,9.9156,1273,2949.27
23354,1.658,3.3339,9.1171,1274,2949.42
23359,1.9417,2.8934,11.0899,1273,2949.42
23364,-1.998,-1.3791,12.9706,1272,2949.42
23369,-4.5789,0.9421,10.1849,1286,2949.42
23374,1.4545,3.2094,9.0381,1273,2949.13
23379,2.2577,3.146,10.9008,1278,2949.13
23384,-1.7885,-1.087,12.9275,1270,2949.13
23389,-4.7405,0.6297,10.5189,1285,2949.13
23394,1.2665,3.0658,8.9196,1273,2948.98
23399,2.3703,3.3686,10.7823,1273,2948.98
23404,-1.6747,-0.7566,12.9921,1273,2948.98
23409,-4.8076,0.2741,10.8541,1273,2948.98
23414,0.9517,2.9892,8.8442,1272,2948.98
23419,2.4529,3.6021,10.5357,1271,2948.98
23424,-1.6316,-0.3615,12.9107,1273,2948.98
23429,-4.8207,0.0251,11.242,1275,2948.98
23434,0.6416,2.8718,8.7436,1272,2949.71
23439,2.4972,3.7864,10.3813,1279,2949.71
23444,-1.5371,-0.0383,12.8485,1274,2949.71
23449,-4.6759,-0.2885,11.5053,1274,2949.71
23454,0.1975,2.745,8.5665,1279,2950.14
23459,2.4313,3.9037,10.2029,1277,2950.14
23464,-1.5191,0.2634,12.7826,1275,2950.14
23469,-4.5011,-0.6309,11.716,1275,2950.14
23474,-0.1712,2.6312,8.5581,1278,2950.29
23479,2.3284,4.0103,10.1179,1279,2950.29
23484,-1.4712,0.589,12.6414,1263,2950.29
23489,-4.3167,-0.9529,11.9291,1279,2950.29
23494,-0.6764,2.5031,8.5162,1269,2950.43
23499,2.2685,3.948,9.9994,1277,2950.43
23504,-1.3431,0.8104,12.566,1273,2950.43
23509,-4.1252,-1.2402,12.1362,1277,2950.43
23514,-1.1516,2.4014,8.6251,1273,2950.14
23519,2.1177,3.948,9.8737,1275,2950.14
23524,-1.1839,1.0654,12.39,1275,2950.14
23529,-3.9181,-1.476,12.3277,1275,2950.14
23534,-1.7095,2.2434,8.6239,1269,2949.85
23539,2.1129,3.9863,9.8174,1273,2949.85
23544,-0.9266,1.3132,12.2056,1273,2949.85
23549,-3.6344,-1.6328,12.5612,1261,2949.85
23554,-2.2326,2.1464,8.7724,1271,2950.0
23559,2.0554,3.9313,9.7109,1276,2950.0
23564,-0.5315,1.6077,11.983,1274,2950.0
23569,-3.3483,-1.7322,12.6402,1271,2950.0
23574,-2.745,1.968,8.9711,1275,2950.43
23579,2.0195,3.8343,9.6343,1275,2950.43
23584,0.0407,1.8028,11.8752,1273,2950.43
23589,-3.0323,-1.7741,12.7635,1278,2950.43
23594,-3.2046,1.8375,9.165,1279,2950.43
23599,1.968,3.7122,9.4918,1277,2950.43
23604,0.5974,2.1081,11.7029,1273,2950.43
23609,-2.7438,-1.8495,12.7886,1277,2950.43
23614,-3.6655,1.6257,9.4128,1273,2950.58
23619,1.883,3.547,9.3709,1270,2950.58
23624,1.1337,2.3308,11.4922,1278,2950.58
23629,-2.4373,-1.7334,12.8916,1271,2950.58
23634,-4.0905,1.4365,9.6762,1275,2950.29
23639,1.7645,3.4105,9.2225,1271,2950.29
23644,1.6436,2.6647,11.2444,1279,2950.29
23649,-2.211,-1.6209,13.0101,1271,2950.29
23654,-4.3886,1.2055,9.9814,1271,2950.29
23659,1.6604,3.2884,9.1542,1275,2950.72
23664,1.9704,2.9185,10.981,1277,2950.72
23669,-1.9776,-1.3252,13.0017,1269,2950.72
23674,-4.6436,0.9182,10.2951,1288,2950.72
23679,1.4317,3.2178,8.9723,1266,2950.14
23684,2.1859,3.1927,10.8972,1273,2950.14
23689,-1.7933,-1.0247,13.0245,1273,2950.14
23694,-4.7357,0.6919,10.665,1288,2950.14
23699,1.2725,3.1256,8.8777,1273,2950.29
23704,2.4277,3.4034,10.7188,1273,2950.29
23709,-1.6556,-0.6919,12.9706,1275,2950.29
23714,-4.8004,0.3699,10.9487,1275,2950.29
23719,0.9266,2.9999,8.7029,1274,2950.29
23724,2.5714,3.6607,10.5608,1275,2950.29
23729,-1.5598,-0.3376,12.8928,1271,2950.29
23734,-4.7297,0.0227,11.2156,1277,2950.29
23739,0.5938,2.8216,8.5521,1273,2950.14
23744,2.5474,3.7278,10.3334,1292,2950.14
23749,-1.5083,-0.0347,12.8569,1276,2950.14
23754,-4.6448,-0.2849,11.4754,1277,2950.14
23759,0.1939,2.7198,8.5557,1285,2950.14
23764,2.4493,3.8319,10.222,1275,2950.14
23769,-1.4964,0.2418,12.7886,1272,2950.14
23774,-4.555,-0.7135,11.7244,1285,2950.14
23779,-0.243,2.563,8.5281,1279,2950.0
23784,2.2901,3.9433,10.1263,1277,2950.0
23789,-1.5167,0.5567,12.6438,1272,2950.0
23794,-4.3826,-0.9744,11.9674,1279,2950.0
23799,-0.7386,2.5486,8.5629,1273,2949.85
23804,2.2158,3.9828,10.076,1279,2949.85
23809,-1.4257,0.8691,12.5516,1279,2949.85
23814,-4.1599,-1.16,12.1446,1279,2949.85
23819,-1.2139,2.3786,8.5341,1267,2949.71
23824,2.1715,4.0438,9.9611,1275,2949.71
23829,-1.1684,1.1061,12.305,1275,2949.71
23834,-3.9097,-1.409,12.3565,1279,2949.71
23839,-1.7047,2.2601,8.6658,1271,2949.27
23844,2.1368,3.9911,9.8557,1277,2949.27
23849,-0.9026,1.3503,12.1865,1263,2949.27
23854,-3.5506,-1.6089,12.4762,1278,2949.27
23859,-2.241,2.0698,8.7281,1271,2948.84
23864,2.1033,3.8894,9.7276,1276,2948.84
23869,-0.4154,1.6041,12.0201,1274,2948.84
23874,-3.298,-1.7549,12.6498,1275,2948.84
23879,-2.7797,1.9489,8.9447,1272,2948.26
23884,1.9501,3.7278,9.6127,1277,2948.26
23889,0.1101,1.8184,11.7807,1273,2948.26
23894,-2.9796,-1.8735,12.706,1285,2948.26
23899,-3.2765,1.7813,9.1854,1272,2949.27
23904,1.9273,3.6176,9.5373,1273,2949.27
23909,0.6297,2.1165,11.6107,1279,2949.27
23914,-2.7605,-1.8459,12.7874,1279,2949.27
23919,-3.7445,1.6053,9.4427,1272,2949.42
23924,1.7585,3.5733,9.4511,1272,2949.42
23929,1.1133,2.4277,11.4144,1287,2949.42
23934,-2.4229,-1.7154,12.9443,1271,2949.42
23939,-4.142,1.3611,9.7612,1275,2949.71
23944,1.743,3.4465,9.3075,1273,2949.71
23949,1.6664,2.6372,11.2049,1276,2949.71
23954,-2.1644,-1.4808,13.0149,1273,2949.71
23959,-4.4077,1.1313,10.0521,1279,2949.71
23964,1.6233,3.3567,9.0968,1275,2950.14
23969,2.0542,2.9688,10.9822,1273,2950.14
23974,-1.9285,-1.2198,12.9861,1271,2950.14
23979,-4.6591,0.8859,10.3441,1279,2950.14
23984,1.4449,3.201,8.9555,1263,2950.58
23989,2.3595,3.1927,10.8493,1271,2950.58
23994,-1.7502,-0.9948,12.985,1273,2950.58
23999,-4.7692,0.5507,10.6087,1287,2950.58
24004,1.1827,3.0502,8.8214,1273,2950.72
24009,2.4804,3.4716,10.6494,1275,2950.72
24014,-1.6017,-0.6907,12.9933,1275,2950.72
24019,-4.786,0.2263,10.9223,1275,2950.72
24024,0.838,2.8958,8.7077,1273,2950.14
24029,2.4912,3.5853,10.4938,1275,2950.14
24034,-1.5502,-0.334,12.8808,1273,2950.14
24039,-4.7956,-0.0383,11.1989,1274,2950.14
24044,0.5686,2.8311,8.6323,1275,2950.29
24049,2.4146,3.8176,10.4028,1285,2950.29
24054,-1.6053,0.0144,12.9155,1277,2950.29
24059,-4.7142,-0.3699,11.4994,1275,2950.29
24064,0.1317,2.7354,8.5533,1285,2950.29
24069,2.3667,3.9145,10.2256,1271,2950.29
24074,-1.5694,0.3567,12.815,1272,2950.29
24079,-4.5322,-0.6464,11.7519,1277,2950.29
24084,-0.2634,2.6169,8.5281,1285,2950.43
24089,2.3739,4.0019,10.1167,1279,2950.43
24094,-1.4796,0.6572,12.627,1273,2950.43
24099,-4.3108,-0.9481,12.0021,1285,2950.43
24104,-0.7446,2.4696,8.5174,1275,2950.29
24109,2.3367,3.9528,10.058,1275,2950.29
24114,-1.3539,0.8188,12.4953,1285,2950.29
24119,-4.0917,-1.2474,12.2296,1275,2950.29
24124,-1.2163,2.332,8.6107,1269,2950.58
24129,2.1895,3.9863,9.9335,1269,2950.58
24134,-1.166,1.1013,12.3146,1278,2950.58
24139,-3.8439,-1.5,12.323,1275,2950.58
24144,-1.7801,2.2039,8.7113,1267,2950.29
24149,2.0985,3.8846,9.8485,1275,2950.29
24154,-0.8499,1.3264,12.1901,1270,2950.29
24159,-3.6464,-1.6735,12.4989,1272,2950.29
24164,-2.308,2.1296,8.8119,1272,2950.58
24169,2.0207,3.8451,9.7061,1275,2950.58
24174,-0.4429,1.6101,12.0536,1275,2950.58
24179,-3.3615,-1.7418,12.6701,1274,2950.58
24184,-2.8311,1.9788,9.013,1272,2950.58
24189,1.9609,3.7972,9.6343,1278,2950.58
24194,0.0934,1.8423,11.8633,1271,2950.58
24199,-3.0598,-1.7573,12.7767,1287,2950.58
24204,-3.31,1.8459,9.2261,1273,2950.72
24209,1.9441,3.6966,9.5193,1275,2950.72
24214,0.6416,2.1165,11.6215,1285,2950.72
24219,-2.7701,-1.7645,12.8305,1279,2950.72
24224,-3.6978,1.6484,9.4547,1268,2950.87
24229,1.8842,3.5877,9.3793,1273,2950.87
24234,1.1971,2.3691,11.4575,1288,2950.87
24239,-2.4672,-1.6628,12.9311,1275,2950.87
24244,-4.0701,1.3587,9.7133,1285,2950.87
24249,1.7861,3.4237,9.2165,1274,2951.16
24254,1.6975,2.6827,11.2144,1278,2951.16
24259,-2.2194,-1.5263,12.9562,1273,2951.16
24264,-4.4029,1.1588,10.0317,1275,2951.16
24269,1.6436,3.2872,9.0585,1277,2951.45
24274,2.0399,2.9353,11.078,1279,2951.45
24279,-2.0435,-1.3767,12.9993,1273,2951.45
24284,-4.5969,0.9038,10.2891,1285,2951.45
24289,1.4413,3.1771,8.9304,1269,2951.74
24294,2.2745,3.2022,10.9044,1274,2951.74
24299,-1.8088,-1.0307,13.0328,1274,2951.74
24304,-4.8171,0.6476,10.5919,1286,2951.74
24309,1.2282,3.0945,8.8166,1273,2951.59
24314,2.4026,3.4213,10.7009,1277,2951.59
24319,-1.7154,-0.7027,12.9431,1279,2951.59
24324,-4.8291,0.4046,10.8793,1275,2951.59
24329,0.9433,3.0227,8.7568,1273,2951.88
24334,2.5283,3.62,10.6255,1277,2951.88
24339,-1.5897,-0.3711,12.9742,1273,2951.88
24344,-4.7692,0.0611,11.1247,1275,2951.88
24349,0.6452,2.8898,8.661,1273,2951.45
24354,2.5115,3.7397,10.4327,1287,2951.45
24359,-1.4928,-0.0826,12.8401,1277,2951.45
24364,-4.6519,-0.3029,11.479,1275,2951.45
24369,0.231,2.7605,8.5665,1286,2951.16
24374,2.4744,3.8978,10.3202,1277,2951.16
24379,-1.482,0.2658,12.7395,1275,2951.16
24384,-4.537,-0.6261,11.7005,1277,2951.16
24389,-0.164,2.6384,8.4779,1275,2951.01
24394,2.3487,3.9349,10.0808,1279,2951.01
24399,-1.4844,0.5207,12.6103,1274,2951.01
24404,-4.3898,-0.9086,11.9076,1285,2951.01
24409,-0.6656,2.5235,8.576,1273,2951.01
24414,2.2482,3.9744,10.0293,1279,2951.01
24419,-1.4138,0.832,12.5528,1285,2951.01
24424,-4.227,-1.1564,12.1458,1279,2951.01
24429,-1.1444,2.3858,8.5712,1274,2951.16
24434,2.1979,4.0139,9.9695,1277,2951.16
24439,-1.2186,1.0822,12.4295,1277,2951.16
24444,-3.9875,-1.4042,12.3565,1286,2951.16
24449,-1.6508,2.2817,8.6886,1272,2951.59
24454,2.15,3.9744,9.8833,1278,2951.59
24459,-0.9062,1.318,12.2128,1273,2951.59
24464,-3.6703,-1.549,12.4726,1273,2951.59
24469,-2.1057,2.1524,8.7352,1274,2951.45
24474,2.1284,3.9037,9.7695,1277,2951.45
24479,-0.5483,1.5431,12.0213,1273,2951.45
24484,-3.4046,-1.6939,12.7072,1275,2951.45
24489,-2.6276,2.0183,8.9208,1272,2951.45
24494,2.0315,3.8223,9.6426,1285,2951.45
24499,-0.0599,1.7741,11.8226,1275,2951.45
24504,-3.0897,-1.8268,12.7671,1286,2951.45
24509,-3.1101,1.7992,9.0728,1271,2951.01
24514,1.9824,3.6727,9.5074,1275,2951.01
24519,0.4453,2.0039,11.7172,1286,2951.01
24524,-2.8359,-1.8579,12.8102,1275,2951.01
24529,-3.5937,1.7107,9.323,1269,2951.16
24534,1.8687,3.5506,9.3122,1273,2951.16
24539,0.9421,2.2889,11.5389,1288,2951.16
24544,-2.5666,-1.7861,12.9347,1273,2951.16
24549,-3.9492,1.4449,9.6367,1277,2950.14
24554,1.7717,3.4656,9.2692,1273,2950.14
24559,1.4066,2.5941,11.3294,1275,2950.14
24564,-2.3176,-1.6101,12.967,1271,2950.14
24569,-4.3227,1.2929,9.8845,1273,2950.14
24574,1.652,3.377,9.2165,1276,2952.61
24579,1.8699,2.8946,11.139,1286,2952.61
24584,-2.0542,-1.3635,12.9933,1271,2952.61
24589,-4.5418,1.0056,10.173,1279,2952.61
24594,1.5239,3.3184,9.0429,1271,2951.88
24599,2.1799,3.1352,10.92,1276,2951.88
24604,-1.8304,-1.1025,12.9802,1274,2951.88
24609,-4.6986,0.7015,10.4459,1278,2951.88
24614,1.324,3.14,8.8897,1275,2952.32
24619,2.4014,3.3435,10.7452,1277,2952.32
24624,-1.6472,-0.8092,13.0005,1275,2952.32
24629,-4.7728,0.3926,10.817,1273,2952.32
24634,1.0977,2.988,8.7448,1272,2952.47
24639,2.5019,3.5674,10.5955,1277,2952.47
24644,-1.5886,-0.5231,12.9071,1269,2952.47
24649,-4.8183,0.1281,11.0516,1273,2952.47
24654,0.7398,2.8826,8.6646,1273,2952.47
24659,2.466,3.7134,10.4363,1279,2952.47
24664,-1.567,-0.1724,12.9443,1277,2952.47
24669,-4.7369,-0.2119,11.3737,1273,2952.47
24674,0.3867,2.7761,8.594,1279,2951.88
24679,2.4373,3.8247,10.2651,1277,2951.88
24684,-1.5754,0.1592,12.8808,1273,2951.88
24689,-4.6627,-0.4848,11.6155,1277,2951.88
24694,-0.0227,2.6552,8.5904,1278,2951.45
24699,2.387,3.9373,10.1957,1277,2951.45
24704,-1.5431,0.4513,12.7659,1271,2951.45
24709,-4.4532,-0.7614,11.8776,1276,2951.45
24714,-0.4501,2.5845,8.5389,1272,2951.3
24719,2.3248,3.9648,10.0808,1275,2951.3
24724,-1.4401,0.753,12.6031,1277,2951.3
24729,-4.2677,-1.0331,12.0931,1278,2951.3
24734,-0.8871,2.4565,8.5988,1274,2951.45
24739,2.2553,3.9995,9.9539,1274,2951.45
24744,-1.3264,0.9756,12.4115,1275,2951.45
24749,-4.0127,-1.2797,12.2068,1277,2951.45
24754,-1.3791,2.2817,8.5904,1272,2951.3
24759,2.2003,3.9804,9.8414,1275,2951.3
24764,-1.1049,1.2007,12.2679,1273,2951.3
24769,-3.7721,-1.5622,12.4714,1273,2951.3
24774,-1.8986,2.1811,8.74,1273,2951.16
24779,2.0889,3.9145,9.7683,1287,2951.16
24784,-0.7889,1.4389,12.1649,1275,2951.16
24789,-3.5398,-1.6903,12.4929,1275,2951.16
24794,-2.4026,2.0482,8.8095,1276,2951.3
24799,2.0303,3.7972,9.7157,1277,2951.3
24804,-0.2705,1.6807,11.9794,1273,2951.3
24809,-3.2848,-1.7933,12.6366,1285,2951.3
24814,-2.9317,1.9309,9.0812,1274,2951.74
24819,1.9549,3.711,9.6558,1275,2951.74
24824,0.176,1.8914,11.8214,1272,2951.74
24829,-2.9987,-1.8411,12.7419,1277,2951.74
24834,-3.4261,1.749,9.2404,1279,2952.03
24839,1.8974,3.6069,9.5026,1275,2952.03
24844,0.753,2.217,11.6657,1287,2952.03
24849,-2.6887,-1.7681,12.864,1271,2952.03
24854,-3.8152,1.5371,9.4978,1277,2951.59
24859,1.8627,3.5051,9.2931,1274,2951.59
24864,1.2665,2.4289,11.3162,1285,2951.59
24869,-2.4038,-1.6592,12.9526,1271,2951.59
24874,-4.1707,1.3731,9.7863,1272,2951.59
24879,1.7514,3.4069,9.2692,1284,2952.47
24884,1.7538,2.6959,11.224,1278,2952.47
24889,-2.1691,-1.4545,12.9538,1271,2952.47
24894,-4.4209,1.1444,10.0497,1289,2952.47
24899,1.6484,3.2645,9.0561,1273,2952.03
24904,2.0877,2.9904,11.0349,1275,2952.03
24909,-1.998,-1.2845,12.9263,1270,2952.03
24914,-4.6555,0.8691,10.343,1287,2952.03
24919,1.391,3.0957,8.9471,1275,2952.47
24924,2.3152,3.1951,10.9128,1277,2952.47
24929,-1.8004,-0.996,13.0137,1275,2952.47
24934,-4.7896,0.6321,10.6662,1279,2952.47
24939,1.1803,3.037,8.8657,1276,2952.47
24944,2.4924,3.4321,10.7093,1273,2952.47
24949,-1.6999,-0.668,12.979,1273,2952.47
24954,-4.8255,0.3232,10.8936,1279,2952.47
24959,0.8823,2.9724,8.758,1273,2952.32
24964,2.5055,3.6236,10.495,1275,2952.32
24969,-1.6412,-0.3112,12.9742,1273,2952.32
24974,-4.7896,0.0407,11.169,1277,2952.32
24979,0.5926,2.8527,8.5856,1279,2952.32
24984,2.5331,3.7912,10.3681,1275,2952.32
24989,-1.5562,0.0084,12.8784,1273,2952.32
24994,-4.6938,-0.2933,11.5113,1279,2952.32
24999,0.2322,2.733,8.5605,1275,2952.61
25004,2.496,3.9109,10.2675,1275,2952.61
25009,-1.549,0.3041,12.7431,1271,2952.61
25014,-4.5765,-0.6057,11.7472,1285,2952.61
25019,-0.1688,2.648,8.4659,1272,2952.76
25024,2.381,3.978,10.167,1277,2952.76
25029,-1.4976,0.5602,12.6522,1273,2952.76
25034,-4.3622,-0.9062,11.9566,1286,2952.76
25039,-0.6225,2.49,8.4396,1273,2952.9
25044,2.2458,3.9732,10.0664,1275,2952.9
25049,-1.3874,0.7961,12.5396,1264,2952.9
25054,-4.1791,-1.1768,12.1183,1277,2952.9
25059,-1.081,2.399,8.5401,1271,2953.34
25064,2.1799,3.9672,9.9898,1277,2953.34
25069,-1.2222,1.0534,12.4654,1277,2953.34
25074,-3.978,-1.3946,12.3325,1277,2953.34
25079,-1.6053,2.2829,8.5988,1273,2953.63
25084,2.138,3.9385,9.827,1279,2953.63
25089,-0.929,1.3036,12.2715,1272,2953.63
25094,-3.7038,-1.5838,12.4953,1275,2953.63
25099,-2.1033,2.1715,8.7388,1273,2953.77
25104,2.0602,3.9361,9.7899,1279,2953.77
25109,-0.5974,1.5083,12.1506,1275,2953.77
25114,-3.4608,-1.7142,12.633,1277,2953.77
25119,-2.5774,2.0327,8.8729,1273,2953.63
25124,2.0973,3.8523,9.681,1279,2953.63
25129,-0.1508,1.6747,11.8657,1273,2953.63
25134,-3.1879,-1.7873,12.7683,1285,2953.63
25139,-3.0347,1.8902,9.0597,1273,2953.48
25144,2.0267,3.7733,9.5876,1279,2953.48
25149,0.3304,1.968,11.6993,1285,2953.48
25154,-2.9042,-1.8208,12.8018,1273,2953.48
25159,-3.4632,1.6807,9.2368,1273,2952.76
25164,1.9549,3.6129,9.396,1272,2952.76
25169,0.8571,2.223,11.5448,1288,2952.76
25174,-2.6564,-1.8028,12.8988,1268,2952.76
25179,-3.869,1.5467,9.4774,1278,2952.47
25184,1.8447,3.45,9.3182,1272,2952.47
25189,1.3503,2.4768,11.3796,1275,2952.47
25194,-2.3966,-1.6987,12.9036,1273,2952.47
25199,-4.2222,1.3348,9.7959,1277,2952.47
25204,1.725,3.3279,9.153,1257,2954.65
25209,1.7597,2.7497,11.2037,1279,2954.65
25214,-2.1847,-1.4545,13.0005,1273,2954.65
25219,-4.4831,1.0798,10.0736,1287,2954.65
25224,1.5706,3.2633,9.0441,1271,2953.19
25229,2.1057,3.0179,11.0038,1279,2953.19
25234,-1.9812,-1.2127,13.0245,1273,2953.19
25239,-4.6843,0.893,10.3286,1289,2953.19
25244,1.3922,3.2022,8.9771,1268,2953.19
25249,2.3439,3.2836,10.7859,1273,2953.19
25254,-1.816,-0.9242,13.0364,1277,2953.19
25259,-4.8028,0.5722,10.6446,1273,2953.19
25264,1.2067,3.0394,8.7436,1273,2953.48
25269,2.5199,3.4776,10.6398,1276,2953.48
25274,-1.6735,-0.6369,12.9909,1271,2953.48
25279,-4.78,0.2741,10.963,1273,2953.48
25284,0.9445,2.9173,8.6898,1271,2953.63
25289,2.5714,3.6619,10.5153,1276,2953.63
25294,-1.6029,-0.3448,12.9766,1277,2953.63
25299,-4.7489,0.006,11.2719,1273,2953.63
25304,0.5914,2.8383,8.5988,1285,2953.34
25309,2.5115,3.8008,10.4148,1277,2953.34
25314,-1.5359,-0.006,12.9383,1275,2953.34
25319,-4.7238,-0.3555,11.4371,1279,2953.34
25324,0.2023,2.6887,8.5174,1275,2953.34
25329,2.478,3.8618,10.2256,1275,2953.34
25334,-1.5239,0.2693,12.7671,1277,2953.34
25339,-4.5957,-0.6057,11.6801,1287,2953.34
25344,-0.2382,2.5905,8.5712,1273,2953.19
25349,2.3331,3.9421,10.1275,1277,2953.19
25354,-1.494,0.5471,12.6953,1275,2953.19
25359,-4.4592,-0.9361,11.88,1287,2953.19
25364,-0.6381,2.4972,8.5413,1273,2953.19
25369,2.308,4.0067,10.0664,1269,2953.19
25374,-1.421,0.814,12.5947,1277,2953.19
25379,-4.2329,-1.1372,12.1254,1275,2953.19
25384,-1.1145,2.4517,8.5605,1271,2952.9
25389,2.211,4.0342,9.9252,1273,2952.9
25394,-1.2605,1.0822,12.3732,1277,2952.9
25399,-3.9624,-1.3827,12.3134,1275,2952.9
25404,-1.5886,2.2697,8.606,1271,2952.47
25409,2.1835,3.9636,9.7923,1277,2952.47
25414,-0.9457,1.2869,12.2511,1273,2952.47
25419,-3.7194,-1.5311,12.4989,1271,2952.47
25424,-2.0626,2.156,8.7951,1271,2952.32
25429,2.0794,3.8906,9.742,1271,2952.32
25434,-0.565,1.476,12.123,1277,2952.32
25439,-3.395,-1.6975,12.548,1276,2952.32
25444,-2.5666,2.0243,8.8873,1273,2952.32
25449,2.0027,3.7517,9.6319,1277,2952.32
25454,-0.1113,1.7011,11.977,1267,2952.32
25459,-3.2094,-1.834,12.7539,1277,2952.32
25464,-3.0981,1.8591,9.1075,1274,2951.88
25469,1.9225,3.6536,9.4703,1275,2951.88
25474,0.346,2.0063,11.7136,1287,2951.88
25479,-2.891,-1.8208,12.8329,1277,2951.88
25484,-3.5398,1.7059,9.3326,1275,2952.17
25489,1.8914,3.5937,9.4631,1272,2952.17
25494,0.9014,2.2541,11.5891,1279,2952.17
25499,-2.6109,-1.7095,12.9203,1271,2952.17
25504,-3.9456,1.5622,9.5098,1276,2952.17
25509,1.8148,3.5422,9.256,1277,2952.32
25514,1.3862,2.5798,11.3653,1273,2952.32
25519,-2.3331,-1.6053,13.0101,1273,2952.32
25524,-4.2258,1.3479,9.8078,1279,2952.32
25529,1.7478,3.3914,9.1375,1277,2953.05
25534,1.8423,2.8012,11.2204,1279,2953.05
25539,-2.0949,-1.4138,12.9993,1271,2953.05
25544,-4.4879,1.0906,10.0916,1289,2953.05
25549,1.6101,3.2789,9.0261,1272,2953.48
25554,2.1919,3.0263,11.0265,1275,2953.48
25559,-1.9118,-1.2115,12.9323,1275,2953.48
25564,-4.6771,0.7757,10.3932,1279,2953.48
25569,1.3827,3.1448,8.8609,1274,2953.05
25574,2.332,3.2417,10.8673,1269,2953.05
25579,-1.7693,-0.9098,12.9359,1271,2953.05
25584,-4.7956,0.5339,10.726,1267,2953.05
25589,1.1253,2.9904,8.7951,1267,2952.9
25594,2.4397,3.4764,10.665,1270,2952.9
25599,-1.664,-0.6464,13.0197,1267,2952.9
25604,-4.871,0.2179,10.9822,1261,2952.9
25609,0.8464,2.9353,8.7257,1261,2953.05
25614,2.5115,3.6392,10.5105,1272,2953.05
25619,-1.6316,-0.2837,13.0065,1270,2953.05
25624,-4.7812,-0.0263,11.2671,1267,2953.05
25629,0.5399,2.8395,8.6084,1271,2952.76
25634,2.4624,3.8391,10.4016,1268,2952.76
25639,-1.5886,0.0922,12.888,1263,2952.76
25644,-4.6855,-0.3364,11.5257,1270,2952.76
25649,0.1496,2.7557,8.5976,1267,2952.61
25654,2.4529,3.887,10.2256,1272,2952.61
25659,-1.5467,0.3519,12.7683,1267,2952.61
25664,-4.4927,-0.6608,11.7495,1269,2952.61
25669,-0.2071,2.6205,8.4587,1263,2952.47
25674,2.381,3.9911,10.137,1271,2952.47
25679,-1.4688,0.595,12.5791,1273,2952.47
25684,-4.3084,-0.9673,11.9902,1271,2952.47
25689,-0.7027,2.4936,8.4862,1261,2952.32
25694,2.2829,3.9648,10.0114,1273,2952.32
25699,-1.3683,0.8368,12.4618,1269,2952.32
25704,-4.1168,-1.2234,12.1578,1267,2952.32
25709,-1.2498,2.3499,8.5928,1257,2952.47
25714,2.144,3.9492,9.8928,1269,2952.47
25719,-1.1791,1.087,12.4127,1267,2952.47
25724,-3.9229,-1.4617,12.3852,1268,2952.47
25729,-1.7526,2.2326,8.6826,1260,2952.47
25734,2.0818,3.9361,9.8545,1273,2952.47
25739,-0.9182,1.3384,12.2451,1287,2952.47
25744,-3.6811,-1.6257,12.5564,1261,2952.47
25749,-2.2134,2.1428,8.7424,1263,2952.47
25754,2.0566,3.9061,9.7157,1274,2952.47
25759,-0.4908,1.5634,12.0392,1271,2952.47
25764,-3.3842,-1.7119,12.6581,1273,2952.47
25769,-2.7078,1.992,8.9232,1269,2952.47
25774,2.0351,3.8487,9.6606,1277,2952.47
25779,-0.0156,1.8268,11.9112,1269,2952.47
25784,-3.0873,-1.7549,12.8054,1271,2952.47
25789,-3.2094,1.8579,9.1339,1269,2952.47
25794,1.9944,3.7302,9.4499,1269,2952.47
25799,0.4968,2.0614,11.6957,1277,2952.47
25804,-2.8108,-1.816,12.8485,1261,2952.47
25809,-3.6105,1.64,9.3446,1270,2952.47
25814,1.9046,3.5805,9.3613,1261,2952.47
25819,1.0247,2.2685,11.5017,1269,2952.47
25824,-2.5367,-1.7777,12.9263,1260,2952.47
25829,-4.0031,1.4198,9.6343,1263,2952.47
25834,1.7873,3.395,9.2452,1269,2952.61
25839,1.5012,2.5259,11.3054,1267,2952.61
25844,-2.3511,-1.6472,12.9251,1258,2952.61
25849,-4.3323,1.233,9.8845,1271,2952.61
25854,1.6819,3.3255,9.1435,1263,2952.47
25859,1.8783,2.8623,11.169,1267,2952.47
25864,-2.1368,-1.4126,13.0161,1261,2952.47
25869,-4.5861,1.0187,10.2017,1261,2952.47
25874,1.5347,3.2465,9.0357,1261,2952.47
25879,2.1656,3.1053,10.9726,1263,2952.47
25884,-1.9237,-1.0798,13.0532,1262,2952.47
25889,-4.7214,0.7578,10.4782,1263,2952.47
25894,1.318,3.1436,8.9052,1264,2952.61
25899,2.3822,3.4213,10.7176,1267,2952.61
25904,-1.7298,-0.7781,13.0041,1266,2952.61
25909,-4.8231,0.5112,10.7883,1268,2952.61
25914,1.1013,3.049,8.7628,1263,2952.61
25919,2.5462,3.5303,10.641,1268,2952.61
25924,-1.5957,-0.504,12.973,1263,2952.61
25929,-4.7657,0.1317,11.0409,1269,2952.61
25934,0.8021,2.9006,8.6431,1271,2952.61
25939,2.5786,3.7002,10.3884,1271,2952.61
25944,-1.5455,-0.1891,12.8485,1263,2952.61
25949,-4.7142,-0.1975,11.4,1269,2952.61
25954,0.4154,2.7246,8.5832,1271,2952.76
25959,2.5091,3.7781,10.3046,1269,2952.76
25964,-1.5107,0.0646,12.809,1261,2952.76
25969,-4.6543,-0.5028,11.5939,1267,2952.76
25974,0.0084,2.6731,8.5258,1266,2952.17
25979,2.3631,3.893,10.1347,1270,2952.17
25984,-1.5083,0.3831,12.7826,1263,2952.17
25989,-4.5155,-0.7685,11.8106,1271,2952.17
25994,-0.4381,2.5307,8.497,1267,2951.74
25999,2.2841,3.9672,10.1227,1263,2951.74
26004,-1.5227,0.6776,12.6701,1271,2951.74
26009,-4.3287,-1.0068,12.0021,1269,2951.74
26014,-0.8523,2.5103,8.5258,1267,2951.16
26019,2.2446,4.0354,10.0042,1271,2951.16
26024,-1.3731,0.9984,12.4331,1269,2951.16
26029,-4.0211,-1.2558,12.2236,1268,2951.16
26034,-1.3288,2.332,8.5784,1269,2951.01
26039,2.2446,4.0091,9.906,1273,2951.01
26044,-1.1384,1.1696,12.2535,1261,2951.01
26049,-3.7769,-1.4976,12.3984,1267,2951.01
26054,-1.8447,2.2003,8.6682,1271,2951.3
26059,2.1488,3.9133,9.7971,1269,2951.3
26064,-0.7482,1.4521,12.1206,1267,2951.3
26069,-3.4836,-1.7035,12.5193,1269,2951.3
26074,-2.3762,2.0159,8.7867,1269,2951.3
26079,2.0638,3.8044,9.6953,1270,2951.3
26084,-0.3208,1.64,11.9602,1262,2951.3
26089,-3.2322,-1.816,12.6234,1269,2951.3
26094,-2.909,1.9106,9.0273,1267,2952.17
26099,1.962,3.699,9.596,1263,2952.17
26104,0.164,1.9225,11.8417,1271,2952.17
26109,-3.0179,-1.8627,12.7419,1268,2952.17
26114,-3.3471,1.798,9.2524,1271,2951.88
26119,1.889,3.6404,9.4128,1261,2951.88
26124,0.6512,2.1919,11.6095,1269,2951.88
26129,-2.7246,-1.7933,12.8688,1261,2951.88
26134,-3.8176,1.6149,9.5038,1271,2951.88
26139,1.8244,3.5135,9.3972,1271,2952.03
26144,1.2055,2.4421,11.4503,1268,2952.03
26149,-2.4469,-1.6185,12.9335,1269,2952.03
26154,-4.1719,1.4246,9.6642,1271,2952.03
26159,1.7741,3.4608,9.1985,1267,2951.74
26164,1.6747,2.6803,11.1749,1269,2951.74
26169,-2.223,-1.4772,13.0185,1262,2951.74
26174,-4.4377,1.1576,10.0509,1277,2951.74
26179,1.6305,3.3064,9.074,1267,2951.74
26184,2.1045,2.9592,11.0217,1266,2951.74
26189,-1.962,-1.2474,12.9347,1267,2951.74
26194,-4.622,0.8871,10.2915,1277,2951.74
26199,1.4461,3.1484,8.9388,1267,2951.3
26204,2.3403,3.1819,10.8529,1269,2951.3
26209,-1.7909,-0.99,12.9526,1273,2951.3
26214,-4.7309,0.5722,10.6279,1259,2951.3
26219,1.1504,2.9724,8.8226,1268,2951.45
26224,2.3954,3.4129,10.7081,1271,2951.45
26229,-1.6783,-0.6919,12.9299,1263,2951.45
26234,-4.859,0.3089,10.9176,1287,2951.45
26239,0.917,2.909,8.7352,1292,2951.45
26244,2.484,3.6488,10.5393,1291,2951.45
26249,-1.6281,-0.3687,12.9885,1287,2951.45
26254,-4.8088,0.0227,11.2348,1294,2951.45
26259,0.6117,2.8335,8.6311,1291,2951.88
26264,2.4744,3.7984,10.4172,1291,2951.88
26269,-1.6173,0.018,12.9251,1279,2951.88
26274,-4.7309,-0.2873,11.5185,1295,2951.88
26279,0.2107,2.7426,8.5509,1289,2951.88
26284,2.4409,3.8882,10.3106,1291,2951.88
26289,-1.5574,0.3484,12.7479,1279,2951.88
26294,-4.5274,-0.5674,11.71,1290,2951.88
26299,-0.176,2.6181,8.5174,1287,2951.59
26304,2.4325,3.9696,10.1861,1285,2951.59
26309,-1.47,0.5997,12.6127,1286,2951.59
26314,-4.3455,-0.9218,12.0357,1275,2951.59
26319,-0.6369,2.4828,8.5186,1276,2951.74
26324,2.2889,3.972,10.0269,1279,2951.74
26329,-1.3695,0.8212,12.5013,1277,2951.74
26334,-4.0893,-1.2019,12.1075,1289,2951.74
26339,-1.1384,2.3595,8.491,1278,2952.17
26344,2.2134,3.948,9.9323,1289,2952.17
26349,-1.1672,1.0463,12.3996,1279,2952.17
26354,-3.9265,-1.4257,12.3158,1279,2952.17
26359,-1.664,2.223,8.6718,1286,2952.17
26364,2.077,3.8726,9.8174,1288,2952.17
26369,-0.9565,1.2629,12.2715,1279,2952.17
26374,-3.7493,-1.6508,12.4319,1288,2952.17
26379,-2.1668,2.1691,8.7664,1288,2951.59
26384,2.0458,3.8966,9.754,1293,2951.59
26389,-0.5483,1.5467,12.141,1287,2951.59
26394,-3.4608,-1.6963,12.5971,1293,2951.59
26399,-2.6863,2.0387,8.9818,1285,2952.61
26404,2.0722,3.8714,9.6618,1289,2952.61
26409,-0.0539,1.7597,11.9171,1291,2952.61
26414,-3.1232,-1.7502,12.7838,1291,2952.61
26419,-3.0765,1.8675,9.1327,1279,2952.03
26424,2.0482,3.7493,9.5732,1277,2952.03
26429,0.4896,2.0063,11.6729,1293,2952.03
26434,-2.8,-1.8136,12.8054,1273,2952.03
26439,-3.5757,1.6664,9.2967,1279,2951.3
26444,1.9417,3.5925,9.3601,1275,2951.3
26449,1.0199,2.2482,11.4622,1279,2951.3
26454,-2.5031,-1.7478,12.9095,1279,2951.3
26459,-3.9516,1.4413,9.6103,1279,2951.3
26464,1.8196,3.4608,9.3063,1277,2952.47
26469,1.4772,2.5402,11.3605,1287,2952.47
26474,-2.3188,-1.67,12.9586,1273,2952.47
26479,-4.2784,1.2701,9.9048,1291,2952.47
26484,1.6352,3.3291,9.1207,1272,2952.03
26489,1.8579,2.8635,11.1701,1279,2952.03
26494,-2.1045,-1.4449,13.0077,1278,2952.03
26499,-4.5657,1.0403,10.2017,1287,2952.03
26504,1.5287,3.2394,9.0082,1273,2952.32
26509,2.1572,3.0945,11.0061,1275,2952.32
26514,-1.8771,-1.1624,13.0568,1285,2952.32
26519,-4.7597,0.7829,10.4531,1275,2952.32
26524,1.2953,3.14,8.928,1288,2952.47
26529,2.3655,3.3172,10.7907,1275,2952.47
26534,-1.7262,-0.814,13.0759,1273,2952.47
26539,-4.8255,0.4932,10.7643,1275,2952.47
26544,1.0774,3.0813,8.8202,1271,2951.74
26549,2.5235,3.541,10.6087,1276,2951.74
26554,-1.6185,-0.4824,12.9538,1275,2951.74
26559,-4.7669,0.1245,11.0181,1275,2951.74
26564,0.8128,2.8922,8.6323,1278,2951.74
26569,2.5414,3.7086,10.4734,1275,2951.74
26574,-1.5287,-0.182,12.8964,1273,2951.74
26579,-4.7309,-0.1604,11.3353,1277,2951.74
26584,0.4118,2.7952,8.5509,1277,2951.59
26589,2.5271,3.8199,10.313,1275,2951.59
26594,-1.5311,0.0934,12.7934,1273,2951.59
26599,-4.628,-0.5124,11.5903,1285,2951.59
26604,0.0192,2.6193,8.5533,1273,2952.03
26609,2.3727,3.948,10.1801,1286,2952.03
26614,-1.5335,0.4106,12.6881,1278,2952.03
26619,-4.5286,-0.8104,11.7998,1291,2952.03
26624,-0.4405,2.5654,8.4958,1273,2951.74
26629,2.2829,3.9947,10.0748,1273,2951.74
26634,-1.4629,0.6871,12.6378,1277,2951.74
26639,-4.2976,-1.0475,12.0285,1272,2951.74
26644,-0.911,2.4588,8.57,1273,2951.59
26649,2.2482,3.9863,9.9994,1275,2951.59
26654,-1.3228,0.9804,12.4917,1273,2951.59
26659,-4.1025,-1.2749,12.2535,1275,2951.59
26664,-1.3862,2.3834,8.6024,1275,2951.74
26669,2.2051,4.0223,9.8797,1289,2951.74
26674,-1.0822,1.1803,12.3122,1277,2951.74
26679,-3.8164,-1.4605,12.4139,1277,2951.74
26684,-1.8627,2.2218,8.6742,1276,2952.03
26689,2.1691,3.9409,9.809,1279,2952.03
26694,-0.7566,1.4174,12.1063,1273,2952.03
26699,-3.5183,-1.6173,12.6079,1275,2952.03
26704,-2.3595,2.047,8.7293,1279,2952.17
26709,2.0937,3.8487,9.6941,1279,2952.17
26714,-0.3089,1.6544,11.9758,1286,2952.17
26719,-3.2669,-1.7873,12.7084,1288,2952.17
26724,-2.8838,1.9273,8.9447,1285,2952.61
26729,2.0111,3.7002,9.5325,1275,2952.61
26734,0.1484,1.8938,11.8166,1289,2952.61
26739,-3.0227,-1.7992,12.7623,1276,2952.61
26744,-3.3507,1.7334,9.2476,1289,2952.76
26749,1.8651,3.5805,9.505,1277,2952.76
26754,0.6632,2.1691,11.6873,1290,2952.76
26759,-2.721,-1.8064,12.8605,1276,2952.76
26764,-3.7445,1.6065,9.5026,1285,2952.76
26769,1.8328,3.5063,9.3529,1291,2952.76
26774,1.1839,2.4433,11.4742,1285,2952.76
26779,-2.5067,-1.7047,12.894,1277,2952.76
26784,-4.1468,1.4545,9.7372,1289,2952.76
26789,1.7645,3.4273,9.2584,1277,2952.17
26794,1.6436,2.7234,11.2923,1279,2952.17
26799,-2.2254,-1.4329,13.034,1277,2952.17
26804,-4.4161,1.1791,9.9862,1291,2952.17
26809,1.6305,3.3243,9.0932,1273,2952.17
26814,1.9668,2.9293,11.0564,1277,2952.17
26819,-1.9692,-1.2582,13.0484,1279,2952.17
26824,-4.6388,0.8966,10.3274,1278,2952.17
26829,1.4461,3.2417,8.9974,1276,2951.74
26834,2.2709,3.1987,10.9128,1276,2951.74
26839,-1.7909,-0.9529,12.9993,1277,2951.74
26844,-4.7321,0.595,10.5704,1277,2951.74
26849,1.2115,3.0311,8.831,1275,2951.45
26854,2.4253,3.3854,10.7057,1279,2951.45
26859,-1.6604,-0.7075,12.955,1298,2951.45
26864,-4.8004,0.3352,10.9044,1279,2951.45
26869,0.8966,2.9389,8.746,1287,2951.59
26874,2.4624,3.5877,10.5596,1289,2951.59
26879,-1.6161,-0.3723,12.9131,1279,2951.59
26884,-4.8255,0.006,11.1654,1287,2951.59
26889,0.5782,2.818,8.6526,1285,2951.88
26894,2.4684,3.7338,10.41,1287,2951.88
26899,-1.579,-0.0431,12.9454,1275,2951.88
26904,-4.7274,-0.2682,11.4203,1287,2951.88
26909,0.2274,2.7593,8.6119,1271,2951.74
26914,2.4409,3.9014,10.2867,1275,2951.74
26919,-1.549,0.2646,12.7635,1277,2951.74
26924,-4.6076,-0.5878,11.6741,1289,2951.74
26929,-0.1389,2.6624,8.5437,1287,2952.47
26934,2.3786,3.966,10.1215,1278,2952.47
26939,-1.5024,0.5662,12.6857,1287,2952.47
26944,-4.3802,-0.8835,11.9159,1273,2952.47
26949,-0.6285,2.5367,8.5246,1277,2952.32
26954,2.3451,4.0235,10.0149,1287,2952.32
26959,-1.4126,0.7961,12.4798,1287,2952.32
26964,-4.209,-1.1432,12.1817,1289,2952.32
26969,-1.0594,2.3954,8.503,1276,2952.61
26974,2.1871,3.9516,9.9515,1279,2952.61
26979,-1.2438,1.0104,12.402,1277,2952.61
26984,-3.9421,-1.3934,12.3325,1279,2952.61
26989,-1.5814,2.2589,8.5641,1279,2953.05
26994,2.1512,3.9229,9.839,1287,2953.05
26999,-0.99,1.2462,12.3146,1285,2953.05
27004,-3.7373,-1.561,12.4738,1287,2953.05
27009,-2.0698,2.1644,8.7173,1286,2953.34
27014,2.0482,3.8678,9.7073,1287,2953.34
27019,-0.6261,1.421,12.1159,1285,2953.34
27024,-3.4608,-1.7681,12.5253,1293,2953.34
27029,-2.6061,2.0399,8.916,1279,2953.48
27034,1.9908,3.7852,9.6678,1286,2953.48
27039,-0.164,1.7166,12.0392,1291,2953.48
27044,-3.1879,-1.7621,12.7874,1286,2953.48
27049,-3.0574,1.9321,8.9878,1277,2953.48
27054,1.9956,3.7757,9.5852,1276,2953.48
27059,0.2957,1.9752,11.7986,1291,2953.48
27064,-2.897,-1.7849,12.8497,1273,2953.48
27069,-3.4488,1.7585,9.2632,1284,2953.48
27074,1.9453,3.7098,9.4966,1279,2953.19
27079,0.838,2.2386,11.5724,1285,2953.19
27084,-2.5786,-1.7538,12.9239,1277,2953.19
27089,-3.8607,1.5658,9.4272,1279,2953.19
27094,1.8806,3.5291,9.2799,1286,2953.19
27099,1.3755,2.4684,11.4144,1289,2953.19
27104,-2.3942,-1.6293,12.9239,1273,2953.19
27109,-4.2186,1.3443,9.8043,1279,2953.19
27114,1.737,3.3842,9.171,1275,2953.34
27119,1.7394,2.7366,11.2408,1279,2953.34
27124,-2.1476,-1.5131,12.9538,1277,2953.34
27129,-4.4855,1.0511,10.0054,1286,2953.34
27134,1.5886,3.2585,9.0237,1276,2953.34
27139,2.0937,2.9796,11.0241,1285,2953.34
27144,-1.9896,-1.2474,12.9814,1285,2953.34
27149,-4.719,0.8823,10.4016,1285,2953.34
27154,1.4006,3.1316,8.9112,1287,2953.63
27159,2.332,3.2142,10.8876,1279,2953.63
27164,-1.8028,-0.9481,13.0221,1275,2953.63
27169,-4.8602,0.5962,10.6602,1285,2953.63
27174,1.1935,3.0574,8.8454,1277,2953.77
27179,2.5103,3.4596,10.7057,1287,2953.77
27184,-1.6831,-0.6105,13.0616,1284,2953.77
27189,-4.853,0.3448,10.9092,1287,2953.77
27194,0.9313,2.9999,8.7065,1279,2953.77
27199,2.5618,3.6679,10.4782,1277,2953.77
27204,-1.6364,-0.3292,12.9586,1275,2953.77
27209,-4.8147,-0.0215,11.2444,1278,2953.77
27214,0.6488,2.8958,8.5305,1289,2953.77
27219,2.5582,3.8092,10.3705,1288,2953.77
27224,-1.5706,-0.0048,12.888,1273,2953.77
27229,-4.6795,-0.3567,11.4862,1287,2953.77
27234,0.2658,2.7234,8.5246,1277,2953.63
27239,2.4636,3.8798,10.2975,1287,2953.63
27244,-1.5335,0.2658,12.8186,1273,2953.63
27249,-4.5502,-0.5902,11.7112,1287,2953.63
27254,-0.2095,2.6121,8.4779,1277,2953.77
27259,2.3679,3.9169,10.1119,1277,2953.77
27264,-1.5299,0.5148,12.6988,1279,2953.77
27269,-4.4053,-0.911,11.9339,1277,2953.77
27274,-0.6081,2.4828,8.5198,1277,2953.77
27279,2.3068,3.9636,10.0329,1285,2953.77
27284,-1.4341,0.7961,12.5408,1287,2953.77
27289,-4.2856,-1.1696,12.1218,1277,2953.77
27294,-1.0953,2.393,8.5353,1276,2953.92
27299,2.217,4.0031,9.9515,1289,2953.92
27304,-1.2653,1.0295,12.4582,1275,2953.92
27309,-4.0199,-1.3803,12.2918,1275,2953.92
27314,-1.5203,2.3284,8.576,1277,2954.06
27319,2.1955,3.9624,9.8689,1286,2954.06
27324,-1.0367,1.2917,12.2475,1275,2954.06
27329,-3.7864,-1.5048,12.5001,1285,2954.06
27334,-2.0363,2.1596,8.6754,1277,2954.21
27339,2.15,3.9145,9.8043,1279,2954.21
27344,-0.6345,1.4904,12.0967,1275,2954.21
27349,-3.4728,-1.6819,12.536,1289,2954.21
27354,-2.4936,2.0782,8.8286,1279,2954.5
27359,2.0542,3.8583,9.7025,1285,2954.5
27364,-0.2239,1.6939,11.9746,1287,2954.5
27369,-3.2489,-1.8352,12.7012,1286,2954.5
27374,-2.976,1.8878,9.0405,1279,2954.65
27379,2.0183,3.6512,9.5181,1277,2954.65
27384,0.2945,1.9142,11.7196,1292,2954.65
27389,-3.0035,-1.8531,12.7695,1277,2954.65
27394,-3.4608,1.7322,9.2799,1287,2954.5
27399,1.8926,3.6009,9.414,1279,2954.5
27404,0.7889,2.1979,11.6382,1279,2954.5
27409,-2.7246,-1.8256,12.894,1277,2954.5
27414,-3.8223,1.5694,9.4631,1287,2954.5
27419,1.8292,3.4872,9.2955,1279,2954.94
27424,1.2438,2.393,11.4539,1287,2954.94
27429,-2.4852,-1.7023,12.9646,1267,2954.94
27434,-4.1779,1.4605,9.7707,1293,2954.94
27439,1.7526,3.4189,9.1973,1288,2954.06
27444,1.6496,2.7354,11.2372,1279,2954.06
27449,-2.2398,-1.4425,12.9861,1269,2954.06
27454,-4.4065,1.1708,9.9754,1293,2954.06
27459,1.6735,3.3064,9.0728,1275,2953.77
27464,2.0399,2.9197,11.0253,1272,2953.77
27469,-1.9908,-1.2294,13.058,1279,2953.77
27474,-4.6244,0.911,10.2831,1285,2953.77
27479,1.4437,3.1735,8.9639,1274,2953.92
27484,2.2972,3.1867,10.8733,1278,2953.92
27489,-1.7909,-1.0247,12.9969,1277,2953.92
27494,-4.6998,0.5914,10.5967,1279,2953.92
27499,1.2474,3.0323,8.7951,1273,2953.48
27504,2.5007,3.3698,10.7296,1279,2953.48
27509,-1.6975,-0.7793,12.9754,1277,2953.48
27514,-4.7728,0.3412,10.8781,1287,2953.48
27519,0.9876,2.9233,8.7221,1287,2953.63
27524,2.5259,3.5662,10.5872,1277,2953.63
27529,-1.6532,-0.4525,12.9443,1275,2953.63
27534,-4.8375,0.0395,11.0983,1285,2953.63
27539,0.6321,2.8204,8.6179,1277,2953.48
27544,2.4708,3.7625,10.398,1275,2953.48
27549,-1.5562,-0.085,12.9071,1275,2953.48
27554,-4.774,-0.2418,11.382,1289,2953.48
27559,0.334,2.7653,8.6155,1274,2953.19
27564,2.4277,3.9025,10.2544,1275,2953.19
27569,-1.5383,0.2454,12.8317,1275,2953.19
27574,-4.6268,-0.4932,11.643,1291,2953.19
27579,-0.0706,2.6779,8.5617,1271,2953.34
27584,2.4074,3.9205,10.2077,1277,2953.34
27589,-1.5036,0.4693,12.736,1277,2953.34
27594,-4.4329,-0.8009,11.8728,1285,2953.34
27599,-0.4357,2.6205,8.5138,1279,2953.19
27604,2.3643,4.0079,10.088,1291,2953.19
27609,-1.4234,0.7494,12.5827,1279,2953.19
27614,-4.2042,-1.0762,12.1003,1287,2953.19
27619,-0.9361,2.411,8.4635,1278,2953.34
27624,2.2984,3.9504,9.9479,1273,2953.34
27629,-1.2665,0.9505,12.4427,1279,2953.34
27634,-3.9947,-1.3024,12.2392,1273,2953.34
27639,-1.4293,2.2709,8.5557,1275,2953.77
27644,2.2206,3.9516,9.8773,1277,2953.77
27649,-1.0451,1.1875,12.3457,1276,2953.77
27654,-3.79,-1.5826,12.396,1279,2953.77
27659,-1.9297,2.1739,8.7053,1276,2953.92
27664,2.0806,3.8559,9.7588,1287,2953.92
27669,-0.753,1.4114,12.1554,1275,2953.92
27674,-3.565,-1.6759,12.4786,1287,2953.92
27679,-2.4146,2.1237,8.8717,1275,2953.92
27684,2.0135,3.8164,9.7109,1278,2953.92
27689,-0.316,1.6532,12.0428,1287,2953.92
27694,-3.2896,-1.7466,12.724,1289,2953.92
27699,-2.9197,1.9812,8.9711,1277,2953.48
27704,2.0111,3.7433,9.5768,1277,2953.48
27709,0.1676,1.8902,11.8178,1289,2953.48
27714,-2.9951,-1.7681,12.8054,1272,2953.48
27719,-3.3423,1.8232,9.2177,1276,2953.48
27724,1.9632,3.7098,9.5385,1278,2953.19
27729,0.6776,2.1739,11.6143,1277,2953.19
27734,-2.7186,-1.7394,12.9095,1273,2953.19
27739,-3.7709,1.5933,9.4236,1277,2953.19
27744,1.9022,3.535,9.3338,1275,2953.34
27749,1.2079,2.3762,11.4563,1277,2953.34
27754,-2.4624,-1.725,12.9347,1273,2953.34
27759,-4.0701,1.3803,9.6343,1287,2953.34
27764,1.8004,3.4081,9.2069,1272,2953.48
27769,1.7119,2.6396,11.2863,1275,2953.48
27774,-2.247,-1.5969,12.9335,1275,2953.48
27779,-4.385,1.1408,9.9096,1287,2953.48
27784,1.6556,3.2513,9.0501,1272,2953.63
27789,2.0171,2.8982,11.1055,1273,2953.63
27794,-2.0506,-1.4042,13.0101,1279,2953.63
27799,-4.61,0.9266,10.3106,1276,2953.63
27804,1.4509,3.2034,8.9759,1273,2953.34
27809,2.229,3.1424,10.8733,1277,2953.34
27814,-1.8735,-1.0714,13.0544,1275,2953.34
27819,-4.7633,0.6907,10.5489,1276,2953.34
27824,1.2522,3.1137,8.8693,1273,2953.05
27829,2.405,3.4297,10.7691,1279,2953.05
27834,-1.7454,-0.7003,13.0508,1278,2953.05
27839,-4.8291,0.4501,10.8014,1277,2953.05
27844,1.0044,3.0646,8.7065,1286,2953.05
27849,2.5199,3.62,10.58,1277,2953.05
27854,-1.6065,-0.401,12.9419,1279,2953.05
27859,-4.7573,0.0934,11.1869,1279,2953.05
27864,0.68,2.8754,8.6263,1275,2953.19
27869,2.551,3.7469,10.4351,1277,2953.19
27874,-1.4904,-0.0958,12.8461,1276,2953.19
27879,-4.6567,-0.2286,11.4,1277,2953.19
27884,0.3388,2.7617,8.5258,1272,2953.48
27889,2.5331,3.8583,10.3262,1285,2953.48
27894,-1.4593,0.1413,12.7539,1285,2953.48
27899,-4.5681,-0.5507,11.6346,1285,2953.48
27904,-0.0886,2.6336,8.4922,1275,2953.48
27909,2.4181,3.8966,10.1275,1276,2953.48
27914,-1.4437,0.395,12.6737,1286,2953.48
27919,-4.4975,-0.8404,11.8393,1273,2953.48
27924,-0.4944,2.5498,8.5748,1275,2953.48
27929,2.2913,3.96,10.0999,1278,2953.48
27934,-1.4305,0.7506,12.6905,1278,2953.48
27939,-4.3024,-1.0523,12.1266,1285,2953.48
27944,-0.9529,2.4816,8.5593,1287,2953.34
27949,2.1907,4.0235,9.9359,1287,2953.34
27954,-1.3216,0.984,12.4774,1279,2953.34
27959,-4.0821,-1.3024,12.2775,1278,2953.34
27964,-1.4078,2.3655,8.5772,1285,2952.9
27969,2.1895,4.0378,9.8797,1271,2952.9
27974,-1.1073,1.2186,12.3325,1279,2952.9
27979,-3.7721,-1.4437,12.4582,1289,2952.9
27984,-1.9513,2.2039,8.6455,1285,2953.05
27989,2.1476,3.9816,9.7648,1287,2953.05
27994,-0.668,1.397,12.0859,1279,2953.05
27999,-3.5195,-1.664,12.6079,1287,2953.05
28004,-2.4014,2.0626,8.8155,1279,2953.48
28009,2.1452,3.8559,9.7229,1285,2953.48
28014,-0.2933,1.6472,11.9866,1289,2953.48
28019,-3.2298,-1.7717,12.6366,1279,2953.48
28024,-2.8647,1.8914,8.922,1279,2952.76
28029,2.0123,3.6727,9.5014,1279,2952.76
28034,0.1963,1.834,11.807,1289,2952.76
28039,-2.9796,-1.8914,12.7838,1277,2952.76
28044,-3.3243,1.7514,9.1889,1288,2952.76
28049,1.9309,3.5961,9.4751,1287,2954.36
28054,0.6381,2.1153,11.6358,1277,2954.36
28059,-2.7569,-1.8483,12.8293,1285,2954.36
28064,-3.7757,1.5981,9.4367,1287,2954.36
28069,1.4329,3.1627,8.9675,1287,2953.34
28074,1.1791,2.3619,11.4575,1289,2953.34
28079,-1.822,-0.9182,13.0819,1277,2953.34
28084,-4.1144,1.4162,9.7324,1293,2953.34
28089,1.2091,3.0837,8.8346,1276,2953.34
28094,1.5742,2.6863,11.2827,1288,2953.34
28099,-1.6664,-0.6129,13.0436,1278,2953.34
28104,-4.3706,1.1504,9.9503,1290,2953.34
28109,0.9948,2.9305,8.7125,1277,2953.34
28114,2.5187,3.5674,10.5764,1279,2953.34
28119,-1.5215,-0.3831,12.9323,1279,2953.34
28124,-4.7381,0.0204,11.1893,1285,2953.34
28129,0.6333,2.8228,8.5688,1277,2953.77
28134,2.5355,3.7505,10.3884,1287,2953.77
28139,-1.5287,-0.097,12.8688,1275,2953.77
28144,-4.7202,-0.3472,11.4407,1288,2953.77
28149,0.2155,2.7174,8.5353,1276,2954.5
28154,2.4062,3.8535,10.246,1288,2954.5
28159,-1.5383,0.158,12.791,1279,2954.5
28164,-4.6711,-0.5507,11.6406,1279,2954.5
28169,-0.1197,2.6516,8.497,1287,2955.08
28174,2.3667,3.9935,10.1227,1287,2955.08
28179,-1.5371,0.5303,12.7611,1277,2955.08
28184,-4.4712,-0.832,11.9124,1278,2955.08
28189,-0.5495,2.5762,8.5198,1287,2954.94
28194,2.2685,3.9899,9.9838,1289,2954.94
28199,-1.4401,0.7769,12.6593,1275,2954.94
28204,-4.3024,-1.0606,12.1015,1289,2954.94
28209,-0.9337,2.4912,8.5521,1277,2954.5
28214,2.2745,4.0522,9.985,1286,2954.5
28219,-1.2665,1.002,12.4929,1275,2954.5
28224,-4.0211,-1.3084,12.2835,1291,2954.5
28229,-1.4425,2.314,8.5844,1277,2953.63
28234,2.211,3.9564,9.8665,1287,2953.63
28239,-1.0798,1.1648,12.3254,1279,2953.63
28244,-3.7373,-1.4952,12.4738,1275,2953.63
28249,-1.9166,2.1775,8.6598,1289,2953.92
28254,2.1261,3.9109,9.7707,1291,2953.92
28259,-0.6776,1.415,12.1602,1285,2953.92
28264,-3.5243,-1.6939,12.5947,1275,2953.92
28269,-2.3595,2.0698,8.7352,1277,2954.21
28274,2.0458,3.8056,9.6307,1289,2954.21
28279,-0.3424,1.5742,12.0129,1277,2954.21
28284,-3.2813,-1.7849,12.6558,1278,2954.21
28289,-2.8623,1.9465,8.9807,1273,2954.36
28294,1.9764,3.7373,9.5624,1279,2954.36
28299,0.1269,1.8902,11.8836,1277,2954.36
28304,-3.0299,-1.8064,12.7443,1288,2954.36
28309,-3.3208,1.8064,9.2356,1277,2954.36
28314,1.9142,3.6404,9.487,1288,2954.36
28319,0.6596,2.1069,11.6897,1278,2954.36
28324,-2.7653,-1.7789,12.8868,1288,2954.36
28329,-3.7194,1.6293,9.4475,1275,2954.65
28334,1.8735,3.6105,9.335,1279,2954.65
28339,1.1648,2.3858,11.4802,1287,2954.65
28344,-2.4983,-1.6664,12.9885,1279,2954.65
28349,-4.1204,1.4413,9.5996,1278,2954.79
28354,1.804,3.4848,9.2368,1276,2954.79
28359,1.646,2.6121,11.2468,1289,2954.79
28364,-2.2649,-1.5012,13.0245,1275,2954.79
28369,-4.3886,1.245,9.9252,1285,2954.79
28374,1.664,3.3351,9.092,1287,2955.23
28379,2.0219,2.8515,11.1055,1273,2955.23
28384,-2.0279,-1.3216,13.0352,1275,2955.23
28389,-4.5765,0.9122,10.1502,1277,2955.23
28394,1.4904,3.1843,8.9986,1287,2955.37
28399,2.2278,3.0694,10.9607,1279,2955.37
28404,-1.8998,-1.1253,13.0723,1275,2955.37
28409,-4.7561,0.7482,10.574,1293,2955.37
28414,1.2881,3.1268,8.855,1279,2955.52
28419,2.4086,3.3854,10.8254,1286,2955.52
28424,-1.7549,-0.832,12.9909,1277,2955.52
28429,-4.8937,0.4705,10.7967,1291,2955.52
28434,1.063,3.0071,8.7388,1275,2955.37
28439,2.4636,3.5338,10.6458,1279,2955.37
28444,-1.6652,-0.5088,13.0209,1278,2955.37
28449,-4.8315,0.2322,11.0385,1277,2955.37
28454,0.7817,2.9042,8.6598,1285,2955.08
28459,2.5738,3.6871,10.4447,1279,2955.08
28464,-1.6316,-0.152,12.9754,1275,2955.08
28469,-4.7932,-0.0431,11.2863,1277,2955.08
28474,0.4513,2.8132,8.6155,1278,2954.65
28479,2.4852,3.8247,10.3238,1289,2954.65
28484,-1.5933,0.1365,12.9215,1279,2954.65
28489,-4.6352,-0.3735,11.546,1287,2954.65
28494,0.0778,2.715,8.5078,1291,2954.06
28499,2.4744,3.8846,10.2005,1279,2954.06
28504,-1.506,0.3579,12.7479,1277,2954.06
28509,-4.4748,-0.7039,11.8082,1285,2954.06
28514,-0.3304,2.5774,8.4671,1287,2953.77
28519,2.3786,3.9504,10.1035,1289,2953.77
28524,-1.4605,0.5782,12.6007,1275,2953.77
28529,-4.3203,-0.9708,12.056,1289,2953.77
28534,-0.7398,2.4325,8.4994,1277,2953.77
28539,2.2685,3.9851,10.0197,1285,2953.77
28544,-1.3827,0.8727,12.5277,1277,2953.77
28549,-4.13,-1.2198,12.1733,1285,2953.77
28554,-1.2641,2.3631,8.5593,1285,2953.77
28559,2.1751,3.9684,9.8904,1279,2953.77
28564,-1.1935,1.0523,12.39,1285,2953.77
28569,-3.9349,-1.4234,12.299,1279,2953.77
28574,-1.6951,2.2613,8.6359,1277,2954.06
28579,2.1141,3.9672,9.8785,1278,2954.06
28584,-0.893,1.3431,12.2679,1289,2954.06
28589,-3.699,-1.6149,12.5121,1285,2954.06
28594,-2.1919,2.162,8.7556,1277,2954.21
28599,2.077,3.9181,9.7288,1287,2954.21
28604,-0.5136,1.5335,12.0201,1277,2954.21
28609,-3.3734,-1.7573,12.6438,1275,2954.21
28614,-2.6743,1.9764,8.904,1277,2954.21
28619,2.0255,3.8271,9.669,1285,2954.21
28624,0.0168,1.7573,11.8681,1277,2954.21
28629,-3.0765,-1.8352,12.7443,1278,2954.21
28634,-3.1089,1.8483,9.0549,1285,2954.94
28639,2.0243,3.7206,9.5433,1291,2954.94
28644,0.4513,1.9752,11.6801,1279,2954.94
28649,-2.8647,-1.8304,12.8521,1290,2954.94
28654,-3.5291,1.6795,9.2991,1279,2955.08
28659,1.9046,3.62,9.3434,1285,2955.08
28664,0.9708,2.2266,11.5041,1289,2955.08
28669,-2.5893,-1.7801,12.864,1287,2955.08
28674,-3.9205,1.5371,9.5457,1287,2954.94
28679,1.8028,3.4584,9.2991,1277,2954.94
28684,1.4473,2.496,11.3294,1291,2954.94
28689,-2.4134,-1.6664,13.0065,1273,2954.94
28694,-4.2677,1.3479,9.8474,1287,2955.23
28699,1.7107,3.3878,9.1901,1277,2955.23
28704,1.8459,2.8,11.1893,1286,2955.23
28709,-2.144,-1.4641,13.0173,1269,2955.23
28714,-4.5095,1.0942,10.1023,1279,2955.23
28719,1.5921,3.2872,9.0429,1287,2955.52
28724,2.1404,2.9999,11.0193,1289,2955.52
28729,-1.9836,-1.2318,13.0628,1279,2955.52
28734,-4.707,0.8906,10.3334,1301,2955.52
28739,1.4162,3.1723,8.9232,1274,2956.1
28744,2.3367,3.2477,10.7931,1288,2956.1
28749,-1.7861,-0.9673,13.0759,1287,2956.1
28754,-4.7633,0.5722,10.5979,1301,2956.1
28759,1.2498,3.0885,8.7508,1287,2956.25
28764,2.4936,3.4261,10.6494,1287,2956.25
28769,-1.7142,-0.6333,13.064,1285,2956.25
28774,-4.8267,0.3148,10.9176,1293,2956.25
28779,0.9673,2.9856,8.6131,1287,2956.39
28784,2.5546,3.6452,10.5632,1279,2956.39
28789,-1.6161,-0.3783,12.961,1287,2956.39
28794,-4.8123,0.0359,11.1414,1291,2956.39
28799,0.6117,2.8,8.588,1285,2955.96
28804,2.5379,3.7721,10.471,1289,2955.96
28809,-1.5742,-0.1089,12.9167,1279,2955.96
28814,-4.719,-0.2693,11.3976,1291,2955.96
28819,0.2957,2.7282,8.5018,1291,2955.67
28824,2.4816,3.8882,10.2663,1291,2955.67
28829,-1.555,0.2083,12.8233,1287,2955.67
28834,-4.6531,-0.5746,11.6478,1291,2955.67
28839,-0.0682,2.6588,8.5377,1291,2955.67
28844,2.3834,3.9325,10.167,1288,2955.67
28849,-1.5179,0.4633,12.7707,1279,2955.67
28854,-4.4939,-0.8009,11.8633,1291,2955.67
28859,-0.4788,2.5402,8.515,1279,2955.52
28864,2.3331,3.9887,10.0604,1286,2955.52
28869,-1.4581,0.6991,12.6558,1273,2955.52
28874,-4.3167,-1.0343,12.0764,1292,2955.52
28879,-0.9014,2.4205,8.5186,1275,2955.08
28884,2.2721,4.0151,9.9623,1285,2955.08
28889,-1.3072,0.9637,12.4367,1288,2955.08
28894,-4.0462,-1.2821,12.2559,1293,2955.08
28899,-1.3515,2.2984,8.5617,1278,2954.94
28904,2.2098,4.0199,9.9252,1279,2954.94
28909,-1.1372,1.1983,12.3349,1279,2954.94
28914,-3.8199,-1.4724,12.384,1285,2954.94
28919,-1.8244,2.1512,8.6598,1273,2954.65
28924,2.1272,3.8966,9.8007,1286,2954.65
28929,-0.8176,1.3731,12.1506,1275,2954.65
28934,-3.6045,-1.6664,12.5372,1286,2954.65
28939,-2.3044,2.0985,8.8765,1279,2954.94
28944,2.0375,3.8188,9.681,1293,2954.94
28949,-0.3843,1.5993,12.0716,1279,2954.94
28954,-3.3746,-1.8064,12.6318,1285,2954.94
28959,-2.7581,1.9632,8.9615,1285,2955.37
28964,1.968,3.7254,9.6067,1286,2955.37
28969,0.0802,1.8004,11.819,1287,2955.37
28974,-3.1065,-1.7933,12.7683,1286,2955.37
28979,-3.2382,1.9118,9.1997,1287,2955.67
28984,1.9201,3.6715,9.4679,1288,2955.67
28989,0.559,2.0566,11.6813,1285,2955.67
28994,-2.7952,-1.8016,12.8952,1291,2955.67
28999,-3.6308,1.67,9.3446,1279,2955.52
29004,1.913,3.5386,9.4092,1279,2955.52
29009,1.0427,2.3104,11.4658,1290,2955.52
29014,-2.6145,-1.7142,12.9969,1285,2955.52
29019,-3.9887,1.5131,9.5493,1287,2955.37
29024,1.8256,3.486,9.2476,1277,2955.37
29029,1.5203,2.5175,11.3282,1294,2955.37
29034,-2.3056,-1.5921,13.0257,1279,2955.37
29039,-4.2521,1.2498,9.8485,1288,2955.37
29044,1.7298,3.3519,9.1075,1292,2956.1
29049,1.901,2.7785,11.2288,1291,2956.1
29054,-2.1404,-1.4257,12.9586,1279,2956.1
29059,-4.5059,1.0642,10.0963,1286,2956.1
29064,1.6364,3.2549,8.9651,1291,2955.23
29069,2.2098,3.0526,11.0301,1293,2955.23
29074,-1.919,-1.2103,12.9957,1284,2955.23
29079,-4.7094,0.8284,10.3908,1291,2955.23
29084,1.3539,3.1424,8.8346,1277,2954.94
29089,2.3918,3.2513,10.9008,1285,2954.94
29094,-1.7837,-0.9242,13.0472,1277,2954.94
29099,-4.8183,0.571,10.647,1289,2954.94
29104,1.1456,3.0323,8.7412,1288,2955.23
29109,2.5115,3.4704,10.6985,1285,2955.23
29114,-1.7107,-0.6153,13.0257,1275,2955.23
29119,-4.8231,0.2825,11.0181,1277,2955.23
29124,0.8763,2.9544,8.7245,1279,2955.52
29129,2.5139,3.6619,10.5165,1289,2955.52
29134,-1.6305,-0.3136,12.9694,1285,2955.52
29139,-4.7944,0.0096,11.1893,1287,2955.52
29144,0.5662,2.8958,8.6,1277,2955.37
29149,2.4636,3.8104,10.386,1289,2955.37
29154,-1.573,0.0479,12.9191,1288,2955.37
29159,-4.6866,-0.2514,11.5389,1285,2955.37
29164,0.2658,2.7653,8.5509,1293,2955.52
29169,2.4732,3.9014,10.2268,1289,2955.52
29174,-1.5574,0.2346,12.7348,1287,2955.52
29179,-4.5933,-0.5782,11.7017,1288,2955.52
29184,-0.0994,2.6564,8.5114,1287,2955.67
29189,2.4181,3.96,10.1299,1289,2955.67
29194,-1.5024,0.5183,12.6629,1285,2955.67
29199,-4.4041,-0.8751,11.9171,1287,2955.67
29204,-0.5782,2.5055,8.491,1277,2955.52
29209,2.32,3.9708,10.0377,1295,2955.52
29214,-1.3994,0.7733,12.5947,1276,2955.52
29219,-4.2593,-1.1193,12.0931,1299,2955.52
29224,-1.0127,2.3894,8.4886,1288,2956.98
29229,2.2266,3.9851,9.9012,1288,2956.98
29234,-1.2653,0.978,12.4917,1293,2956.98
29239,-4.0582,-1.3372,12.2475,1287,2956.98
29244,-1.4581,2.2948,8.5545,1288,2956.68
29249,2.162,3.9708,9.8785,1291,2956.68
29254,-1.0523,1.166,12.3517,1289,2956.68
29259,-3.8439,-1.4892,12.4606,1286,2956.68
29264,-1.9333,2.229,8.6347,1289,2957.12
29269,2.1105,3.9768,9.8222,1291,2957.12
29274,-0.7685,1.4353,12.208,1288,2957.12
29279,-3.5973,-1.5981,12.6378,1288,2957.12
29284,-2.3535,2.1153,8.7029,1291,2957.27
29289,2.077,3.8882,9.6857,1294,2957.27
29294,-0.3651,1.6029,12.0081,1293,2957.27
29299,-3.3339,-1.7131,12.7192,1292,2957.27
29304,-2.7904,2.0004,8.9651,1287,2957.12
29309,2.0913,3.7745,9.5577,1293,2957.12
29314,0.085,1.8304,11.874,1290,2957.12
29319,-3.0825,-1.822,12.7611,1301,2957.12
29324,-3.2238,1.8483,9.1075,1295,2956.54
29329,1.9908,3.6476,9.4308,1302,2956.54
29334,0.5854,2.0698,11.7388,1294,2956.54
29339,-2.8431,-1.8364,12.8832,1299,2956.54
29344,-3.5769,1.6352,9.3374,1304,2957.12
29349,1.9058,3.4919,9.396,1305,2957.12
29354,1.0762,2.2494,11.552,1303,2957.12
29359,-2.6252,-1.7849,12.8976,1299,2957.12
29364,-3.9947,1.4377,9.5936,1303,2956.98
29369,1.7957,3.4417,9.329,1303,2956.98
29374,1.4688,2.5367,11.3856,1308,2956.98
29379,-2.3846,-1.6412,13.0257,1299,2956.98
29384,-4.2832,1.3072,9.845,1309,2956.98
29389,1.6783,3.3866,9.1566,1315,2957.27
29394,1.8184,2.7318,11.1905,1306,2957.27
29399,-2.1847,-1.4389,13.1059,1307,2957.27
29404,-4.5167,1.1313,10.1071,1311,2957.27
29409,1.561,3.298,9.0369,1315,2957.41
29414,2.1344,3.0358,11.0253,1308,2957.41
29419,-1.9597,-1.1863,13.0783,1304,2957.41
29424,-4.719,0.8871,10.3406,1317,2957.41
29429,1.4437,3.207,8.8526,1307,2957.7
29434,2.4181,3.2741,10.8864,1311,2957.7
29439,-1.8172,-0.9732,13.0257,1309,2957.7
29444,-4.7824,0.6033,10.6638,1325,2957.7
29449,1.2043,3.0849,8.8059,1309,2957.7
29454,2.5666,3.4453,10.6961,1317,2957.7
29459,-1.7011,-0.6788,13.0005,1319,2957.7
29464,-4.8507,0.3256,10.8697,1319,2957.7
29469,1.0247,2.9173,8.6419,1317,2958.0
29474,2.6228,3.5626,10.5405,1321,2958.0
29479,-1.5874,-0.4752,13.0137,1318,2958.0
29484,-4.8878,0.0539,11.1761,1319,2958.0
29489,0.7015,2.8204,8.6084,1321,2958.0
29494,2.5702,3.6919,10.416,1325,2958.0
29499,-1.6221,-0.1496,12.9778,1321,2958.0
29504,-4.8411,-0.2095,11.3473,1321,2958.0
29509,0.3136,2.7952,8.5389,1327,2957.41
29514,2.46,3.8439,10.2987,1331,2957.41
29519,-1.6113,0.1448,12.9083,1321,2957.41
29524,-4.719,-0.4477,11.6526,1324,2957.41
29529,0.0144,2.6839,8.5174,1322,2957.27
29534,2.4229,3.9528,10.2089,1326,2957.27
29539,-1.6113,0.4417,12.815,1325,2957.27
29544,-4.5466,-0.6668,11.8429,1333,2957.27
29549,-0.3436,2.5534,8.4288,1327,2957.27
29554,2.4062,3.9959,10.1227,1331,2957.27
29559,-1.5479,0.668,12.7204,1326,2957.27
29564,-4.3586,-0.9661,12.0345,1340,2957.27
29569,-0.7398,2.5091,8.436,1323,2957.27
29574,2.3427,4.0091,9.979,1333,2957.27
29579,-1.3874,0.8847,12.5504,1338,2957.27
29584,-4.1551,-1.2115,12.1542,1337,2957.27
29589,-1.1576,2.3942,8.5126,1335,2957.12
29594,2.2434,3.954,9.8677,1339,2957.12
29599,-1.1636,1.0882,12.4391,1337,2957.12
29604,-3.9504,-1.482,12.2511,1338,2957.12
29609,-1.6448,2.2206,8.6311,1332,2956.98
29614,2.1584,3.8882,9.7803,1339,2956.98
29619,-0.9038,1.2821,12.3242,1332,2956.98
29624,-3.7649,-1.6616,12.4953,1338,2956.98
29629,-2.132,2.1739,8.7508,1338,2956.68
29634,2.059,3.8858,9.7516,1350,2956.68
29639,-0.6321,1.5179,12.1039,1339,2956.68
29644,-3.4836,-1.7358,12.6139,1336,2956.68
29649,-2.6252,2.0123,8.8693,1339,2956.68
29654,1.9872,3.8176,9.657,1337,2956.68
29659,-0.1856,1.7119,11.9519,1337,2956.68
29664,-3.2848,-1.7549,12.7743,1351,2956.68
29669,-3.037,1.9201,9.0764,1340,2956.68
29674,2.0291,3.784,9.5349,1350,2956.68
29679,0.3089,1.9285,11.7663,1355,2956.68
29684,-2.9999,-1.7861,12.8198,1343,2956.68
29689,-3.4237,1.7466,9.244,1337,2956.54
29694,1.9656,3.6595,9.4355,1338,2956.54
29699,0.7781,2.2051,11.6693,1343,2956.54
29704,-2.721,-1.7526,12.9,1338,2956.54
29709,-3.8032,1.6245,9.4739,1339,2956.54
29714,1.9142,3.571,9.2296,1337,2956.54
29719,1.2797,2.4122,11.4598,1349,2956.54
29724,-2.4385,-1.7047,12.949,1330,2956.54
29729,-4.1108,1.4066,9.6654,1337,2956.54
29734,1.8028,3.3782,9.1866,1335,2956.39
29739,1.6975,2.642,11.2575,1339,2956.39
29744,-2.2529,-1.5718,13.0292,1335,2956.39
29749,-4.4113,1.1935,9.9575,1335,2956.39
29754,1.6795,3.2693,9.0465,1336,2956.1
29759,1.9956,2.8898,11.0887,1341,2956.1
29764,-2.144,-1.3803,13.0652,1331,2956.1
29769,-4.6388,0.9649,10.2735,1349,2956.1
29774,1.4293,3.1843,8.9771,1328,2955.96
29779,2.1871,3.134,10.9511,1335,2955.96
29784,-1.9273,-1.0702,13.0664,1331,2955.96
29789,-4.786,0.7602,10.4914,1339,2955.96
29794,1.2713,3.1137,8.8202,1332,2955.67
29799,2.3846,3.4249,10.8074,1335,2955.67
29804,-1.7657,-0.7566,13.0328,1337,2955.67
29809,-4.804,0.5028,10.7787,1335,2955.67
29814,1.0463,3.0107,8.7161,1333,2955.23
29819,2.5199,3.5937,10.6961,1333,2955.23
29824,-1.6963,-0.4872,12.9861,1335,2955.23
29829,-4.7657,0.1963,11.1139,1336,2955.23
29834,0.7626,2.9161,8.6275,1333,2955.37
29839,2.5881,3.7242,10.4698,1335,2955.37
29844,-1.6137,-0.1939,12.9299,1335,2955.37
29849,-4.7441,-0.0994,11.3234,1336,2955.37
29854,0.4764,2.7904,8.521,1341,2955.23
29859,2.5546,3.7792,10.2963,1341,2955.23
29864,-1.4964,0.0862,12.8245,1337,2955.23
29869,-4.6591,-0.4633,11.5209,1335,2955.23
29874,0.0802,2.6767,8.5593,1335,2955.37
29879,2.4098,3.9217,10.2556,1338,2955.37
29884,-1.494,0.3328,12.8006,1331,2955.37
29889,-4.5921,-0.7889,11.7675,1340,2955.37
29894,-0.3053,2.5462,8.5174,1331,2955.67
29899,2.3607,3.9576,10.1047,1339,2955.67
29904,-1.4605,0.5986,12.6785,1333,2955.67
29909,-4.3958,-0.9912,11.9782,1337,2955.67
29914,-0.7733,2.4828,8.5425,1341,2955.81
29919,2.2565,4.0366,10.0353,1336,2955.81
29924,-1.3575,0.8236,12.5408,1339,2955.81
29929,-4.1982,-1.1839,12.1721,1331,2955.81
29934,-1.2222,2.3523,8.5054,1335,2955.67
29939,2.2182,4.063,9.906,1335,2955.67
29944,-1.2031,1.1097,12.4056,1335,2955.67
29949,-3.9528,-1.3551,12.3672,1335,2955.67
29954,-1.6484,2.2817,8.6598,1333,2955.67
29959,2.1811,4.0079,9.8497,1337,2955.67
29964,-0.9685,1.3108,12.2703,1334,2955.67
29969,-3.705,-1.5886,12.4846,1331,2955.67
29974,-2.0949,2.1261,8.7269,1335,2955.96
29979,2.1572,3.8678,9.7073,1335,2955.96
29984,-0.51,1.5119,12.0847,1327,2955.96
29989,-3.4381,-1.7346,12.633,1327,2955.96
29994,-2.557,2.0686,8.8897,1331,2956.39
29999,2.0602,3.7553,9.5732,1333,2956.39
30004,-0.1053,1.6975,11.9171,1331,2956.39
30009,-3.1544,-1.8352,12.7611,1335,2956.39
30014,-3.0275,1.8471,9.0549,1331,2956.25
30019,1.9968,3.6943,9.56,1331,2956.25
30024,0.3184,1.9405,11.7795,1325,2956.25
30029,-3.0215,-1.8375,12.87,1333,2956.25
30034,-3.456,1.7166,9.2548,1329,2958.0
30039,1.907,3.5973,9.4858,1327,2958.0
30044,0.7302,2.1644,11.5891,1331,2958.0
30049,-2.7617,-1.7897,12.9047,1323,2958.0
30054,-3.8295,1.5826,9.4703,1333,2957.27
30059,1.8531,3.5542,9.3374,1319,2957.27
30064,1.2474,2.4265,11.4586,1331,2957.27
30069,-2.5331,-1.658,13.0137,1319,2957.27
30074,-4.1168,1.4688,9.7444,1325,2957.27
30079,1.7609,3.4237,9.1602,1327,2956.98
30084,1.6807,2.7138,11.2527,1323,2956.98
30089,-2.3104,-1.5275,13.0041,1321,2956.98
30094,-4.3694,1.2151,9.9683,1323,2956.98
30099,1.7238,3.3112,9.0692,1323,2956.98
30104,2.0722,2.9281,11.1007,1328,2956.98
30109,-2.0686,-1.2905,13.0041,1317,2956.98
30114,-4.604,0.9768,10.1766,1334,2956.98
30119,1.5203,3.2166,8.9687,1319,2956.54
30124,2.3116,3.1149,10.902,1323,2956.54
30129,-1.8771,-1.1097,13.0592,1319,2956.54
30134,-4.7417,0.6644,10.4555,1326,2956.54
30139,1.312,3.073,8.8334,1319,2956.39
30144,2.4361,3.3279,10.7512,1319,2956.39
30149,-1.7334,-0.8009,13.0089,1323,2956.39
30154,-4.8447,0.4429,10.647,1323,2956.39
30159,1.0558,3.0167,8.77,1319,2956.1
30164,2.4481,3.5195,10.7081,1318,2956.1
30169,-1.6807,-0.5519,12.9335,1310,2956.1
30174,-4.8004,0.1616,11.0433,1322,2956.1
30179,0.8009,2.8802,8.6957,1317,2956.1
30184,2.4636,3.7074,10.4818,1323,2956.1
30189,-1.634,-0.2251,12.8976,1319,2956.1
30194,-4.8303,-0.1065,11.2958,1323,2956.1
30199,0.486,2.8048,8.5988,1319,2956.1
30204,2.4804,3.8164,10.3597,1321,2956.1
30209,-1.6077,0.0922,12.8497,1315,2956.1
30214,-4.6986,-0.3352,11.5664,1325,2956.1
30219,0.1413,2.7126,8.5138,1331,2955.37
30224,2.46,3.9229,10.1514,1323,2955.37
30229,-1.5191,0.3663,12.8078,1307,2955.37
30234,-4.5442,-0.65,11.7603,1324,2955.37
30239,-0.249,2.6073,8.4707,1319,2955.67
30244,2.4193,3.966,10.0604,1328,2955.67
30249,-1.4533,0.6105,12.6833,1322,2955.67
30254,-4.3826,-0.9756,11.9698,1328,2955.67
30259,-0.6919,2.4804,8.4623,1323,2955.96
30264,2.3607,3.9444,9.9623,1337,2955.96
30269,-1.3192,0.814,12.5839,1331,2955.96
30274,-4.1899,-1.2342,12.1853,1325,2955.96
30279,-1.0942,2.3475,8.4982,1323,2956.1
30284,2.1991,3.9241,9.8964,1325,2956.1
30289,-1.2258,1.0259,12.3984,1325,2956.1
30294,-3.9983,-1.4257,12.2763,1327,2956.1
30299,-1.6197,2.2661,8.5868,1322,2956.68
30304,2.1237,3.9684,9.8725,1326,2956.68
30309,-0.9768,1.2665,12.3086,1325,2956.68
30314,-3.8032,-1.5431,12.5097,1327,2956.68
30319,-2.047,2.1584,8.7113,1321,2956.54
30324,2.0794,3.9373,9.7564,1331,2956.54
30329,-0.68,1.4653,12.1853,1325,2956.54
30334,-3.5303,-1.6807,12.5684,1321,2956.54
30339,-2.4983,2.0806,8.8921,1325,2956.68
30344,2.0686,3.8978,9.6606,1333,2956.68
30349,-0.1748,1.7071,12.0416,1327,2956.68
30354,-3.2465,-1.8004,12.6965,1333,2956.68
30359,-2.9377,1.9381,8.9531,1327,2956.83
30364,2.0315,3.7637,9.4834,1327,2956.83
30369,0.2646,1.9106,11.8309,1326,2956.83
30374,-2.9473,-1.8399,12.8078,1327,2956.83
30379,-3.3531,1.7825,9.1901,1325,2956.83
30384,1.9872,3.6452,9.4128,1327,2956.83
30389,0.7697,2.1009,11.631,1328,2956.83
30394,-2.6815,-1.8328,12.8844,1325,2956.83
30399,-3.7266,1.6269,9.3841,1326,2956.83
30404,1.919,3.5614,9.3937,1322,2956.83
30409,1.1863,2.332,11.4395,1335,2956.83
30414,-2.4912,-1.7514,12.9203,1319,2956.83
30419,-4.1132,1.3755,9.6331,1327,2956.83
30424,1.7813,3.4488,9.1973,1332,2956.54
30429,1.5921,2.6228,11.2875,1325,2956.54
30434,-2.247,-1.6005,13.0388,1324,2956.54
30439,-4.3838,1.1887,9.9347,1333,2956.54
30444,1.6305,3.3148,9.1123,1333,2956.98
30449,1.9453,2.891,11.1175,1332,2956.98
30454,-2.1021,-1.3719,13.0508,1321,2956.98
30459,-4.6316,1.0439,10.2005,1335,2956.98
30464,1.5275,3.2693,8.9423,1321,2957.12
30469,2.2577,3.1436,10.9774,1328,2957.12
30474,-1.9309,-1.1217,12.9634,1321,2957.12
30479,-4.7441,0.8487,10.4914,1335,2957.12
30484,1.3874,3.1208,8.8322,1325,2957.41
30489,2.4421,3.3351,10.7751,1321,2957.41
30494,-1.749,-0.8703,13.0149,1324,2957.41
30499,-4.8231,0.5303,10.7476,1325,2957.41
30504,1.1181,3.0287,8.7281,1326,2958.0
30509,2.5989,3.4991,10.5872,1327,2958.0
30514,-1.6209,-0.5471,13.0544,1323,2958.0
30519,-4.8231,0.2274,10.9223,1324,2958.0
30524,0.9062,2.9449,8.6526,1319,2958.14
30529,2.5893,3.6559,10.4794,1325,2958.14
30534,-1.5874,-0.3148,13.0077,1323,2958.14
30539,-4.7872,-0.1592,11.1977,1327,2958.14
30544,0.5567,2.7713,8.5246,1331,2958.14
30549,2.5534,3.7433,10.3238,1327,2958.14
30554,-1.5742,-0.0287,12.9,1323,2958.14
30559,-4.786,-0.3412,11.5365,1325,2958.14
30564,0.2131,2.6839,8.4695,1327,2957.85
30569,2.4768,3.8858,10.2783,1325,2957.85
30574,-1.5969,0.2382,12.7826,1319,2957.85
30579,-4.6591,-0.589,11.71,1325,2957.85
30584,-0.1508,2.5654,8.4563,1323,2957.7
30589,2.4289,3.9995,10.1706,1326,2957.7
30594,-1.5502,0.5088,12.7228,1321,2957.7
30599,-4.5143,-0.8056,11.9303,1332,2957.7
30604,-0.5088,2.5007,8.5006,1323,2957.41
30609,2.3882,4.0582,10.0568,1327,2957.41
30614,-1.4437,0.7482,12.6354,1325,2957.41
30619,-4.2988,-1.0451,12.074,1324,2957.41
30624,-0.9218,2.4062,8.4767,1321,2958.29
30629,2.302,4.0139,9.9587,1321,2958.29
30634,-1.3372,0.9517,12.5061,1327,2958.29
30639,-4.0666,-1.2175,12.2272,1325,2958.29
30644,-1.3587,2.3224,8.5258,1317,2957.85
30649,2.2697,4.0067,9.8928,1326,2957.85
30654,-1.0774,1.1468,12.3409,1321,2957.85
30659,-3.8475,-1.4736,12.4103,1325,2957.85
30664,-1.804,2.1739,8.606,1321,2958.29
30669,2.132,3.9373,9.8318,1327,2958.29
30674,-0.8499,1.3288,12.1805,1321,2958.29
30679,-3.6883,-1.64,12.5743,1321,2958.29
30684,-2.2266,2.0961,8.7281,1319,2958.43
30689,2.1129,3.881,9.6941,1321,2958.43
30694,-0.5016,1.5263,12.0249,1323,2958.43
30699,-3.4512,-1.7442,12.6677,1325,2958.43
30704,-2.6995,1.9704,8.9172,1321,2958.29
30709,1.9872,3.796,9.6391,1327,2958.29
30714,-0.0658,1.7226,11.9291,1322,2958.29
30719,-3.2202,-1.7729,12.7156,1327,2958.29
30724,-3.1125,1.8878,9.0716,1321,2957.85
30729,1.968,3.7038,9.5193,1325,2957.85
30734,0.4058,1.9776,11.7938,1330,2957.85
30739,-2.9904,-1.8196,12.8569,1323,2957.85
30744,-3.5494,1.7526,9.2727,1326,2957.85
30749,1.8974,3.6571,9.4308,1323,2957.85
30754,0.8356,2.2218,11.5484,1335,2957.85
30759,-2.7054,-1.7214,12.8916,1320,2957.85
30764,-3.8487,1.6029,9.4763,1325,2957.41
30769,1.8902,3.5267,9.3146,1323,2957.41
30774,1.3539,2.4385,11.4024,1331,2957.41
30779,-2.4553,-1.6747,12.9802,1325,2957.41
30784,-4.1611,1.3874,9.7145,1322,2957.41
30789,1.7813,3.4716,9.1638,1332,2957.12
30794,1.7107,2.6695,11.236,1331,2957.12
30799,-2.1931,-1.4497,13.0245,1322,2957.12
30804,-4.3814,1.2067,9.9778,1337,2957.12
30809,1.634,3.3543,9.019,1321,2957.12
30814,2.0279,2.8599,11.1115,1326,2957.12
30819,-1.986,-1.3599,13.028,1321,2957.12
30824,-4.6388,0.9134,10.2005,1331,2957.12
30829,1.4844,3.1627,8.9004,1321,2957.27
30834,2.241,3.1316,10.9451,1324,2957.27
30839,-1.8818,-1.1013,13.0436,1325,2957.27
30844,-4.7812,0.7051,10.5225,1332,2957.27
30849,1.2534,3.0789,8.8837,1323,2957.12
30854,2.4026,3.3794,10.817,1323,2957.12
30859,-1.7238,-0.8392,13.0795,1323,2957.12
30864,-4.8351,0.4537,10.7955,1323,2957.12
30869,1.0499,2.9987,8.7293,1321,2957.12
30874,2.5367,3.5386,10.5908,1325,2957.12
30879,-1.6735,-0.5243,13.0352,1319,2957.12
30884,-4.8818,0.2023,11.0277,1327,2957.12
30889,0.8104,2.9413,8.6969,1324,2956.83
30894,2.5498,3.7409,10.4758,1324,2956.83
30899,-1.573,-0.2251,12.973,1325,2956.83
30904,-4.7764,-0.0922,11.2312,1336,2956.83
30909,0.5183,2.8287,8.5258,1339,2957.12
30914,2.5163,3.8583,10.2963,1333,2957.12
30919,-1.5407,0.0862,12.9024,1336,2957.12
30924,-4.6412,-0.4022,11.5077,1337,2957.12
30929,0.1688,2.7258,8.4886,1351,2957.41
30934,2.5079,3.899,10.1562,1349,2957.41
30939,-1.5048,0.322,12.797,1333,2957.41
30944,-4.5478,-0.7171,11.795,1341,2957.41
30949,-0.2167,2.5929,8.4575,1333,2956.83
30954,2.4086,3.9732,10.1095,1343,2956.83
30959,-1.47,0.5387,12.7012,1336,2956.83
30964,-4.4053,-0.9577,12.0069,1343,2956.83
30969,-0.656,2.4696,8.4623,1339,2958.0
30974,2.3032,3.9588,9.9599,1339,2958.0
30979,-1.3946,0.7817,12.5959,1339,2958.0
30984,-4.2904,-1.2031,12.1781,1339,2958.0
30989,-1.0965,2.3475,8.5102,1336,2957.7
30994,2.229,4.0151,9.9503,1341,2957.7
30999,-1.2953,1.0355,12.5121,1341,2957.7
31004,-4.0953,-1.3408,12.3361,1341,2957.7
31009,-1.4964,2.2972,8.5844,1337,2957.27
31014,2.2194,4.0199,9.8306,1351,2957.27
31019,-1.0534,1.221,12.3649,1337,2957.27
31024,-3.7948,-1.5371,12.5037,1341,2957.27
31029,-1.9309,2.2027,8.6323,1336,2958.14
31034,2.144,3.9744,9.7109,1343,2958.14
31039,-0.7183,1.4413,12.2404,1337,2958.14
31044,-3.5686,-1.6316,12.6055,1339,2958.14
31049,-2.4265,2.0865,8.7628,1338,2957.56
31054,2.1356,3.875,9.6702,1341,2957.56
31059,-0.3519,1.6173,12.0069,1336,2957.56
31064,-3.2836,-1.7597,12.7671,1351,2957.56
31069,-2.8611,1.9453,8.9663,1337,2957.41
31074,2.0746,3.7888,9.5696,1349,2957.41
31079,0.1544,1.8675,11.8561,1339,2957.41
31084,-3.1065,-1.8543,12.7934,1343,2957.41
31089,-3.2645,1.8076,9.1399,1338,2957.41
31094,1.9968,3.6476,9.4511,1343,2957.41
31099,0.6069,2.0542,11.6861,1351,2957.41
31104,-2.8479,-1.8411,12.8964,1333,2957.41
31109,-3.6452,1.6161,9.3565,1343,2957.27
31114,1.8699,3.48,9.3266,1339,2957.27
31119,1.0546,2.3331,11.5664,1340,2957.27
31124,-2.6205,-1.7873,12.9526,1336,2957.27
31129,-4.0031,1.4832,9.6031,1340,2957.27
31134,1.8148,3.462,9.2895,1352,2957.12
31139,1.4641,2.5594,11.467,1336,2957.12
31144,-2.4074,-1.6388,12.9945,1339,2957.12
31149,-4.3108,1.3156,9.8318,1355,2957.12
31154,1.7107,3.4153,9.1686,1343,2957.12
31159,1.7861,2.8276,11.1965,1343,2957.12
31164,-2.1572,-1.3815,13.046,1338,2957.12
31169,-4.5035,1.0942,10.1071,1353,2957.12
31174,1.5838,3.3291,9.0644,1338,2957.27
31179,2.1512,3.0622,10.9678,1337,2957.27
31184,-1.9142,-1.1672,13.0233,1339,2957.27
31189,-4.6878,0.8308,10.3418,1351,2957.27
31194,1.4126,3.1591,8.9196,1341,2956.98
31199,2.3858,3.2597,10.8757,1352,2956.98
31204,-1.8124,-0.923,13.046,1343,2956.98
31209,-4.8088,0.589,10.6554,1339,2956.98
31214,1.1887,3.0275,8.7556,1341,2956.98
31219,2.5259,3.4285,10.72,1341,2956.98
31224,-1.5862,-0.7039,12.9586,1341,2956.98
31229,-4.81,0.249,10.908,1341,2956.98
31234,0.893,2.9078,8.667,1335,2956.54
31239,2.4792,3.6081,10.5668,1343,2956.54
31244,-1.6053,-0.4597,12.955,1343,2956.54
31249,-4.8267,0.0024,11.2073,1341,2956.54
31254,0.6381,2.8264,8.6084,1353,2956.39
31259,2.4936,3.7637,10.3681,1339,2956.39
31264,-1.5969,-0.103,12.9251,1349,2956.39
31269,-4.8064,-0.2634,11.3832,1341,2956.39
31274,0.2885,2.7869,8.576,1350,2956.83
31279,2.5151,3.8678,10.2699,1341,2956.83
31284,-1.5862,0.2442,12.8461,1337,2956.83
31289,-4.725,-0.504,11.6993,1351,2956.83
31294,0.0024,2.6923,8.5329,1339,2956.83
31299,2.4337,3.9995,10.1694,1343,2956.83
31304,-1.573,0.4465,12.7312,1343,2956.83
31309,-4.4867,-0.7602,11.898,1353,2956.83
31314,-0.3998,2.5486,8.4659,1343,2957.27
31319,2.3715,4.0247,10.0736,1349,2957.27
31324,-1.5179,0.6823,12.6629,1351,2957.27
31329,-4.2629,-1.0283,12.0979,1340,2957.27
31334,-0.7829,2.4529,8.4288,1341,2956.98
31339,2.3619,4.0306,9.9383,1349,2956.98
31344,-1.3503,0.8823,12.5277,1341,2956.98
31349,-4.0809,-1.3144,12.2248,1343,2956.98
31354,-1.2617,2.2805,8.4839,1339,2956.98
31359,2.1991,3.9433,9.9311,1355,2956.98
31364,-1.1265,1.1145,12.4211,1341,2956.98
31369,-3.8858,-1.506,12.3373,1348,2956.98
31374,-1.7502,2.2218,8.582,1353,2956.98
31379,2.1033,3.8882,9.7959,1351,2956.98
31384,-0.8679,1.2833,12.305,1342,2956.98
31389,-3.7397,-1.6867,12.5001,1339,2956.98
31394,-2.1907,2.1787,8.77,1342,2956.83
31399,1.9968,3.8774,9.7217,1341,2956.83
31404,-0.5231,1.573,12.1171,1341,2956.83
31409,-3.4297,-1.725,12.6258,1351,2956.83
31414,-2.6791,2.0255,8.8274,1351,2956.39
31419,2.0638,3.8786,9.6845,1351,2956.39
31424,-0.0754,1.7466,11.9423,1341,2956.39
31429,-3.1855,-1.7609,12.8353,1353,2956.39
31434,-3.1005,1.9046,9.0465,1342,2957.27
31439,2.0087,3.8044,9.5624,1349,2957.27
31444,0.3735,1.9896,11.7208,1351,2957.27
31449,-2.885,-1.7933,12.8317,1339,2957.27
31454,-3.5482,1.7346,9.2356,1352,2956.83
31459,1.9752,3.6763,9.3841,1336,2956.83
31464,0.9206,2.2039,11.5879,1342,2956.83
31469,-2.6827,-1.7681,12.9287,1337,2956.83
31474,-3.8283,1.5299,9.4715,1349,2956.83
31479,1.9082,3.4764,9.2787,1350,2956.68
31484,1.3862,2.4337,11.3976,1341,2956.68
31489,-2.4181,-1.7166,12.9263,1337,2956.68
31494,-4.1659,1.3791,9.7671,1343,2956.68
31499,1.719,3.3399,9.1961,1341,2956.68
31504,1.7645,2.6839,11.2013,1351,2956.68
31509,-2.2266,-1.555,12.9945,1335,2956.68
31514,-4.47,1.1217,9.9778,1354,2956.68
31519,1.6281,3.2681,9.0525,1337,2956.54
31524,2.0087,2.9664,11.0612,1343,2956.54
31529,-2.0554,-1.3084,13.028,1336,2956.54
31534,-4.6687,0.9685,10.3154,1351,2956.54
31539,1.4425,3.1867,9.0237,1337,2956.39
31544,2.2793,3.1915,10.9104,1341,2956.39
31549,-1.9237,-1.0415,13.0855,1340,2956.39
31554,-4.8147,0.7015,10.4962,1342,2956.39
31559,1.2965,3.1256,8.8095,1341,2956.54
31564,2.4337,3.4417,10.7703,1342,2956.54
31569,-1.8136,-0.7159,13.0604,1338,2956.54
31574,-4.8076,0.4405,10.8804,1341,2956.54
31579,1.063,3.0299,8.6718,1338,2956.68
31584,2.6037,3.5745,10.5369,1351,2956.68
