timestamp_ms,ax,ay,az,acs_adc,rpm
19519,-3.7002,2.0554,9.1315,1223,3031.68
19524,2.2051,3.7541,8.9878,1225,3031.68
19529,1.0163,1.7466,11.8908,1235,3031.68
19534,-3.9672,-1.9656,13.3405,1228,3031.68
19539,-3.3339,2.1344,8.9304,1230,3031.53
19544,2.2817,3.8427,9.0333,1231,3031.53
19549,0.6835,1.5227,12.0081,1229,3031.53
19554,-4.2006,-1.8986,13.2483,1231,3031.53
19559,-2.9389,2.2541,8.8538,1227,3031.68
19564,2.3583,3.899,9.1171,1229,3031.68
19569,0.4082,1.3659,12.1566,1227,3031.68
19574,-4.373,-1.8148,13.0891,1235,3031.68
19579,-2.5115,2.375,8.7209,1226,3031.83
19584,2.393,3.9528,9.1758,1227,3031.83
19589,0.182,1.1756,12.372,1230,3031.83
19594,-4.5167,-1.7202,13.0029,1227,3031.83
19599,-2.132,2.4146,8.576,1227,3032.14
19604,2.4421,3.9792,9.2117,1229,3032.14
19609,-0.1149,1.0068,12.5181,1229,3032.14
19614,-4.6723,-1.5646,12.8736,1227,3032.14
19619,-1.7526,2.5714,8.4898,1230,3031.99
19624,2.5594,3.9804,9.3087,1229,3031.99
19629,-0.2945,0.8344,12.6438,1227,3031.99
19634,-4.8159,-1.4162,12.8054,1227,3031.99
19639,-1.3898,2.5953,8.3989,1227,3031.83
19644,2.6228,3.9708,9.3446,1245,3031.83
19649,-0.5219,0.6452,12.809,1231,3031.83
19654,-4.9728,-1.2019,12.5983,1226,3031.83
19659,-1.0032,2.7019,8.2923,1227,3031.99
19664,2.7366,3.9672,9.3745,1230,3031.99
19669,-0.6404,0.4932,12.9562,1235,3031.99
19674,-5.1655,-1.0104,12.4091,1225,3031.99
19679,-0.6404,2.8132,8.2791,1227,3031.68
19684,2.7952,3.9097,9.4798,1227,3031.68
19689,-0.7997,0.322,13.1095,1235,3031.68
19694,-5.2828,-0.8056,12.2894,1229,3031.68
19699,-0.2981,2.8539,8.2373,1224,3031.68
19704,2.8814,3.8535,9.5409,1231,3031.68
19709,-0.9601,0.0994,13.2603,1229,3031.68
19714,-5.3798,-0.5279,12.1542,1233,3031.68
19719,0.0527,2.9066,8.1965,1226,3032.14
19724,2.9939,3.8259,9.6522,1227,3032.14
19729,-1.0989,-0.1437,13.3776,1225,3032.14
19734,-5.4408,-0.2825,11.88,1235,3032.14
19739,0.3926,2.9796,8.2025,1227,3032.45
19744,3.1244,3.7697,9.7815,1228,3032.45
19749,-1.2689,-0.3519,13.4901,1223,3032.45
19754,-5.5929,-0.0275,11.716,1229,3032.45
19759,0.6883,3.0742,8.2468,1228,3032.45
19764,3.14,3.6404,9.8521,1229,3032.45
19769,-1.3659,-0.5543,13.5919,1229,3032.45
19774,-5.6192,0.17,11.5005,1227,3032.45
19779,0.929,3.1544,8.242,1235,3032.75
19784,3.201,3.5338,9.9778,1243,3032.75
19789,-1.5945,-0.753,13.69,1228,3032.75
19794,-5.6707,0.4154,11.2695,1224,3032.75
19799,1.1959,3.2214,8.2444,1235,3032.91
19804,3.1687,3.4536,10.1323,1230,3032.91
19809,-1.8304,-0.9673,13.7128,1227,3032.91
19814,-5.6635,0.6656,11.0816,1228,3032.91
19819,1.3635,3.2525,8.3594,1225,3033.06
19824,3.1077,3.2226,10.3573,1227,3033.06
19829,-2.0506,-1.1995,13.7355,1229,3033.06
19834,-5.5929,0.8906,10.7919,1227,3033.06
19839,1.5706,3.3136,8.3773,1227,3033.21
19844,3.0059,3.0801,10.4842,1229,3033.21
19849,-2.3403,-1.4365,13.8086,1233,3033.21
19854,-5.4528,1.1301,10.5955,1227,3033.21
19859,1.6436,3.4225,8.4611,1229,3033.37
19864,2.806,2.8994,10.5884,1226,3033.37
19869,-2.5355,-1.5574,13.7284,1228,3033.37
19874,-5.2684,1.3539,10.331,1236,3033.37
19879,1.8268,3.4955,8.5258,1227,3033.21
19884,2.6492,2.733,10.8685,1228,3033.21
19889,-2.7833,-1.7142,13.7176,1228,3033.21
19894,-5.0829,1.5203,10.0916,1235,3033.21
19899,1.9261,3.5338,8.6095,1225,3033.06
19904,2.4026,2.5223,11.0492,1229,3033.06
19909,-2.9999,-1.8699,13.6781,1215,3033.06
19914,-4.7884,1.6723,9.9084,1237,3033.06
19919,1.9932,3.5997,8.6,1229,3032.91
19924,2.0961,2.3858,11.2025,1235,3032.91
19929,-3.3232,-1.9501,13.6912,1216,3032.91
19934,-4.4879,1.8184,9.7109,1228,3032.91
19939,2.0662,3.6643,8.7508,1231,3032.91
19944,1.834,2.1656,11.3856,1231,3032.91
19949,-3.4812,-1.9812,13.562,1230,3032.91
19954,-4.1264,1.9884,9.4882,1231,3032.91
19959,2.1177,3.6715,8.843,1227,3033.06
19964,1.4808,1.9441,11.5736,1238,3033.06
19969,-2.6468,-1.6089,13.8086,1229,3033.06
19974,-3.7505,2.1189,9.2524,1231,3033.21
19979,2.1572,3.7493,8.9148,1224,3033.21
19984,2.6001,2.6384,10.8637,1238,3033.21
19989,-2.8958,-1.7585,13.7104,1234,3033.21
19994,-4.944,1.6173,10.0724,1229,3033.37
19999,1.9692,3.5626,8.6347,1227,3033.37
20004,2.3104,2.4732,11.1318,1235,3033.37
20009,-3.1436,-1.8411,13.6733,1235,3033.37
20014,-4.6412,1.7741,9.7863,1225,3033.37
20019,2.0614,3.571,8.7017,1229,3033.37
20024,2.047,2.2075,11.3006,1229,3033.37
20029,-3.3734,-1.968,13.6398,1237,3033.37
20034,-4.2916,1.9213,9.5768,1235,3033.83
20039,2.1296,3.7182,8.8274,1236,3033.83
20044,1.6843,2.0087,11.546,1228,3033.83
20049,-3.5698,-1.968,13.5655,1231,3033.83
20054,-3.9588,2.0111,9.3254,1229,3033.67
20059,2.2242,3.7769,8.8514,1229,3033.67
20064,1.3515,1.7741,11.6873,1229,3033.67
20069,-3.8044,-1.9704,13.4399,1229,3033.67
20074,-3.5733,2.1225,9.1255,1229,3033.67
20079,2.2817,3.8355,8.8849,1234,3033.67
20084,1.0175,1.6496,11.898,1231,3033.67
20089,-4.051,-1.9369,13.3249,1229,3033.67
20094,-3.0801,2.2649,8.9878,1225,3033.67
20099,2.3511,3.7972,8.9388,1231,3033.67
20104,0.6488,1.3958,12.1075,1228,3033.67
20109,-4.2473,-1.8783,13.2184,1229,3033.67
20114,-2.6647,2.2924,8.8166,1226,3033.52
20119,2.4301,3.8535,9.0297,1233,3033.52
20124,0.3376,1.2426,12.2966,1229,3033.52
20129,-4.4424,-1.7095,13.0676,1229,3033.52
20134,-2.2565,2.4301,8.6562,1225,3033.52
20139,2.4912,3.8499,9.1087,1229,3033.52
20144,0.0287,1.0092,12.5049,1247,3033.52
20149,-4.6914,-1.5874,12.9466,1229,3033.52
20154,-1.816,2.496,8.5377,1226,3033.37
20159,2.5798,3.863,9.1686,1223,3033.37
20164,-0.2658,0.8428,12.6354,1229,3033.37
20169,-4.8363,-1.385,12.8078,1239,3033.37
20174,-1.3946,2.5905,8.4384,1225,3033.52
20179,2.6444,3.8654,9.2943,1229,3033.52
20184,-0.4908,0.6548,12.8688,1229,3033.52
20189,-5.017,-1.2378,12.6055,1237,3033.52
20194,-0.9816,2.6767,8.3725,1229,3034.29
20199,2.7438,3.9061,9.268,1235,3034.29
20204,-0.6404,0.4621,13.0376,1227,3034.29
20209,-5.187,-0.996,12.4498,1223,3034.29
20214,-0.6033,2.7821,8.2875,1229,3034.59
20219,2.8359,3.8738,9.4487,1227,3034.59
20224,-0.8116,0.2682,13.1944,1230,3034.59
20229,-5.3666,-0.7649,12.2619,1230,3034.59
20234,-0.261,2.873,8.2265,1237,3034.75
20239,2.9113,3.8906,9.5122,1230,3034.75
20244,-1.0379,0.0539,13.3201,1235,3034.75
20249,-5.5246,-0.5195,12.0859,1231,3034.75
20254,0.1472,2.9113,8.2205,1223,3034.59
20259,2.9904,3.7577,9.5948,1211,3034.59
20264,-1.1923,-0.2179,13.398,1229,3034.59
20269,-5.6048,-0.2825,11.8728,1227,3034.59
20274,0.4094,2.9928,8.26,1225,3034.13
20279,3.0945,3.6667,9.7037,1229,3034.13
20284,-1.3599,-0.4166,13.5979,1231,3034.13
20289,-5.7209,0.0132,11.6334,1227,3034.13
20294,0.735,3.061,8.2384,1227,3033.98
20299,3.146,3.6105,9.8833,1223,3033.98
20304,-1.5443,-0.6021,13.617,1239,3033.98
20309,-5.6635,0.2693,11.3892,1235,3033.98
20314,1.0343,3.1759,8.2684,1229,3033.83
20319,3.1328,3.4584,10.0521,1224,3033.83
20324,-1.7837,-0.8368,13.6984,1231,3033.83
20329,-5.7437,0.5866,11.2168,1235,3033.83
20334,1.2234,3.2669,8.3318,1225,3033.52
20339,3.14,3.3615,10.1993,1230,3033.52
20344,-2.0423,-1.0606,13.7008,1228,3033.52
20349,-5.6479,0.8188,10.987,1241,3033.52
20354,1.4425,3.31,8.406,1229,3033.67
20359,3.0789,3.207,10.3537,1229,3033.67
20364,-2.1823,-1.2605,13.793,1231,3033.67
20369,-5.5557,1.0606,10.7536,1237,3033.67
20374,1.6065,3.383,8.4922,1235,3033.98
20379,3.0047,3.0227,10.5153,1227,3033.98
20384,-2.4134,-1.4401,13.8086,1231,3033.98
20389,-5.4253,1.1863,10.501,1229,3033.98
20394,1.7047,3.4656,8.5401,1229,3034.29
20399,2.8335,2.8527,10.726,1231,3034.29
20404,-2.6324,-1.5586,13.8469,1227,3034.29
20409,-5.1978,1.4162,10.2927,1231,3034.44
20414,1.8603,3.5243,8.5401,1229,3034.44
20419,2.5798,2.6504,10.8613,1238,3034.44
20424,-2.9389,-1.719,13.7547,1227,3034.44
20429,-4.9416,1.6041,10.1095,1229,3034.75
20434,1.974,3.565,8.6275,1229,3034.75
20439,2.3523,2.4684,11.1474,1235,3034.75
20444,-3.1795,-1.8806,13.6853,1235,3034.75
20449,-4.6723,1.7585,9.7935,1230,3035.05
20454,2.0375,3.6129,8.6862,1231,3035.05
20459,2.0255,2.2051,11.2575,1228,3035.05
20464,-3.4117,-1.9285,13.6625,1237,3035.05
20469,-4.2976,1.9285,9.5421,1235,3035.21
20474,2.1799,3.7385,8.7448,1231,3035.21
20479,1.7035,1.9704,11.5484,1227,3035.21
20484,-3.6907,-1.962,13.5871,1237,3035.21
20489,-3.9468,2.0997,9.3242,1231,3035.52
20494,2.2517,3.7697,8.8166,1228,3035.52
20499,1.3491,1.7561,11.7304,1229,3035.52
20504,-3.9181,-1.9656,13.4602,1223,3035.52
20509,-3.4572,2.144,9.1566,1235,3035.36
20514,2.3511,3.8116,8.8969,1230,3035.36
20519,0.9649,1.5586,11.9471,1227,3035.36
20524,-4.0917,-1.8735,13.3177,1225,3035.36
20529,-3.0179,2.2745,8.9483,1225,3034.59
20534,2.4134,3.8223,8.9663,1234,3034.59
20539,0.6835,1.3384,12.1338,1227,3034.59
20544,-4.3155,-1.822,13.2232,1227,3034.59
20549,-2.6097,2.3679,8.7604,1226,3034.59
20554,2.4265,3.8128,9.0273,1227,3034.59
20559,0.2693,1.1444,12.3098,1229,3034.59
20564,-4.5119,-1.6831,13.0999,1229,3034.59
20569,-2.1668,2.4672,8.6335,1228,3034.44
20574,2.4924,3.881,9.1411,1226,3034.44
20579,-0.0275,0.9697,12.4642,1235,3034.44
20584,-4.7034,-1.5155,12.9407,1235,3034.44
20589,-1.6735,2.5223,8.4898,1231,3034.75
20594,2.6145,3.8858,9.2069,1229,3034.75
20599,-0.2765,0.7877,12.6833,1229,3034.75
20604,-4.8902,-1.3408,12.7312,1237,3034.75
20609,-1.2737,2.6145,8.3462,1228,3035.21
20614,2.6851,3.8774,9.2632,1231,3035.21
20619,-0.5614,0.5818,12.8904,1229,3035.21
20624,-5.0865,-1.1696,12.621,1235,3035.21
20629,-0.8499,2.6971,8.2827,1228,3035.05
20634,2.7785,3.8271,9.3146,1229,3035.05
20639,-0.6943,0.346,13.0843,1227,3035.05
20644,-5.302,-0.9158,12.4044,1227,3035.05
20649,-0.4561,2.8431,8.2732,1229,3034.9
20654,2.8659,3.8571,9.4391,1228,3034.9
20659,-0.917,0.176,13.2292,1229,3034.9
20664,-5.4217,-0.6895,12.2475,1230,3034.9
20669,-0.1209,2.8539,8.1918,1237,3034.29
20674,2.9616,3.8092,9.5972,1231,3034.29
20679,-1.0822,-0.0227,13.2974,1231,3034.29
20684,-5.5545,-0.401,12.0392,1229,3034.29
20689,0.2322,2.9604,8.2384,1227,3033.67
20694,3.0323,3.7589,9.6702,1229,3033.67
20699,-1.2629,-0.2466,13.4458,1226,3033.67
20704,-5.685,-0.1568,11.795,1227,3033.67
20709,0.5495,2.9736,8.2157,1225,3033.83
20714,3.1053,3.6476,9.809,1228,3033.83
20719,-1.4569,-0.48,13.5871,1227,3033.83
20724,-5.7078,0.152,11.6131,1229,3033.83
20729,0.8272,3.0885,8.2744,1229,3033.83
20734,3.1651,3.5805,9.924,1228,3033.83
20739,-1.6807,-0.6357,13.635,1235,3033.83
20744,-5.7569,0.3639,11.3689,1237,3033.83
20749,1.093,3.1448,8.3019,1229,3033.37
20754,3.1232,3.4644,10.1107,1227,3033.37
20759,-1.8926,-0.9134,13.7032,1229,3033.37
20764,-5.6994,0.6357,11.1618,1239,3033.37
20769,1.3132,3.2525,8.3199,1229,3033.06
20774,3.1352,3.3387,10.2484,1227,3033.06
20779,-2.065,-1.1121,13.7224,1229,3033.06
20784,-5.6348,0.8906,10.9954,1241,3033.06
20789,1.4521,3.292,8.3893,1230,3033.06
20794,3.1208,3.1699,10.4208,1229,3033.06
20799,-2.3188,-1.2917,13.7571,1225,3033.06
20804,-5.5414,1.1169,10.6985,1231,3033.06
20809,1.6364,3.4022,8.4527,1235,3033.06
20814,2.9616,3.0071,10.6195,1227,3033.06
20819,-2.4876,-1.4581,13.8098,1227,3033.06
20824,-5.4097,1.3216,10.4004,1227,3033.06
20829,1.7514,3.4692,8.5246,1231,3033.37
20834,2.7653,2.7617,10.7703,1231,3033.37
20839,-2.7569,-1.6269,13.7679,1225,3033.37
20844,-5.1523,1.5024,10.2268,1231,3033.52
20849,1.8974,3.5614,8.57,1229,3033.52
20854,2.5331,2.6432,10.9595,1237,3033.52
20859,-2.9772,-1.7909,13.7284,1227,3033.52
20864,-4.9117,1.6532,9.9994,1233,3033.98
20869,1.9848,3.5626,8.6227,1227,3033.98
20874,2.3056,2.4038,11.2025,1235,3033.98
20879,-3.2094,-1.834,13.6374,1231,3033.98
20884,-4.6064,1.8148,9.7707,1229,3033.67
20889,2.0842,3.6368,8.6574,1227,3033.67
20894,2.0207,2.1763,11.3677,1227,3033.67
20899,-3.5207,-1.9154,13.5655,1237,3033.67
20904,-4.2617,1.9609,9.5553,1229,3033.67
20909,2.1955,3.6643,8.8406,1231,3033.67
20914,1.6616,1.974,11.5556,1227,3033.67
20919,-3.6344,-1.9656,13.5201,1231,3033.67
20924,-3.8475,2.0542,9.3063,1231,3033.52
20929,2.2565,3.7601,8.8394,1231,3033.52
20934,1.3515,1.804,11.7555,1229,3033.52
20939,-3.8894,-1.9273,13.4614,1228,3033.52
20944,-3.462,2.1847,9.1339,1231,3032.6
20949,2.32,3.7565,8.9016,1231,3032.6
20954,0.9852,1.5227,11.9507,1228,3032.6
20959,-4.0426,-1.9261,13.2902,1228,3032.6
20964,-3.0239,2.2553,8.9028,1229,3033.83
20969,2.4241,3.7948,8.9735,1235,3033.83
20974,0.5926,1.4126,12.1518,1228,3033.83
20979,-4.2653,-1.8124,13.2148,1228,3033.83
20984,-2.6121,2.3391,8.7388,1229,3033.06
20989,2.4421,3.8235,9.0405,1231,3033.06
20994,0.3208,1.1744,12.3062,1229,3033.06
20999,-4.5238,-1.7131,13.0065,1227,3033.06
21004,-2.1799,2.4122,8.6036,1229,3034.13
21009,2.5438,3.8714,9.1411,1229,3034.13
21014,0.006,1.0175,12.4834,1229,3034.13
21019,-4.7142,-1.5802,12.9694,1227,3034.13
21024,-1.7825,2.5151,8.4994,1231,3033.83
21029,2.6157,3.8666,9.177,1228,3033.83
21034,-0.2634,0.8128,12.6342,1230,3033.83
21039,-4.9153,-1.3695,12.7826,1235,3033.83
21044,-1.403,2.6276,8.4755,1229,3033.37
21049,2.6815,3.8499,9.262,1235,3033.37
21054,-0.4633,0.6129,12.8784,1227,3033.37
21059,-5.0769,-1.16,12.5863,1235,3033.37
21064,-0.9469,2.7318,8.339,1227,3033.98
21069,2.6935,3.8499,9.3518,1231,3033.98
21074,-0.6716,0.3819,13.052,1225,3033.98
21079,-5.2996,-0.9996,12.4738,1231,3033.98
21084,-0.5854,2.7976,8.26,1231,3033.98
21089,2.8192,3.8618,9.4439,1229,3033.98
21094,-0.7937,0.267,13.1514,1227,3033.98
21099,-5.4708,-0.759,12.2811,1228,3033.98
21104,-0.2083,2.8311,8.2169,1237,3034.29
21109,2.9544,3.7984,9.5421,1231,3034.29
21114,-1.0977,-0.0239,13.2555,1231,3034.29
21119,-5.6012,-0.4705,12.0692,1229,3034.29
21124,0.158,2.9245,8.2672,1236,3033.52
21129,3.0023,3.8128,9.6594,1230,3033.52
21134,-1.2366,-0.1616,13.4279,1225,3033.52
21139,-5.6683,-0.1915,11.8645,1228,3033.52
21144,0.4597,2.9987,8.2361,1228,3033.06
21149,3.1005,3.7362,9.7121,1227,3033.06
21154,-1.4281,-0.3771,13.5931,1229,3033.06
21159,-5.7305,0.0563,11.6634,1227,3033.06
21164,0.7542,3.1244,8.2588,1228,3032.91
21169,3.1005,3.5626,9.8988,1231,3032.91
21174,-1.6173,-0.5878,13.5835,1230,3032.91
21179,-5.7269,0.3364,11.4407,1227,3032.91
21184,0.996,3.1484,8.2851,1228,3032.91
21189,3.1687,3.4955,10.0844,1229,3032.91
21194,-1.8148,-0.8092,13.641,1231,3032.91
21199,-5.7581,0.5866,11.2659,1234,3032.91
21204,1.1995,3.2106,8.3234,1229,3032.91
21209,3.1927,3.395,10.1095,1229,3032.91
21214,-2.0075,-0.9912,13.7092,1231,3032.91
21219,-5.6802,0.8464,11.0337,1234,3032.91
21224,1.4234,3.3112,8.3725,1228,3033.06
21229,3.1077,3.2154,10.3549,1234,3033.06
21234,-2.1644,-1.2414,13.7679,1226,3033.06
21239,-5.545,1.0475,10.7416,1236,3033.06
21244,1.6065,3.4081,8.4025,1230,3033.06
21249,3.0454,3.049,10.483,1236,3033.06
21254,-2.3942,-1.3659,13.8038,1229,3033.06
21259,-5.4636,1.221,10.5249,1231,3033.06
21264,1.7514,3.4393,8.5305,1235,3033.37
21269,2.8515,2.8491,10.6997,1233,3033.37
21274,-2.6049,-1.5921,13.7774,1227,3033.37
21279,-5.2373,1.4114,10.2903,1229,3033.37
21284,1.8842,3.5063,8.6,1229,3033.06
21289,2.6923,2.7007,10.8613,1238,3033.06
21294,-2.909,-1.6807,13.7451,1227,3033.06
21299,-4.9871,1.5538,10.0928,1231,3032.75
21304,1.9848,3.553,8.6203,1227,3032.75
21309,2.4936,2.4624,11.0576,1239,3032.75
21314,-3.1077,-1.8076,13.7008,1229,3032.75
21319,-4.7214,1.7466,9.7707,1229,3033.67
21324,2.0949,3.6033,8.7089,1231,3033.67
21329,2.1476,2.2745,11.1749,1237,3033.67
21334,-3.3459,-1.8567,13.6015,1227,3033.67
21339,-4.367,1.9046,9.5577,1225,3033.52
21344,2.1608,3.6703,8.7616,1235,3033.52
21349,1.8028,2.0494,11.3784,1228,3033.52
21354,-3.5961,-1.9597,13.5823,1236,3033.52
21359,-3.9995,2.0363,9.3625,1235,3033.83
21364,2.2374,3.7278,8.8562,1235,3033.83
21369,1.4629,1.828,11.6286,1228,3033.83
21374,-3.796,-1.9525,13.453,1234,3033.83
21379,-3.6117,2.132,9.159,1231,3033.37
21384,2.3044,3.8152,8.8538,1226,3033.37
21389,1.0666,1.6376,11.8776,1231,3033.37
21394,-3.9959,-1.9441,13.362,1229,3033.37
21399,-3.1807,2.2254,8.9914,1235,3033.52
21404,2.3451,3.8176,8.9543,1231,3033.52
21409,0.747,1.4353,12.0416,1229,3033.52
21414,-4.2485,-1.8854,13.2328,1230,3033.52
21419,-2.8228,2.2972,8.8274,1231,3033.37
21424,2.4038,3.802,9.0369,1236,3033.37
21429,0.3831,1.2462,12.1925,1227,3033.37
21434,-4.4484,-1.7849,13.0735,1229,3033.37
21439,-2.3631,2.3906,8.6969,1228,3033.37
21444,2.4541,3.8235,9.1614,1235,3033.37
21449,0.0826,1.0606,12.3996,1231,3033.37
21454,-4.6878,-1.5909,12.9443,1227,3033.37
21459,-1.8974,2.472,8.5461,1226,3033.37
21464,2.5307,3.875,9.1746,1235,3033.37
21469,-0.1879,0.8882,12.5839,1231,3033.37
21474,-4.8554,-1.4653,12.8317,1229,3033.37
21479,-1.5131,2.5929,8.4575,1229,3033.67
21484,2.5833,3.8571,9.2476,1229,3033.67
21489,-0.4094,0.6823,12.809,1229,3033.67
21494,-5.0625,-1.2414,12.6282,1235,3033.67
21499,-1.0858,2.6803,8.4084,1228,3033.37
21504,2.6731,3.8726,9.3781,1227,3033.37
21509,-0.5974,0.4992,12.9897,1229,3033.37
21514,-5.2062,-1.002,12.5396,1237,3033.37
21519,-0.7111,2.7234,8.2863,1228,3033.83
21524,2.7725,3.8762,9.3913,1231,3033.83
21529,-0.838,0.2945,13.0783,1224,3033.83
21534,-5.3822,-0.8188,12.3637,1231,3033.83
21539,-0.3424,2.8383,8.2361,1231,3033.21
21544,2.9066,3.8714,9.5684,1231,3033.21
21549,-1.0068,0.097,13.2292,1203,3033.21
21554,-5.4719,-0.559,12.1625,1227,3033.21
21559,0.0036,2.9173,8.2145,1237,3032.91
21564,2.9963,3.8259,9.5888,1229,3032.91
21569,-1.2234,-0.0994,13.3788,1231,3032.91
21574,-5.5809,-0.31,11.9351,1230,3032.91
21579,0.3005,2.9676,8.2373,1231,3033.21
21584,3.0765,3.7565,9.6941,1235,3033.21
21589,-1.3635,-0.2622,13.4758,1227,3033.21
21594,-5.6946,0.0024,11.7998,1229,3033.21
21599,0.6608,3.043,8.2768,1229,3033.06
21604,3.1735,3.62,9.8174,1230,3033.06
21609,-1.5502,-0.5064,13.5213,1228,3033.06
21614,-5.7245,0.2286,11.5939,1227,3033.06
21619,0.9182,3.1448,8.3031,1229,3032.91
21624,3.2034,3.5422,10.0018,1229,3032.91
21629,-1.7023,-0.7219,13.6146,1231,3032.91
21634,-5.7233,0.5028,11.3557,1229,3032.91
21639,1.1696,3.2106,8.2803,1229,3033.06
21644,3.2082,3.4153,10.1167,1227,3033.06
21649,-1.901,-0.9577,13.6793,1233,3033.06
21654,-5.6671,0.7027,11.0421,1235,3033.06
21659,1.3276,3.298,8.3222,1229,3032.91
21664,3.2046,3.2765,10.3058,1230,3032.91
21669,-2.0949,-1.1768,13.7511,1227,3032.91
21674,-5.636,0.905,10.8936,1237,3032.91
21679,1.5886,3.3303,8.3522,1229,3033.06
21684,3.1196,3.1352,10.3992,1230,3033.06
21689,-2.3092,-1.3647,13.7966,1229,3033.06
21694,-5.5031,1.1109,10.6123,1237,3033.06
21699,1.6867,3.3974,8.4755,1228,3032.75
21704,2.9688,2.982,10.6183,1235,3032.75
21709,-2.5414,-1.5,13.6877,1228,3032.75
21714,-5.3199,1.3312,10.404,1231,3032.75
21719,1.8543,3.4967,8.4934,1237,3033.06
21724,2.8168,2.7497,10.8397,1231,3033.06
21729,-2.7845,-1.6448,13.7056,1228,3033.06
21734,-5.0901,1.5251,10.2424,1229,3033.06
21739,1.9405,3.4895,8.6036,1225,3033.06
21744,2.6145,2.5965,11.0026,1235,3033.06
21749,-3.0035,-1.7657,13.6924,1222,3033.06
21754,-4.8315,1.6676,9.8761,1235,3032.91
21759,2.0482,3.5698,8.6155,1229,3032.91
21764,2.2889,2.3308,11.1833,1241,3032.91
21769,-3.2669,-1.9213,13.6709,1231,3032.91
21774,-4.5526,1.8531,9.6965,1229,3032.6
21779,2.1105,3.6512,8.7496,1229,3032.6
21784,1.9178,2.1548,11.3533,1235,3032.6
21789,-3.4465,-1.9261,13.5847,1237,3032.6
21794,-4.2126,1.9429,9.4391,1226,3032.14
21799,2.2158,3.7062,8.7951,1231,3032.14
21804,1.6233,1.9513,11.5652,1233,3032.14
21809,-3.6703,-2.0016,13.4829,1235,3032.14
21814,-3.7816,2.0698,9.2476,1231,3031.37
21819,2.3008,3.7397,8.8573,1233,3031.37
21824,1.251,1.7801,11.7603,1229,3031.37
21829,-3.8858,-1.9585,13.3393,1237,3031.37
21834,-3.4704,2.1883,9.1231,1229,3032.29
21839,2.2901,3.7457,8.9292,1229,3032.29
21844,0.8859,1.585,11.9195,1229,3032.29
21849,-4.112,-1.9453,13.2747,1230,3032.29
21854,-3.0801,2.2434,8.9783,1229,3032.14
21859,2.3463,3.7816,9.0525,1235,3032.14
21864,0.6033,1.403,12.0895,1229,3032.14
21869,-4.3144,-1.8292,13.1921,1225,3032.14
21874,-2.6755,2.3379,8.8166,1227,3032.14
21879,2.3379,3.796,9.1447,1235,3032.14
21884,0.2885,1.1995,12.2835,1228,3032.14
21889,-4.5418,-1.7274,13.0963,1229,3032.14
21894,-2.2793,2.4385,8.6862,1226,3032.29
21899,2.4565,3.8283,9.0956,1231,3032.29
21904,0.0503,1.0307,12.475,1230,3032.29
21909,-4.719,-1.5622,12.888,1229,3032.29
21914,-1.8842,2.5247,8.57,1224,3031.83
21919,2.5103,3.8367,9.2273,1230,3031.83
21924,-0.2179,0.8092,12.7084,1230,3031.83
21929,-4.9093,-1.415,12.7527,1223,3031.83
21934,-1.4605,2.6001,8.4443,1229,3031.83
21939,2.5989,3.8642,9.2404,1230,3031.83
21944,-0.4585,0.6919,12.7994,1231,3031.83
21949,-5.0817,-1.2103,12.6462,1237,3031.83
21954,-1.0678,2.6612,8.3677,1225,3031.68
21959,2.6851,3.8642,9.2775,1229,3031.68
21964,-0.6847,0.4357,12.9299,1229,3031.68
21969,-5.1834,-1.0546,12.4953,1234,3031.68
21974,-0.7015,2.7318,8.2672,1224,3031.99
21979,2.806,3.887,9.4523,1229,3031.99
21984,-0.8799,0.3412,13.2028,1229,3031.99
21989,-5.3522,-0.753,12.3553,1233,3031.99
21994,-0.3627,2.818,8.2923,1230,3032.14
21999,2.8982,3.8475,9.5253,1231,3032.14
22004,-1.0546,0.1053,13.2902,1231,3032.14
22009,-5.454,-0.5686,12.1159,1234,3032.14
22014,0.0072,2.8587,8.2361,1235,3031.68
22019,2.9724,3.796,9.59,1229,3031.68
22024,-1.1959,-0.0192,13.4482,1229,3031.68
22029,-5.5857,-0.3124,11.9315,1231,3031.68
22034,0.3029,2.9497,8.2241,1235,3031.68
22039,3.0789,3.6607,9.7097,1231,3031.68
22044,-1.3731,-0.2286,13.6015,1235,3031.68
22049,-5.6527,-0.0479,11.7831,1231,3031.68
22054,0.5602,3.0251,8.1786,1227,3031.53
22059,3.1304,3.6763,9.8701,1231,3031.53
22064,-1.5263,-0.4106,13.6625,1229,3031.53
22069,-5.6707,0.2274,11.6035,1228,3031.53
22074,0.8954,3.0706,8.1379,1225,3031.68
22079,3.231,3.5638,9.9587,1231,3031.68
22084,-1.7202,-0.6093,13.726,1235,3031.68
22089,-5.6958,0.407,11.3365,1230,3031.68
22094,1.1492,3.1256,8.09,1226,3031.83
22099,3.2262,3.4524,10.1514,1229,3031.83
22104,-1.9249,-0.82,13.8648,1235,3031.83
22109,-5.6467,0.6225,11.1821,1235,3031.83
22114,1.3659,3.2082,8.175,1227,3031.99
22119,3.2034,3.3794,10.3489,1227,3031.99
22124,-2.1584,-0.9852,13.8517,1229,3031.99
22129,-5.5701,0.808,10.8637,1237,3031.99
22134,1.5227,3.2489,8.1786,1227,3032.45
22139,3.1125,3.2406,10.5584,1230,3032.45
22144,-2.2936,-1.2115,13.8876,1229,3032.45
22149,-5.4444,1.0511,10.6829,1241,3032.45
22154,1.6819,3.2836,8.2193,1223,3032.75
22159,3.0227,3.0873,10.7619,1235,3032.75
22164,-2.5426,-1.4281,13.8325,1231,3032.75
22169,-5.2864,1.2605,10.4495,1237,3032.75
22174,1.7861,3.3255,8.2624,1231,3032.6
22179,2.8,2.9042,10.9295,1229,3032.6
22184,-2.7043,-1.5874,13.7619,1223,3032.6
22189,-5.0685,1.4509,10.1347,1229,3032.6
22194,1.9776,3.4417,8.3725,1231,3032.6
22199,2.5402,2.7174,11.1845,1235,3032.6
22204,-2.9568,-1.743,13.7858,1229,3032.6
22209,-4.7752,1.5742,9.9192,1235,3032.6
22214,2.0123,3.4776,8.3917,1226,3032.6
22219,2.302,2.4792,11.2683,1239,3032.6
22224,-3.2489,-1.8399,13.7583,1225,3032.6
22229,-4.5011,1.7502,9.6702,1224,3033.06
22234,2.1368,3.5255,8.5281,1229,3033.06
22239,1.9405,2.2601,11.5939,1235,3033.06
22244,-3.474,-1.9417,13.6745,1236,3033.06
22249,-4.2425,1.8411,9.4296,1231,3032.6
22254,2.1871,3.5626,8.5988,1231,3032.6
22259,1.6496,2.1201,11.6981,1230,3032.6
22264,-3.6524,-1.98,13.5392,1237,3032.6
22269,-3.8666,2.0099,9.2608,1223,3032.14
22274,2.217,3.6272,8.6802,1228,3032.14
22279,1.2965,1.9309,11.9255,1227,3032.14
22284,-3.9193,-1.9848,13.4363,1241,3032.14
22289,-3.4931,2.0865,9.0166,1237,3033.06
22294,2.2972,3.6236,8.77,1235,3033.06
22299,0.9613,1.664,12.1123,1228,3033.06
22304,-4.1204,-1.8974,13.3166,1229,3033.06
22309,-3.1125,2.1823,8.8825,1234,3034.13
22314,2.3032,3.7314,8.8358,1229,3034.13
22319,0.5878,1.494,12.3122,1226,3034.13
22324,-4.3383,-1.8124,13.2268,1228,3034.13
22329,-2.6875,2.2757,8.7053,1230,3033.67
22334,2.3667,3.7397,8.9567,1233,3033.67
22339,0.2227,1.2905,12.548,1225,3033.67
22344,-4.5131,-1.7418,13.1394,1227,3033.67
22349,-2.2206,2.3918,8.5114,1229,3033.67
22354,2.4457,3.7876,9.007,1231,3033.67
22359,-0.0718,1.1265,12.6905,1233,3033.67
22364,-4.7345,-1.6137,13.0173,1235,3033.67
22369,-1.8555,2.4517,8.3486,1227,3033.67
22374,2.5678,3.8307,9.0621,1227,3033.67
22379,-0.3938,0.9242,12.9347,1235,3033.67
22384,-4.9141,-1.4162,12.8437,1230,3033.67
22389,-1.4138,2.5486,8.2803,1229,3033.52
22394,2.6528,3.8762,9.1435,1232,3033.52
22399,-0.6129,0.7638,12.973,1231,3033.52
22404,-5.0769,-1.2594,12.7048,1237,3033.52
22409,-1.0319,2.5678,8.2025,1230,3033.37
22414,2.8036,3.8918,9.2404,1235,3033.37
22419,-0.808,0.5938,13.2507,1229,3033.37
22424,-5.2098,-1.0092,12.5205,1237,3033.37
22429,-0.6572,2.6899,8.1259,1227,3033.06
22434,2.8754,3.8834,9.341,1229,3033.06
22439,-1.0259,0.3938,13.3728,1229,3033.06
22444,-5.3163,-0.7626,12.3445,1235,3033.06
22449,-0.2394,2.733,8.0948,1231,3033.06
22454,2.976,3.8523,9.4882,1208,3033.06
22459,-1.1947,0.1975,13.471,1230,3033.06
22464,-5.4468,-0.4764,12.1494,1231,3033.06
22469,0.103,2.8635,8.0122,1235,3033.37
22474,3.1137,3.8211,9.6845,1246,3033.37
22479,-1.3443,0.0036,13.5835,1227,3033.37
22484,-5.5581,-0.2598,12.0249,1229,3033.37
22489,0.4369,2.9161,8.0242,1237,3033.37
22494,3.1532,3.7661,9.809,1231,3033.37
22499,-1.5131,-0.2646,13.6709,1233,3033.37
22504,-5.5893,0.012,11.7879,1229,3033.37
22509,0.7195,3.043,8.0325,1231,3033.21
22514,3.2166,3.6679,9.9359,1229,3033.21
22519,-1.6328,-0.4776,13.7714,1226,3033.21
22524,-5.6383,0.2574,11.5041,1231,3033.21
22529,0.972,3.0634,8.0158,1231,3032.91
22534,3.2777,3.5314,10.0652,1231,3032.91
22539,-1.81,-0.668,13.8313,1229,3032.91
22544,-5.6084,0.498,11.2444,1229,3032.91
22549,1.1935,3.14,8.0541,1227,3033.06
22554,3.2669,3.4201,10.2627,1227,3033.06
22559,-1.9812,-0.8954,13.8959,1229,3033.06
22564,-5.5522,0.6895,11.0828,1230,3033.06
22569,1.4269,3.2094,8.0996,1230,3032.91
22574,3.2154,3.3064,10.4267,1227,3032.91
22579,-2.1572,-1.1337,13.8385,1228,3032.91
22584,-5.4815,0.911,10.7703,1239,3032.91
22589,1.6053,3.2645,8.1283,1228,3032.75
22594,3.1208,3.1232,10.6734,1231,3032.75
22599,-2.4612,-1.3108,13.7834,1227,3032.75
22604,-5.3558,1.1121,10.562,1239,3032.75
22609,1.7454,3.3052,8.2205,1227,3032.29
22614,2.9245,2.9161,10.8397,1231,3032.29
22619,-2.6181,-1.5586,13.799,1229,3032.29
22624,-5.1978,1.2833,10.2951,1235,3032.29
22629,1.8627,3.3842,8.3031,1235,3031.83
22634,2.7545,2.8252,11.0337,1225,3031.83
22639,-2.8611,-1.664,13.8157,1229,3031.83
22644,-4.9823,1.476,10.0808,1231,3031.83
22649,1.9561,3.389,8.3426,1235,3032.14
22654,2.4265,2.563,11.1642,1235,3032.14
22659,-3.043,-1.81,13.7667,1228,3032.14
22664,-4.6795,1.6161,9.8773,1235,3031.99
22669,2.0423,3.4884,8.5258,1229,3031.99
22674,2.1656,2.4804,11.4287,1239,3031.99
22679,-3.3208,-1.8531,13.6302,1225,3031.99
22684,-4.4257,1.7645,9.6211,1237,3032.14
22689,2.144,3.4524,8.5198,1227,3032.14
22694,1.8507,2.2326,11.5592,1235,3032.14
22699,-3.565,-1.9393,13.5931,1229,3032.14
22704,-4.1456,1.8818,9.3553,1231,3032.14
22709,2.1584,3.5338,8.6239,1229,3032.14
22714,1.4928,2.0686,11.813,1227,3032.14
22719,-3.7876,-1.9477,13.5213,1237,3032.14
22724,-3.7338,2.0063,9.1973,1229,3032.45
22729,2.2254,3.5805,8.7173,1231,3032.45
22734,1.166,1.8184,11.9926,1228,3032.45
22739,-3.9983,-1.9549,13.459,1237,3032.45
22744,-3.3926,2.1165,9.0345,1237,3032.75
22749,2.2781,3.6739,8.8514,1237,3032.75
22754,0.7709,1.6544,12.1769,1229,3032.75
22759,-4.2353,-1.8687,13.3189,1229,3032.75
22764,-3.0442,2.2745,8.8083,1231,3032.91
22769,2.296,3.7074,8.8442,1229,3032.91
22774,0.407,1.4581,12.4044,1229,3032.91
22779,-4.464,-1.8136,13.2172,1227,3032.91
22784,-2.6456,2.3128,8.6874,1235,3032.6
22789,2.3894,3.7457,8.9172,1237,3032.6
22794,0.164,1.3108,12.6174,1227,3032.6
22799,-4.6531,-1.6664,13.0699,1225,3032.6
22804,-2.1859,2.3942,8.5677,1231,3032.45
22809,2.4972,3.8427,9.007,1230,3032.45
22814,-0.2239,1.1013,12.7551,1229,3032.45
22819,-4.7716,-1.5287,13.0364,1231,3032.45
22824,-1.7609,2.5199,8.3809,1230,3032.75
22829,2.6181,3.8858,9.0776,1231,3032.75
22834,-0.4238,0.9445,12.9107,1235,3032.75
22839,-4.9177,-1.3084,12.8976,1229,3032.75
22844,-1.3336,2.5762,8.2815,1229,3032.75
22849,2.7378,3.9061,9.2189,1229,3032.75
22854,-0.6548,0.7494,13.0795,1235,3032.75
22859,-5.0721,-1.1468,12.6785,1234,3032.75
22864,-0.9086,2.624,8.1846,1229,3032.45
22869,2.8766,3.9133,9.2524,1231,3032.45
22874,-0.8272,0.5722,13.2495,1229,3032.45
22879,-5.1942,-0.923,12.5217,1239,3032.45
22884,-0.5303,2.7605,8.1403,1228,3032.45
22889,2.9413,3.8559,9.3518,1234,3032.45
22894,-1.008,0.4046,13.3848,1229,3032.45
22899,-5.3235,-0.7254,12.2894,1235,3032.45
22904,-0.2095,2.8383,8.0912,1235,3032.6
22909,3.0335,3.8319,9.4966,1227,3032.6
22914,-1.1289,0.1844,13.4829,1227,3032.6
22919,-5.4049,-0.4956,12.1494,1231,3032.6
22924,0.1628,2.8671,8.0266,1237,3032.91
22929,3.1328,3.7685,9.6522,1230,3032.91
22934,-1.3216,-0.0407,13.5632,1229,3032.91
22939,-5.4887,-0.2741,11.8728,1230,3032.91
22944,0.4752,2.9305,8.0709,1235,3032.75
22949,3.2106,3.6763,9.7743,1231,3032.75
22954,-1.506,-0.243,13.6362,1231,3032.75
22959,-5.5617,0.006,11.6885,1230,3032.75
22964,0.7781,2.9892,8.0098,1229,3032.6
22969,3.2525,3.5913,9.8845,1227,3032.6
22974,-1.5754,-0.5052,13.7439,1225,3032.6
22979,-5.6072,0.2215,11.5065,1230,3032.6
22984,0.978,3.0299,8.0158,1228,3032.29
22989,3.2992,3.5171,10.0461,1231,3032.29
22994,-1.7789,-0.6895,13.8337,1228,3032.29
22999,-5.5833,0.4717,11.2324,1228,3032.29
23004,1.2582,3.1508,8.023,1231,3032.45
23009,3.2908,3.3986,10.2544,1228,3032.45
23014,-1.9453,-0.9421,13.7966,1230,3032.45
23019,-5.5581,0.6452,10.9798,1229,3032.45
23024,1.4066,3.134,8.1175,1229,3032.14
23029,3.1987,3.2729,10.4591,1225,3032.14
23034,-2.2015,-1.1803,13.8325,1229,3032.14
23039,-5.5306,0.8799,10.756,1235,3032.14
23044,1.5718,3.1843,8.2025,1227,3031.99
23049,3.0909,3.1556,10.574,1227,3031.99
23054,-2.4385,-1.3575,13.872,1227,3031.99
23059,-5.4013,1.1229,10.5141,1237,3031.99
23064,1.6867,3.2908,8.2528,1227,3032.29
23069,2.8635,2.9497,10.8326,1231,3032.29
23074,-2.6396,-1.5203,13.8385,1225,3032.29
23079,-5.2433,1.2953,10.2687,1239,3032.29
23084,1.8519,3.3686,8.3246,1224,3032.6
23089,2.709,2.8036,11.0026,1237,3032.6
23094,-2.8982,-1.6532,13.7882,1227,3032.6
23099,-5.0554,1.5048,10.0904,1229,3032.6
23104,1.9561,3.4285,8.4084,1237,3032.91
23109,2.466,2.6025,11.2336,1235,3032.91
23114,-3.146,-1.7897,13.6984,1227,3032.91
23119,-4.7477,1.6939,9.8222,1234,3032.91
23124,2.0291,3.4524,8.4539,1235,3032.75
23129,2.1883,2.4062,11.4455,1237,3032.75
23134,-3.3842,-1.907,13.6625,1225,3032.75
23139,-4.4796,1.8471,9.6738,1231,3032.6
23144,2.0961,3.5422,8.5102,1230,3032.6
23149,1.822,2.2625,11.5592,1240,3032.6
23154,-3.5889,-1.9489,13.6003,1229,3032.6
23159,-4.1132,1.9764,9.3685,1231,3032.14
23164,2.1596,3.6236,8.6203,1229,3032.14
23169,1.4437,2.0255,11.8238,1235,3032.14
23174,-3.814,-1.8938,13.5655,1237,3032.14
23179,-3.7649,2.0674,9.147,1229,3032.14
23184,2.2278,3.6536,8.7173,1233,3032.14
23189,1.1241,1.8651,11.9423,1228,3032.14
23194,-4.0486,-1.901,13.4267,1237,3032.14
23199,-3.3734,2.1608,9.0393,1229,3032.14
23204,2.2733,3.7002,8.7831,1234,3032.14
23209,0.7506,1.6424,12.2463,1230,3032.14
23214,-4.2222,-1.8507,13.3106,1229,3032.14
23219,-2.982,2.2374,8.8107,1233,3031.83
23224,2.393,3.7613,8.8801,1230,3031.83
23229,0.4848,1.4868,12.3649,1233,3031.83
23234,-4.3694,-1.7549,13.1944,1221,3031.83
23239,-2.5929,2.3499,8.7005,1225,3031.99
23244,2.4732,3.8535,8.9854,1237,3031.99
23249,0.152,1.3228,12.6115,1227,3031.99
23254,-4.5274,-1.664,13.0771,1228,3031.99
23259,-2.1715,2.3966,8.4755,1229,3031.99
23264,2.5881,3.8571,9.0585,1237,3031.99
23269,-0.1233,1.1408,12.7324,1229,3031.99
23274,-4.695,-1.5143,12.9562,1231,3031.99
23279,-1.7621,2.49,8.3941,1228,3031.83
23284,2.6827,3.8535,9.1219,1237,3031.83
23289,-0.3759,0.929,12.8521,1230,3031.83
23294,-4.8387,-1.3587,12.785,1229,3031.83
23299,-1.3144,2.5594,8.2875,1227,3031.68
23304,2.7976,3.8666,9.1794,1231,3031.68
23309,-0.5818,0.7793,13.0783,1240,3031.68
23314,-5.0182,-1.1827,12.6486,1230,3031.68
23319,-0.9852,2.6073,8.1834,1229,3032.14
23324,2.818,3.8726,9.2895,1231,3032.14
23329,-0.8056,0.6249,13.228,1245,3032.14
23334,-5.102,-1.0116,12.4786,1231,3032.14
23339,-0.6081,2.6779,8.0996,1228,3032.29
23344,2.9509,3.8307,9.4284,1235,3032.29
23349,-0.9278,0.3699,13.3022,1229,3032.29
23354,-5.3032,-0.741,12.2978,1237,3032.29
23359,-0.2083,2.7773,8.029,1226,3032.75
23364,3.055,3.8559,9.5289,1235,3032.75
23369,-1.1025,0.1688,13.3848,1228,3032.75
23374,-5.3798,-0.5255,12.1374,1234,3032.75
23379,0.0934,2.8204,8.0493,1235,3032.45
23384,3.1161,3.7362,9.6307,1235,3032.45
23389,-1.2306,-0.0359,13.5572,1229,3032.45
23394,-5.4217,-0.2825,11.9219,1231,3032.45
23399,0.4262,2.9221,8.0709,1237,3032.29
23404,3.1675,3.7601,9.7193,1235,3032.29
23409,-1.4449,-0.2358,13.6817,1227,3032.29
23414,-5.5881,-0.0994,11.6981,1227,3032.29
23419,0.7338,2.9473,8.029,1238,3032.29
23424,3.237,3.6571,9.9,1231,3032.29
23429,-1.5598,-0.4992,13.7044,1230,3032.29
23434,-5.6024,0.1413,11.5101,1227,3032.29
23439,0.9565,3.0382,8.0433,1227,3032.29
23444,3.286,3.5721,10.0437,1247,3032.29
23449,-1.7837,-0.6907,13.7499,1226,3032.29
23454,-5.6515,0.3903,11.3425,1228,3032.29
23459,1.1851,3.0777,8.0517,1228,3032.6
23464,3.2118,3.4357,10.2891,1231,3032.6
23469,-1.9525,-0.9266,13.7068,1231,3032.6
23474,-5.6072,0.6381,11.0708,1227,3032.6
23479,1.3707,3.1244,8.102,1231,3032.29
23484,3.1496,3.3459,10.4028,1234,3032.29
23489,-2.2434,-1.1229,13.8852,1235,3032.29
23494,-5.5677,0.9098,10.8888,1237,3032.29
23499,1.5586,3.2298,8.2468,1227,3032.45
23504,3.0263,3.146,10.6015,1229,3032.45
23509,-2.4529,-1.3096,13.7822,1229,3032.45
23514,-5.4396,1.1049,10.5596,1234,3032.45
23519,1.7286,3.2657,8.2253,1225,3032.6
23524,2.891,2.9916,10.799,1231,3032.6
23529,-2.6504,-1.5107,13.7906,1227,3032.6
23534,-5.2888,1.33,10.3753,1239,3032.6
23539,1.8088,3.3339,8.3067,1230,3032.75
23544,2.7509,2.8287,11.0181,1235,3032.75
23549,-2.9125,-1.6831,13.7415,1228,3032.75
23554,-5.0613,1.5311,10.1634,1231,3032.75
23559,1.9106,3.4369,8.3294,1235,3032.45
23564,2.5103,2.7054,11.212,1234,3032.45
23569,-3.1232,-1.7585,13.726,1229,3032.45
23574,-4.7633,1.6771,9.8713,1227,3032.45
23579,2.0111,3.4465,8.4408,1229,3032.45
23584,2.217,2.4505,11.3006,1234,3032.45
23589,-3.3124,-1.8723,13.6733,1229,3032.45
23594,-4.4987,1.7897,9.6295,1230,3033.06
23599,2.0901,3.5183,8.5904,1228,3033.06
23604,1.9106,2.2745,11.6274,1239,3033.06
23609,-3.5853,-1.8794,13.6194,1228,3033.06
23614,-4.1659,1.9776,9.4272,1230,3033.52
23619,2.1847,3.5733,8.5461,1222,3033.52
23624,1.4964,2.0243,11.7675,1231,3033.52
23629,-3.7661,-1.9297,13.5141,1231,3033.52
23634,-3.7637,2.065,9.2775,1227,3033.67
23639,2.2517,3.6619,8.6981,1229,3033.67
23644,1.1815,1.8471,12.0404,1229,3033.67
23649,-4.033,-1.8902,13.4147,1237,3033.67
23654,-3.389,2.1943,9.0297,1235,3033.52
23659,2.3499,3.6859,8.7197,1230,3033.52
23664,0.8284,1.6245,12.2487,1231,3033.52
23669,-4.215,-1.8699,13.3166,1235,3033.52
23674,-2.982,2.2673,8.8286,1231,3033.37
23679,2.4277,3.7409,8.8418,1226,3033.37
23684,0.4477,1.4868,12.4103,1229,3033.37
23689,-4.3958,-1.7633,13.2244,1229,3033.37
23694,-2.5283,2.3092,8.6143,1229,3033.52
23699,2.5271,3.7816,8.9304,1233,3033.52
23704,0.1401,1.2462,12.572,1227,3033.52
23709,-4.6064,-1.6412,13.0927,1227,3033.52
23714,-2.1069,2.4134,8.4934,1226,3033.67
23719,2.5606,3.8451,9.0058,1237,3033.67
23724,-0.1772,1.0822,12.8114,1229,3033.67
23729,-4.7465,-1.476,12.9095,1229,3033.67
23734,-1.7442,2.4995,8.3893,1229,3033.06
23739,2.6671,3.8259,9.1279,1228,3033.06
23744,-0.3819,0.9349,12.9598,1235,3033.06
23749,-4.8961,-1.3252,12.7814,1229,3033.06
23754,-1.2869,2.5606,8.2732,1227,3032.14
23759,2.7629,3.8319,9.1997,1229,3032.14
23764,-0.5794,0.7051,13.0568,1237,3032.14
23769,-5.0578,-1.142,12.6246,1227,3032.14
23774,-0.9206,2.63,8.1954,1227,3031.68
23779,2.8252,3.8439,9.3601,1229,3031.68
23784,-0.8356,0.5435,13.2735,1236,3031.68
23789,-5.1846,-0.9601,12.4127,1237,3031.68
23794,-0.5339,2.6863,8.0912,1229,3031.37
23799,2.9604,3.8104,9.4032,1243,3031.37
23804,-1.002,0.3855,13.3273,1229,3031.37
23809,-5.3139,-0.7219,12.2332,1227,3031.37
23814,-0.1712,2.7797,8.0361,1227,3031.37
23819,3.0119,3.7864,9.5313,1207,3031.37
23824,-1.1696,0.1353,13.4674,1228,3031.37
23829,-5.4049,-0.5411,12.0787,1231,3031.37
23834,0.1365,2.8491,8.0577,1231,3031.22
23839,3.1173,3.7649,9.6462,1233,3031.22
23844,-1.2725,-0.0371,13.5572,1231,3031.22
23849,-5.5474,-0.3172,11.8537,1231,3031.22
23854,0.4525,2.9173,8.0601,1233,3031.68
23859,3.1807,3.7182,9.7576,1227,3031.68
23864,-1.4365,-0.2394,13.7188,1229,3031.68
23869,-5.5653,-0.0934,11.6789,1216,3031.68
23874,0.6907,2.9485,7.9966,1235,3032.14
23879,3.1891,3.6164,9.9168,1231,3032.14
23884,-1.5921,-0.5052,13.6673,1233,3032.14
23889,-5.6395,0.2023,11.5436,1229,3032.14
23894,0.911,3.0311,8.102,1226,3032.14
23899,3.2453,3.5518,10.0856,1229,3032.14
23904,-1.7921,-0.7087,13.7511,1227,3032.14
23909,-5.6719,0.4357,11.2384,1229,3032.14
23914,1.1289,3.0969,8.0601,1231,3032.45
23919,3.2046,3.4105,10.2568,1227,3032.45
23924,-1.9764,-0.9062,13.8277,1234,3032.45
23929,-5.6252,0.6835,11.0744,1225,3032.45
23934,1.3539,3.1771,8.1247,1227,3033.06
23939,3.1747,3.237,10.4052,1227,3033.06
23944,-2.1799,-1.1708,13.8505,1236,3033.06
23949,-5.5534,0.9182,10.7943,1231,3033.06
23954,1.5718,3.2525,8.1654,1227,3033.37
23959,3.0718,3.1484,10.6267,1225,3033.37
23964,-2.4924,-1.3312,13.8768,1229,3033.37
23969,-5.448,1.1696,10.5716,1231,3033.37
23974,1.7071,3.3028,8.2636,1227,3033.83
23979,2.9066,2.9868,10.7811,1229,3033.83
23984,-2.7354,-1.5048,13.8098,1227,3033.83
23989,-5.2648,1.3431,10.3561,1239,3033.83
23994,1.8567,3.3447,8.2863,1228,3033.67
23999,2.7809,2.7964,11.0085,1235,3033.67
24004,-2.9006,-1.6664,13.8277,1227,3033.67
24009,-5.023,1.4928,10.0963,1237,3033.67
24014,1.9656,3.4321,8.3522,1231,3033.06
24019,2.4576,2.5654,11.1905,1228,3033.06
24024,-3.158,-1.7897,13.775,1229,3033.06
24029,-4.7525,1.6652,9.8629,1228,3033.06
24034,1.9872,3.5087,8.4851,1231,3032.75
24039,2.1237,2.3846,11.4287,1230,3032.75
24044,-3.3926,-1.8292,13.69,1225,3032.75
24049,-4.4149,1.8364,9.596,1229,3032.6
24054,2.1201,3.5638,8.5557,1227,3032.6
24059,1.8411,2.2158,11.5999,1241,3032.6
24064,-3.5781,-1.8747,13.6673,1228,3032.6
24069,-4.0893,1.9944,9.3925,1228,3032.75
24074,2.1668,3.626,8.6526,1228,3032.75
24079,1.4521,1.9716,11.8669,1223,3032.75
24084,-3.7924,-1.913,13.4806,1239,3032.75
24089,-3.6835,2.1129,9.1447,1227,3032.91
24094,2.2541,3.6955,8.6921,1227,3032.91
24099,1.1133,1.8244,12.1147,1225,3032.91
24104,-4.0055,-1.9082,13.4003,1237,3032.91
24109,-3.3208,2.1656,8.9842,1228,3032.45
24114,2.3367,3.7362,8.8406,1230,3032.45
24119,0.7877,1.64,12.2092,1229,3032.45
24124,-4.2066,-1.8663,13.313,1231,3032.45
24129,-2.9473,2.2398,8.7604,1231,3033.37
24134,2.4756,3.8188,8.9184,1235,3033.37
24139,0.4274,1.4605,12.4259,1229,3033.37
24144,-4.3443,-1.7789,13.198,1229,3033.37
24149,-2.5163,2.32,8.6275,1229,3033.21
24154,2.5331,3.8176,8.9591,1227,3033.21
24159,0.0934,1.2378,12.5672,1227,3033.21
24164,-4.5717,-1.6652,13.0604,1228,3033.21
24169,-2.0782,2.405,8.5114,1233,3033.06
24174,2.5666,3.8355,9.0333,1231,3033.06
24179,-0.1975,1.1001,12.815,1231,3033.06
24184,-4.7681,-1.4844,12.8712,1231,3033.06
24189,-1.6508,2.4744,8.357,1231,3033.37
24194,2.6336,3.8391,9.1267,1231,3033.37
24199,-0.4118,0.8727,12.9478,1231,3033.37
24204,-4.9093,-1.33,12.7443,1234,3033.37
24209,-1.2258,2.5534,8.278,1228,3033.21
24214,2.7701,3.8439,9.268,1227,3033.21
24219,-0.6404,0.7446,13.0891,1231,3033.21
24224,-5.0709,-1.1588,12.6031,1229,3033.21
24229,-0.8128,2.6193,8.1367,1227,3033.37
24234,2.8802,3.8666,9.2931,1229,3033.37
24239,-0.8942,0.4992,13.2136,1235,3033.37
24244,-5.2253,-0.9445,12.4427,1235,3033.37
24249,-0.4657,2.7318,8.0984,1229,3033.06
24254,2.9437,3.8762,9.3673,1229,3033.06
24259,-1.0139,0.3184,13.386,1230,3033.06
24264,-5.3917,-0.7542,12.2116,1238,3033.06
24269,-0.0922,2.7617,8.0397,1225,3032.91
24274,3.0215,3.7828,9.5277,1231,3032.91
24279,-1.2354,0.1185,13.526,1228,3032.91
24284,-5.5115,-0.4908,12.044,1235,3032.91
24289,0.2274,2.8563,8.017,1233,3033.21
24294,3.1113,3.7936,9.7157,1228,3033.21
24299,-1.3443,-0.0778,13.5775,1225,3033.21
24304,-5.5857,-0.2334,11.8872,1235,3033.21
24309,0.5183,2.8874,8.0325,1235,3033.37
24314,3.201,3.7266,9.7779,1227,3033.37
24319,-1.5012,-0.3519,13.6326,1228,3033.37
24324,-5.6539,0.0096,11.6981,1229,3033.37
24329,0.7865,2.9868,8.0768,1231,3033.21
24334,3.2238,3.6152,9.979,1230,3033.21
24339,-1.7071,-0.5531,13.6817,1229,3033.21
24344,-5.7138,0.2909,11.406,1233,3033.21
24349,1.0175,3.0287,8.0433,1228,3033.21
24354,3.2358,3.4776,10.1035,1226,3033.21
24359,-1.9405,-0.7985,13.8193,1227,3033.21
24364,-5.6898,0.5483,11.1893,1230,3033.21
24369,1.2761,3.146,8.0936,1227,3032.75
24374,3.1927,3.3842,10.3058,1228,3032.75
24379,-2.1308,-0.972,13.8253,1229,3032.75
24384,-5.6395,0.8021,10.9607,1234,3032.75
24389,1.482,3.1927,8.1451,1227,3032.45
24394,3.1232,3.2489,10.5201,1225,3032.45
24399,-2.3547,-1.227,13.8684,1229,3032.45
24404,-5.4803,1.0594,10.7548,1235,3032.45
24409,1.6484,3.2908,8.1594,1225,3032.14
24414,3.0466,3.1412,10.6985,1227,3032.14
24419,-2.6061,-1.3455,13.8409,1228,3032.14
24424,-5.3522,1.2282,10.5441,1237,3032.14
24429,1.7322,3.3579,8.2193,1227,3031.99
24434,2.8072,2.9293,10.9092,1229,3031.99
24439,-2.788,-1.5658,13.8349,1227,3031.99
24444,-5.1128,1.3898,10.258,1238,3031.99
24449,1.8651,3.377,8.3402,1227,3031.83
24454,2.6408,2.7426,11.0768,1231,3031.83
24459,-2.9844,-1.6915,13.7978,1228,3031.83
24464,-4.9225,1.5347,9.9922,1236,3031.83
24469,1.9908,3.4417,8.4587,1234,3031.68
24474,2.3499,2.5534,11.2623,1228,3031.68
24479,-3.1987,-1.743,13.7571,1225,3031.68
24484,-4.6256,1.7142,9.7851,1231,3031.68
24489,2.0758,3.5075,8.4659,1229,3032.14
24494,2.0877,2.3978,11.5041,1230,3032.14
24499,-3.4189,-1.8136,13.6745,1225,3032.14
24504,-4.3814,1.8352,9.5924,1235,3031.83
24509,2.1703,3.559,8.491,1227,3031.83
24514,1.7825,2.1811,11.6873,1237,3031.83
24519,-3.6176,-1.901,13.5476,1225,3031.83
24524,-4.0079,1.962,9.3027,1237,3031.53
24529,2.2685,3.6344,8.691,1225,3031.53
24534,1.4832,2.0195,11.874,1236,3031.53
24539,-3.8295,-1.9357,13.4889,1231,3031.53
24544,-3.626,2.0662,9.1399,1230,3030.92
24549,2.3032,3.6835,8.7185,1225,3030.92
24554,1.1313,1.8304,12.0009,1227,3030.92
24559,-3.9672,-1.8723,13.3752,1229,3030.92
24564,-3.2705,2.1308,8.9136,1227,3031.53
24569,2.4385,3.6667,8.8143,1229,3031.53
24574,0.8224,1.6065,12.2679,1225,3031.53
24579,-4.1899,-1.8639,13.3118,1239,3031.53
24584,-2.8934,2.2374,8.7903,1229,3031.53
24589,2.46,3.717,8.8693,1230,3031.53
24594,0.431,1.4246,12.3816,1227,3031.53
24599,-4.3299,-1.7945,13.1154,1229,3031.53
24604,-2.5103,2.3212,8.6335,1231,3031.07
24609,2.4912,3.7709,8.9495,1227,3031.07
24614,0.1856,1.2821,12.639,1227,3031.07
24619,-4.5322,-1.652,13.0556,1228,3031.07
24624,-2.077,2.4241,8.5293,1229,3031.53
24629,2.6097,3.7804,9.0465,1229,3031.53
24634,-0.1185,1.0546,12.7288,1227,3031.53
24639,-4.6878,-1.5431,12.8916,1227,3031.53
24644,-1.664,2.4804,8.3701,1231,3031.37
24649,2.6659,3.8475,9.1734,1235,3031.37
24654,-0.3903,0.9337,12.8581,1229,3031.37
24659,-4.8878,-1.3467,12.7479,1231,3031.37
24664,-1.3204,2.5295,8.3019,1229,3031.53
24669,2.7641,3.8595,9.1866,1228,3031.53
24674,-0.6009,0.7219,13.0436,1227,3031.53
24679,-5.0709,-1.172,12.6629,1229,3031.53
24684,-0.99,2.5654,8.1666,1226,3031.22
24689,2.8276,3.8319,9.2584,1229,3031.22
24694,-0.8104,0.5423,13.2136,1231,3031.22
24699,-5.2218,-1.0163,12.4774,1224,3031.22
24704,-0.6057,2.6803,8.1259,1230,3031.22
24709,2.903,3.8176,9.3925,1229,3031.22
24714,-0.9613,0.3627,13.3417,1230,3031.22
24719,-5.3606,-0.8009,12.3002,1235,3031.22
24724,-0.243,2.7641,8.0972,1227,3031.53
24729,2.9473,3.8259,9.5062,1229,3031.53
24734,-1.1157,0.176,13.4363,1227,3031.53
24739,-5.5055,-0.5938,12.1542,1231,3031.53
24744,0.0611,2.8204,8.005,1225,3031.83
24749,3.0861,3.8511,9.6582,1229,3031.83
24754,-1.3348,-0.0407,13.5428,1225,3031.83
24759,-5.5486,-0.3256,12.0081,1231,3031.83
24764,0.3711,2.8802,8.0325,1233,3032.14
24769,3.1364,3.7373,9.7252,1226,3032.14
24774,-1.4844,-0.2717,13.6266,1225,3032.14
24779,-5.6575,-0.0658,11.7256,1229,3032.14
24784,0.6788,2.964,8.0756,1235,3032.14
24789,3.146,3.6547,9.8904,1227,3032.14
24794,-1.7166,-0.4286,13.7499,1228,3032.14
24799,-5.6802,0.2251,11.4766,1228,3032.14
24804,0.905,3.0335,8.0349,1237,3032.14
24809,3.2406,3.5877,10.1023,1230,3032.14
24814,-1.8543,-0.6141,13.811,1228,3032.14
24819,-5.6551,0.48,11.321,1229,3032.14
24824,1.1444,3.1496,8.0337,1227,3032.14
24829,3.2609,3.4824,10.2711,1228,3032.14
24834,-2.0614,-0.8356,13.7774,1227,3032.14
24839,-5.5941,0.6955,11.0636,1230,3032.14
24844,1.3491,3.1891,8.1487,1227,3031.68
24849,3.1747,3.3471,10.4435,1230,3031.68
24854,-2.2075,-1.075,13.8517,1227,3031.68
24859,-5.5222,0.99,10.9307,1225,3031.68
24864,1.5287,3.2908,8.2025,1227,3031.22
24869,3.1113,3.231,10.6015,1229,3031.22
24874,-2.3739,-1.2438,13.866,1230,3031.22
24879,-5.4145,1.0511,10.6015,1231,3031.22
24884,1.664,3.2836,8.2241,1227,3030.92
24889,2.9868,3.0442,10.732,1225,3030.92
24894,-2.6049,-1.4066,13.8325,1225,3030.92
24899,-5.2493,1.245,10.4016,1234,3030.92
24904,1.8004,3.3866,8.3067,1227,3030.92
24909,2.7629,2.8898,10.9511,1233,3030.92
24914,-2.7461,-1.5862,13.8074,1224,3030.92
24919,-5.0506,1.4138,10.143,1237,3030.92
24924,1.9417,3.3998,8.3318,1224,3030.92
24929,2.6097,2.6863,11.1833,1229,3030.92
24934,-3.0263,-1.7023,13.7463,1225,3030.92
24939,-4.8495,1.5826,9.9551,1235,3030.92
24944,2.0339,3.5003,8.4623,1235,3030.76
24949,2.3667,2.5546,11.3509,1227,3030.76
24954,-3.1783,-1.7825,13.7068,1224,3030.76
24959,-4.5789,1.6939,9.7468,1228,3030.76
24964,2.0949,3.4644,8.5485,1231,3030.76
24969,2.047,2.3296,11.5041,1233,3030.76
24974,-3.4046,-1.8902,13.6398,1225,3030.76
24979,-4.2629,1.8435,9.4727,1222,3030.76
24984,2.2302,3.5937,8.594,1225,3031.07
24989,1.7645,2.1524,11.6358,1233,3031.07
24994,-3.5925,-1.9405,13.5404,1224,3031.07
24999,-3.9528,1.9944,9.2572,1230,3031.22
25004,2.2625,3.6045,8.6969,1227,3031.22
25009,1.3623,1.9118,11.8752,1237,3031.22
25014,-3.796,-1.9776,13.4171,1225,3031.22
25019,-3.5362,2.1177,9.0621,1233,3031.22
25024,2.3451,3.705,8.7628,1223,3031.22
25029,1.0283,1.804,12.0811,1228,3031.22
25034,-4.0163,-1.9465,13.289,1229,3031.22
25039,-3.1867,2.1668,8.9483,1227,3031.37
25044,2.3331,3.6643,8.7783,1233,3031.37
25049,0.644,1.555,12.287,1225,3031.37
25054,-4.1839,-1.9477,13.1609,1237,3031.37
25059,-2.7833,2.2817,8.7628,1237,3031.68
25064,2.4361,3.7625,8.916,1237,3031.68
25069,0.3543,1.4425,12.4223,1233,3031.68
25074,-4.4484,-1.7274,13.1298,1235,3031.68
25079,-2.4397,2.2889,8.5892,1235,3031.68
25084,2.4852,3.7792,8.983,1230,3031.68
25089,0.0359,1.2055,12.5983,1230,3031.68
25094,-4.6292,-1.6269,13.0233,1235,3031.68
25099,-2.0075,2.466,8.4455,1236,3031.99
25104,2.5438,3.808,9.0345,1239,3031.99
25109,-0.2406,1.0343,12.8102,1229,3031.99
25114,-4.8315,-1.4832,12.8952,1223,3031.99
25119,-1.6005,2.5139,8.3941,1223,3031.22
25124,2.6348,3.8056,9.1315,1239,3031.22
25129,-0.4932,0.7985,12.9969,1231,3031.22
25134,-4.9584,-1.3455,12.7383,1231,3031.22
25139,-1.2474,2.5845,8.2815,1231,3031.07
25144,2.6935,3.8666,9.2404,1225,3031.07
25149,-0.6776,0.6788,13.1083,1235,3031.07
25154,-5.0937,-1.1193,12.5779,1235,3031.07
25159,-0.8571,2.6576,8.1606,1237,3031.07
25164,2.7653,3.869,9.3422,1235,3031.07
25169,-0.8523,0.4705,13.2363,1234,3031.07
25174,-5.2074,-0.9493,12.4654,1225,3031.07
25179,-0.5195,2.727,8.1104,1234,3031.37
25184,2.903,3.9097,9.4595,1239,3031.37
25189,-1.0511,0.3196,13.3752,1235,3031.37
25194,-5.3558,-0.7542,12.2787,1237,3031.37
25199,-0.1161,2.7713,8.0529,1231,3031.53
25204,2.9916,3.8439,9.5193,1237,3031.53
25209,-1.1995,0.1664,13.5093,1231,3031.53
25214,-5.4612,-0.4741,12.1278,1237,3031.53
25219,0.1317,2.8575,8.0756,1230,3031.53
25224,3.1077,3.8247,9.7049,1237,3031.53
25229,-1.3599,-0.0204,13.6134,1229,3031.53
25234,-5.5414,-0.2095,11.8752,1235,3031.53
25239,0.4752,2.8958,8.0337,1237,3031.07
25244,3.1939,3.6931,9.8318,1235,3031.07
25249,-1.5299,-0.2598,13.6769,1229,3031.07
25254,-5.5929,-0.0024,11.7041,1228,3031.07
25259,0.7099,3.0239,8.0589,1237,3031.22
25264,3.2358,3.6919,9.9539,1230,3031.22
25269,-1.6867,-0.4621,13.6781,1235,3031.22
25274,-5.6132,0.255,11.4838,1235,3031.22
25279,0.9816,3.0311,8.0613,1239,3030.92
25284,3.2836,3.5326,10.0712,1239,3030.92
25289,-1.8268,-0.7482,13.7128,1235,3030.92
25294,-5.6036,0.4525,11.2851,1235,3030.92
25299,1.2198,3.134,8.0816,1229,3030.61
25304,3.2741,3.4584,10.2328,1236,3030.61
25309,-2.0016,-0.9206,13.854,1231,3030.61
25314,-5.5545,0.6668,11.0864,1231,3030.61
25319,1.421,3.1627,8.1786,1231,3030.61
25324,3.2214,3.3112,10.3884,1235,3030.61
25329,-2.1213,-1.0977,13.8612,1235,3030.61
25334,-5.4947,0.8727,10.8433,1230,3030.61
25339,1.5526,3.2968,8.2277,1231,3030.76
25344,3.0801,3.219,10.5644,1233,3030.76
25349,-2.4241,-1.245,13.8026,1231,3030.76
25354,-5.43,1.0283,10.5548,1235,3030.76
25359,1.6867,3.2561,8.1882,1233,3030.92
25364,2.964,3.0394,10.8218,1230,3030.92
25369,-2.5618,-1.4605,13.8002,1234,3030.92
25374,-5.2553,1.2594,10.4208,1239,3030.92
25379,1.8471,3.3615,8.3677,1229,3030.76
25384,2.8036,2.885,10.9439,1231,3030.76
25389,-2.8168,-1.5646,13.7726,1229,3030.76
25394,-5.0793,1.4605,10.1335,1242,3030.76
25399,1.9273,3.401,8.3869,1230,3031.07
25404,2.5474,2.636,11.1965,1236,3031.07
25409,-3.0035,-1.7514,13.7307,1228,3031.07
25414,-4.8483,1.5969,9.924,1239,3031.07
25419,2.047,3.4704,8.4839,1239,3030.92
25424,2.2829,2.5031,11.2982,1237,3030.92
25429,-3.2286,-1.8495,13.6721,1231,3030.92
25434,-4.5681,1.7262,9.7205,1235,3030.92
25439,2.0925,3.5183,8.606,1239,3031.22
25444,1.9609,2.3056,11.485,1237,3031.22
25449,-3.4584,-1.9429,13.5584,1230,3031.22
25454,-4.2701,1.8711,9.5086,1234,3031.22
25459,2.1835,3.5698,8.5593,1234,3031.37
25464,1.6628,2.144,11.7268,1241,3031.37
25469,-3.6428,-1.9812,13.5584,1233,3031.37
25474,-3.9145,2.0075,9.2536,1235,3031.07
25479,2.1811,3.5937,8.6586,1234,3031.07
25484,1.3336,1.9142,11.8992,1242,3031.07
25489,-3.869,-1.9656,13.4315,1233,3031.07
25494,-3.5446,2.0782,9.0656,1235,3031.53
25499,2.2996,3.6428,8.7771,1233,3031.53
25504,0.978,1.7346,12.0476,1237,3031.53
25509,-4.1025,-1.9429,13.3956,1231,3031.53
25514,-3.1651,2.1835,8.9184,1231,3031.53
25519,2.3212,3.6763,8.9052,1239,3031.53
25524,0.6009,1.5706,12.2643,1235,3031.53
25529,-4.2593,-1.889,13.222,1241,3031.53
25534,-2.7916,2.2374,8.7712,1231,3031.53
25539,2.4014,3.7326,8.9352,1235,3031.53
25544,0.3855,1.3671,12.5313,1231,3031.53
25549,-4.4796,-1.7406,13.1466,1237,3031.53
25554,-2.3762,2.3655,8.5892,1235,3031.07
25559,2.4936,3.8008,8.9579,1236,3031.07
25564,0.0275,1.1528,12.6773,1236,3031.07
25569,-4.6136,-1.6747,13.0053,1231,3031.07
25574,-1.998,2.4337,8.4803,1237,3031.07
25579,2.5414,3.8104,9.0704,1235,3031.07
25584,-0.2274,1.0558,12.8114,1229,3031.07
25589,-4.8267,-1.4868,12.8676,1226,3031.07
25594,-1.652,2.5187,8.339,1235,3031.22
25599,2.636,3.8654,9.183,1239,3031.22
25604,-0.5255,0.8368,12.9861,1235,3031.22
25609,-4.9356,-1.3767,12.7683,1235,3031.22
25614,-1.2438,2.5534,8.2193,1231,3031.53
25619,2.7497,3.9097,9.2943,1230,3031.53
25624,-0.6907,0.7063,13.1406,1239,3031.53
25629,-5.0973,-1.1337,12.6139,1235,3031.53
25634,-0.8464,2.5905,8.1942,1231,3031.22
25639,2.8695,3.8798,9.3589,1235,3031.22
25644,-0.9074,0.51,13.2639,1237,3031.22
25649,-5.2313,-0.9577,12.4271,1231,3031.22
25654,-0.504,2.6791,8.084,1231,3030.92
25659,2.9042,3.8547,9.4595,1235,3030.92
25664,-1.0499,0.3496,13.3465,1238,3030.92
25669,-5.3247,-0.747,12.2248,1237,3030.92
25674,-0.1472,2.7581,8.1451,1224,3031.07
25679,3.0239,3.8367,9.5852,1236,3031.07
25684,-1.1839,0.146,13.4566,1235,3031.07
25689,-5.4504,-0.4896,12.0213,1241,3031.07
25694,0.146,2.8958,8.0673,1231,3031.22
25699,3.0873,3.7924,9.7348,1235,3031.22
25704,-1.3144,-0.0311,13.5572,1224,3031.22
25709,-5.5186,-0.2298,11.8896,1235,3031.22
25714,0.5112,2.9461,8.0553,1233,3031.22
25719,3.1807,3.7565,9.8102,1235,3031.22
25724,-1.5287,-0.237,13.6254,1229,3031.22
25729,-5.5749,-0.0096,11.6993,1237,3031.22
25734,0.7661,2.9999,8.0266,1239,3031.07
25739,3.2382,3.632,9.9036,1235,3031.07
25744,-1.6664,-0.4441,13.7391,1230,3031.07
25749,-5.6348,0.176,11.4778,1235,3031.07
25754,1.008,3.1113,8.0517,1237,3030.92
25759,3.2142,3.5757,10.1071,1235,3030.92
25764,-1.798,-0.6117,13.866,1237,3030.92
25769,-5.6443,0.4417,11.2767,1231,3030.92
25774,1.2306,3.1244,8.078,1231,3031.37
25779,3.2274,3.4644,10.2113,1235,3031.37
25784,-1.9788,-0.8392,13.7822,1226,3031.37
25789,-5.5701,0.6656,11.084,1234,3031.37
25794,1.4042,3.1771,8.1666,1228,3031.37
25799,3.1975,3.3483,10.4663,1236,3031.37
25804,-2.2063,-1.0965,13.7726,1235,3031.37
25809,-5.5498,0.8667,10.7919,1230,3031.37
25814,1.5969,3.2358,8.2337,1231,3031.68
25819,3.0849,3.158,10.5536,1229,3031.68
25824,-2.4122,-1.2941,13.8361,1235,3031.68
25829,-5.4097,1.093,10.6051,1231,3031.68
25834,1.6843,3.2968,8.2552,1231,3031.53
25839,2.9963,2.9868,10.7643,1231,3031.53
25844,-2.5989,-1.4653,13.7583,1231,3031.53
25849,-5.2888,1.3144,10.325,1237,3031.53
25854,1.8399,3.3794,8.339,1230,3030.92
25859,2.7725,2.794,11.0049,1229,3030.92
25864,-2.8443,-1.6412,13.799,1235,3030.92
25869,-5.0362,1.4688,10.1275,1241,3030.92
25874,1.9429,3.3998,8.3665,1226,3030.92
25879,2.5175,2.6576,11.151,1235,3030.92
25884,-3.0682,-1.7549,13.7044,1229,3030.92
25889,-4.8171,1.6041,9.8701,1240,3030.92
25894,2.0375,3.4261,8.4443,1234,3030.76
25899,2.241,2.4948,11.4108,1237,3030.76
25904,-3.2585,-1.8148,13.6589,1235,3030.76
25909,-4.5023,1.7514,9.6989,1231,3030.76
25914,2.0877,3.4955,8.5449,1239,3030.76
25919,1.9812,2.3008,11.4994,1230,3030.76
25924,-3.468,-1.9345,13.6086,1234,3030.76
25929,-4.227,1.8387,9.4511,1233,3030.76
25934,2.1284,3.5386,8.6036,1235,3031.37
25939,1.6688,2.1153,11.7029,1235,3031.37
25944,-3.7038,-1.9285,13.5368,1234,3031.37
25949,-3.9002,2.0207,9.3374,1235,3031.68
25954,2.2003,3.6428,8.6838,1231,3031.68
25959,1.3001,1.8986,11.9231,1241,3031.68
25964,-3.9217,-1.9668,13.4578,1231,3031.68
25969,-3.5446,2.1093,9.068,1235,3031.83
25974,2.2613,3.6559,8.6838,1229,3031.83
25979,0.917,1.7549,12.1374,1239,3031.83
25984,-4.0917,-1.913,13.3441,1237,3031.83
25989,-3.1388,2.2063,8.9064,1234,3031.53
25994,2.326,3.7505,8.7795,1241,3031.53
25999,0.5997,1.5119,12.3337,1235,3031.53
26004,-4.3299,-1.8387,13.2387,1240,3031.53
26009,-2.7821,2.308,8.7568,1235,3030.92
26014,2.4026,3.7469,8.9842,1235,3030.92
26019,0.237,1.3946,12.5217,1231,3030.92
26024,-4.458,-1.7645,13.125,1239,3030.92
26029,-2.3679,2.3595,8.5269,1235,3030.92
26034,2.5259,3.8391,9.0644,1235,3030.92
26039,-0.0431,1.2282,12.6737,1235,3030.92
26044,-4.6052,-1.6161,13.0771,1235,3030.92
26049,-2.0231,2.478,8.4719,1235,3030.76
26054,2.5798,3.8714,9.1447,1229,3030.76
26059,-0.328,1.0343,12.8365,1231,3030.76
26064,-4.7836,-1.5048,12.8389,1227,3030.76
26069,-1.5945,2.5127,8.3366,1239,3030.76
26074,2.6516,3.9061,9.1877,1233,3030.76
26079,-0.565,0.8775,13.0149,1231,3030.76
26084,-4.9344,-1.3072,12.7599,1237,3030.76
26089,-1.2306,2.5678,8.2516,1230,3030.92
26094,2.7294,3.8906,9.262,1224,3030.92
26099,-0.7075,0.7159,13.1525,1233,3030.92
26104,-5.0578,-1.1073,12.5324,1237,3030.92
26109,-0.8104,2.6899,8.1547,1235,3030.92
26114,2.8934,3.8942,9.3254,1229,3030.92
26119,-0.899,0.5076,13.2591,1231,3030.92
26124,-5.2038,-0.9122,12.408,1227,3030.92
26129,-0.4717,2.7461,8.1618,1228,3030.92
26134,2.9125,3.8942,9.4379,1229,3030.92
26139,-1.0223,0.3472,13.2986,1239,3030.92
26144,-5.2888,-0.6895,12.202,1239,3030.92
26149,-0.1317,2.8311,8.0756,1230,3030.92
26154,3.0287,3.8559,9.5792,1231,3030.92
26159,-1.1923,0.1065,13.5057,1234,3030.92
26164,-5.4432,-0.5399,12.0931,1241,3030.92
26169,0.1796,2.8323,8.0685,1231,3030.76
26174,3.1113,3.7757,9.657,1233,3030.76
26179,-1.3563,-0.0515,13.5907,1230,3030.76
26184,-5.5019,-0.2777,11.8968,1235,3030.76
26189,0.4513,2.9161,8.0349,1231,3030.92
26194,3.1556,3.7505,9.7935,1236,3030.92
26199,-1.506,-0.2179,13.6314,1229,3030.92
26204,-5.5833,-0.0622,11.6873,1237,3030.92
26209,0.7446,2.9413,7.9954,1237,3031.68
26214,3.2394,3.626,9.8869,1231,3031.68
26219,-1.6532,-0.4549,13.7056,1235,3031.68
26224,-5.6132,0.146,11.5245,1235,3031.68
26229,0.9912,3.0191,8.0361,1235,3031.37
26234,3.2777,3.559,10.088,1235,3031.37
26239,-1.7885,-0.6823,13.7152,1235,3031.37
26244,-5.624,0.4082,11.2875,1237,3031.37
26249,1.1971,3.0131,8.09,1237,3031.37
26254,3.2501,3.4249,10.2185,1235,3031.37
26259,-2.0327,-0.917,13.8122,1237,3031.37
26264,-5.5964,0.6524,11.0504,1235,3031.37
26269,1.3874,3.1807,8.1511,1233,3031.37
26274,3.1747,3.31,10.3681,1230,3031.37
26279,-2.247,-1.0918,13.8397,1229,3031.37
26284,-5.5557,0.8799,10.7835,1233,3031.37
26289,1.5682,3.1831,8.2205,1231,3031.37
26294,3.0682,3.0981,10.6027,1237,3031.37
26299,-2.4217,-1.3515,13.8421,1235,3031.37
26304,-5.4324,1.0822,10.6279,1231,3031.37
26309,1.6807,3.2836,8.2708,1233,3031.37
26314,2.9185,3.0478,10.811,1230,3031.37
26319,-2.7054,-1.5024,13.7774,1245,3031.37
26324,-5.2601,1.2701,10.422,1239,3031.37
26329,1.7801,3.3459,8.327,1228,3031.83
26334,2.727,2.8491,11.0038,1228,3031.83
26339,-2.8659,-1.6843,13.7487,1230,3031.83
26344,-5.0601,1.4521,10.1574,1238,3031.83
26349,1.9225,3.3902,8.3989,1229,3031.68
26354,2.5355,2.7174,11.1893,1230,3031.68
26359,-3.1268,-1.7633,13.6877,1231,3031.68
26364,-4.8291,1.6771,9.8701,1241,3031.68
26369,1.9896,3.4644,8.4372,1235,3031.22
26374,2.1943,2.4852,11.3629,1235,3031.22
26379,-2.2841,-1.1049,13.8983,1235,3031.22
26384,-5.5067,0.9565,10.799,1241,3031.22
26389,2.0913,3.5482,8.5186,1239,3031.07
26394,3.0562,3.1747,10.6279,1231,3031.07
26399,-2.4541,-1.2785,13.781,1229,3031.07
26404,-5.375,1.1504,10.5596,1231,3031.07
26409,1.7585,3.3064,8.2815,1235,3031.53
26414,2.9437,2.9616,10.8912,1236,3031.53
26419,-2.6647,-1.4856,13.7595,1230,3031.53
26424,-5.1739,1.3587,10.3238,1237,3031.53
26429,1.8962,3.383,8.3725,1230,3031.53
26434,2.7354,2.8216,11.0301,1239,3031.53
26439,-2.903,-1.6053,13.7726,1229,3031.53
26444,-4.9895,1.5335,10.0545,1238,3031.53
26449,2.0016,3.4441,8.4348,1231,3031.53
26454,2.4876,2.6061,11.2228,1239,3031.53
26459,-3.1005,-1.7358,13.7188,1236,3031.53
26464,-4.7357,1.6328,9.8078,1235,3031.99
26469,2.0518,3.5314,8.4779,1232,3031.99
26474,2.217,2.4229,11.3521,1231,3031.99
26479,-3.322,-1.8352,13.641,1237,3031.99
26484,-4.3766,1.7968,9.6187,1231,3031.83
26489,2.1763,3.535,8.5736,1237,3031.83
26494,1.8675,2.2254,11.5987,1231,3031.83
26499,-3.4991,-1.9058,13.5883,1241,3031.83
26504,-4.0953,1.895,9.3422,1239,3031.83
26509,2.2625,3.5925,8.5964,1237,3031.83
26514,1.567,2.0279,11.8202,1231,3031.83
26519,-3.7888,-1.962,13.5225,1237,3031.83
26524,-3.7457,2.0195,9.2249,1235,3031.68
26529,2.2829,3.5757,8.6933,1233,3031.68
26534,1.2067,1.7909,11.9985,1234,3031.68
26539,-3.9409,-2.0039,13.3896,1227,3031.68
26544,-3.3196,2.1165,8.9818,1235,3031.53
26549,2.3355,3.6739,8.8322,1231,3031.53
26554,0.8236,1.6305,12.1829,1229,3031.53
26559,-4.1336,-1.9213,13.313,1227,3031.53
26564,-3.0119,2.2122,8.7951,1235,3031.53
26569,2.3643,3.7098,8.8669,1229,3031.53
26574,0.498,1.4641,12.3661,1224,3031.53
26579,-4.3491,-1.8196,13.1537,1228,3031.53
26584,-2.5929,2.2769,8.7185,1231,3031.83
26589,2.4157,3.7098,8.9759,1233,3031.83
26594,0.2059,1.2761,12.5696,1234,3031.83
26599,-4.5633,-1.7346,13.0029,1233,3031.83
26604,-2.2075,2.3942,8.515,1234,3031.37
26609,2.4684,3.7565,9.0285,1235,3031.37
26614,-0.1018,1.1013,12.7252,1236,3031.37
26619,-4.7848,-1.6173,12.9012,1231,3031.37
26624,-1.8531,2.4517,8.4467,1237,3031.37
26629,2.5821,3.8211,9.1135,1235,3031.37
26634,-0.3807,0.9397,12.9143,1229,3031.37
26639,-4.8949,-1.4664,12.7934,1239,3031.37
26644,-1.4138,2.557,8.2636,1233,3030.76
26649,2.6384,3.887,9.2261,1234,3030.76
26654,-0.6237,0.7398,13.052,1235,3030.76
26659,-5.0793,-1.2438,12.7383,1239,3030.76
26664,-1.0523,2.5881,8.1786,1235,3031.07
26669,2.7737,3.8774,9.3302,1237,3031.07
26674,-0.814,0.6225,13.1645,1231,3031.07
26679,-5.2098,-1.0343,12.5217,1235,3031.07
26684,-0.6237,2.6372,8.169,1237,3031.83
26689,2.8527,3.893,9.3781,1235,3031.83
26694,-0.996,0.4645,13.3465,1230,3031.83
26699,-5.2888,-0.8152,12.4032,1237,3031.83
26704,-0.3136,2.7521,8.1235,1243,3030.76
26709,2.9461,3.8487,9.4511,1236,3030.76
26714,-1.172,0.255,13.3932,1235,3030.76
26719,-5.4157,-0.5818,12.1889,1235,3030.76
26724,0.0072,2.7964,8.0804,1239,3030.92
26729,3.0406,3.8666,9.6367,1229,3030.92
26734,-1.3467,0.1018,13.5715,1231,3030.92
26739,-5.4863,-0.3783,12.0009,1235,3030.92
26744,0.3531,2.891,8.0565,1234,3031.22
26749,3.146,3.7816,9.7671,1231,3031.22
26754,-1.4581,-0.1233,13.6302,1231,3031.22
26759,-5.5857,-0.1269,11.8393,1227,3031.22
26764,0.6273,2.8802,8.0673,1230,3031.22
26769,3.2082,3.7469,9.9156,1229,3031.22
26774,-1.585,-0.3232,13.6877,1231,3031.22
26779,-5.6048,0.1053,11.582,1235,3031.22
26784,0.8942,2.9999,8.0373,1231,3031.53
26789,3.2717,3.6176,10.0221,1235,3031.53
26794,-1.7538,-0.5638,13.7595,1237,3031.53
26799,-5.6228,0.3627,11.4215,1237,3031.53
26804,1.1396,3.1568,8.0768,1235,3031.68
26809,3.3088,3.541,10.1945,1231,3031.68
26814,-1.8723,-0.7518,13.781,1230,3031.68
26819,-5.5869,0.571,11.1438,1241,3031.68
26824,1.3336,3.1687,8.0373,1235,3031.83
26829,3.2717,3.3854,10.3142,1235,3031.83
26834,-2.0997,-0.978,13.8433,1230,3031.83
26839,-5.5474,0.7697,10.9583,1245,3031.83
26844,1.5311,3.2394,8.1774,1234,3031.99
26849,3.1687,3.2609,10.5369,1236,3031.99
26854,-2.2757,-1.2294,13.7427,1229,3031.99
26859,-5.436,0.99,10.6973,1239,3031.99
26864,1.6891,3.2406,8.2516,1237,3031.99
26869,3.0646,3.1173,10.6745,1229,3031.99
26874,-2.4756,-1.3934,13.8493,1229,3031.99
26879,-5.3307,1.1863,10.4208,1225,3031.99
26884,1.8184,3.3519,8.3019,1237,3031.68
26889,2.8515,2.9401,10.8912,1229,3031.68
26894,-2.7007,-1.5766,13.8181,1229,3031.68
26899,-5.0949,1.3408,10.1622,1235,3031.68
26904,1.9154,3.3651,8.3378,1235,3031.68
26909,2.6408,2.7162,11.066,1239,3031.68
26914,-2.9664,-1.7514,13.696,1231,3031.68
26919,-4.883,1.5419,10.0628,1237,3032.14
26924,1.9932,3.45,8.4192,1235,3032.14
26929,2.3511,2.5786,11.2791,1240,3032.14
26934,-3.1711,-1.8543,13.6757,1237,3032.14
26939,-4.6136,1.7035,9.7935,1236,3031.53
26944,2.065,3.4776,8.5054,1235,3031.53
26949,2.065,2.3439,11.4838,1237,3031.53
26954,-3.4177,-1.9501,13.5979,1238,3031.53
26959,-4.3347,1.8902,9.56,1231,3031.83
26964,2.1608,3.5338,8.5808,1235,3031.83
26969,1.7454,2.1763,11.6538,1231,3031.83
26974,-3.6033,-1.9872,13.55,1239,3031.83
26979,-4.0175,1.9201,9.3482,1231,3031.37
26984,2.2087,3.5614,8.7065,1237,3031.37
26989,1.3767,1.9632,11.8369,1231,3031.37
26994,-3.8463,-1.9728,13.4985,1229,3031.37
26999,-3.6512,2.0961,9.1075,1235,3031.37
27004,2.2637,3.6655,8.7604,1231,3031.37
27009,1.0331,1.8471,12.0141,1234,3031.37
27014,-4.0175,-1.9154,13.374,1229,3031.37
27019,-3.2992,2.156,8.9435,1231,3031.53
27024,2.2649,3.6763,8.8095,1235,3031.53
27029,0.7087,1.6065,12.2392,1229,3031.53
27034,-4.2425,-1.8818,13.216,1229,3031.53
27039,-2.897,2.2817,8.7939,1235,3031.99
27044,2.3882,3.7409,8.8897,1241,3031.99
27049,0.401,1.4545,12.4702,1235,3031.99
27054,-4.4508,-1.7992,13.1753,1230,3031.99
27059,-2.5091,2.3379,8.655,1227,3031.68
27064,2.405,3.8176,8.9507,1237,3031.68
27069,0.0551,1.239,12.6127,1235,3031.68
27074,-4.5777,-1.6795,13.0424,1229,3031.68
27079,-2.053,2.4325,8.5341,1235,3031.83
27084,2.5594,3.887,9.0716,1235,3031.83
27089,-0.1951,1.0702,12.7755,1239,3031.83
27094,-4.798,-1.4976,12.949,1235,3031.83
27099,-1.6269,2.5307,8.3522,1235,3031.68
27104,2.6468,3.8607,9.1171,1235,3031.68
27109,-0.5183,0.8906,12.9431,1235,3031.68
27114,-4.9356,-1.3216,12.7826,1238,3031.68
27119,-1.2617,2.5666,8.2744,1231,3031.68
27124,2.7928,3.9289,9.2727,1237,3031.68
27129,-0.6404,0.7649,13.1633,1233,3031.68
27134,-5.0829,-1.166,12.5672,1237,3031.68
27139,-0.8775,2.66,8.2289,1231,3031.07
27144,2.8635,3.9145,9.3122,1237,3031.07
27149,-0.893,0.5507,13.2591,1231,3031.07
27154,-5.1954,-0.99,12.4271,1236,3031.07
27159,-0.5291,2.6803,8.1415,1239,3031.53
27164,2.97,3.9025,9.4727,1237,3031.53
27169,-1.0307,0.4298,13.3525,1231,3031.53
27174,-5.3415,-0.753,12.2811,1235,3031.53
27179,-0.1664,2.7701,8.0673,1238,3031.53
27184,3.067,3.8415,9.5505,1238,3031.53
27189,-1.1995,0.1556,13.4674,1223,3031.53
27194,-5.4061,-0.5375,12.1326,1235,3031.53
27199,0.1544,2.8503,8.0517,1241,3031.68
27204,3.1125,3.8295,9.6367,1239,3031.68
27209,-1.3144,-0.0263,13.55,1235,3031.68
27214,-5.5079,-0.2442,11.8812,1238,3031.68
27219,0.5028,2.9233,8.0768,1235,3031.22
27224,3.213,3.7266,9.7947,1237,3031.22
27229,-1.4808,-0.237,13.7116,1235,3031.22
27234,-5.5809,-0.0443,11.728,1235,3031.22
27239,0.7614,3.0155,8.0397,1239,3030.92
27244,3.2705,3.6691,9.9611,1237,3030.92
27249,-1.6017,-0.407,13.6817,1237,3030.92
27254,-5.5952,0.1628,11.4179,1235,3030.92
27259,1.0032,3.0287,8.0553,1235,3031.07
27264,3.2346,3.5721,10.1131,1237,3031.07
27269,-1.7705,-0.6871,13.7224,1239,3031.07
27274,-5.5941,0.3603,11.2647,1237,3031.07
27279,1.2198,3.0837,8.0744,1237,3030.92
27284,3.2645,3.4548,10.2364,1231,3030.92
27289,-1.9728,-0.8727,13.7044,1235,3030.92
27294,-5.6216,0.6057,11.0277,1237,3030.92
27299,1.3874,3.1699,8.1235,1234,3031.07
27304,3.1951,3.2944,10.3896,1234,3031.07
27309,-2.1392,-1.1085,13.8181,1235,3031.07
27314,-5.5043,0.8547,10.823,1245,3031.07
27319,1.5538,3.2106,8.1678,1237,3031.22
27324,3.1005,3.1125,10.5524,1237,3031.22
27329,-2.3284,-1.2677,13.787,1210,3031.22
27334,-5.4277,0.9996,10.6027,1240,3031.22
27339,1.6747,3.2884,8.2648,1239,3030.46
27344,2.9401,3.0203,10.7967,1235,3030.46
27349,-2.5678,-1.4114,13.8062,1235,3030.46
27354,-5.284,1.2534,10.41,1227,3030.46
27359,1.8172,3.3184,8.2744,1251,3031.07
27364,2.7725,2.8491,10.9188,1239,3031.07
27369,-2.8228,-1.5993,13.7463,1231,3031.07
27374,-5.0877,1.4174,10.1682,1239,3031.07
27379,1.9142,3.3914,8.3785,1235,3030.92
27384,2.5522,2.6923,11.1486,1228,3030.92
27389,-3.0071,-1.7765,13.7583,1229,3030.92
27394,-4.8878,1.5933,9.9443,1254,3031.22
27399,1.9992,3.3914,8.3833,1234,3031.22
27404,2.3044,2.4924,11.3078,1245,3031.22
27409,-3.2633,-1.8675,13.708,1231,3031.22
27414,-4.6172,1.7549,9.7887,1231,3031.53
27419,2.0865,3.5075,8.5449,1235,3031.53
27424,1.9513,2.3535,11.4443,1237,3031.53
27429,-3.4752,-1.8627,13.6517,1239,3031.53
27434,-4.2808,1.8423,9.5397,1235,3031.37
27439,2.1572,3.5733,8.6227,1238,3031.37
27444,1.658,2.1931,11.6717,1236,3031.37
27449,-3.6703,-1.9046,13.5548,1244,3031.37
27454,-3.9133,2.0087,9.2859,1237,3031.53
27459,2.1835,3.6045,8.6538,1237,3031.53
27464,1.33,1.9812,11.9327,1235,3031.53
27469,-3.8559,-1.9285,13.453,1243,3031.53
27474,-3.5757,2.083,9.0716,1238,3031.37
27479,2.2494,3.6559,8.7604,1237,3031.37
27484,1.0235,1.7753,12.1063,1235,3031.37
27489,-4.0989,-1.8723,13.3932,1235,3031.37
27494,-3.2094,2.2194,8.916,1235,3031.37
27499,2.375,3.7278,8.8502,1238,3031.37
27504,0.6105,1.5598,12.2727,1235,3031.37
27509,-4.2341,-1.8962,13.3058,1229,3031.37
27514,-2.7952,2.2637,8.7065,1229,3031.68
27519,2.46,3.8199,8.9136,1240,3031.68
27524,0.322,1.4162,12.457,1237,3031.68
27529,-4.4388,-1.7717,13.2076,1233,3031.68
27534,-2.3679,2.4098,8.5712,1231,3031.83
27539,2.5343,3.8666,8.9651,1237,3031.83
27544,-0.0239,1.2258,12.6115,1229,3031.83
27549,-4.6364,-1.658,13.0328,1234,3031.83
27554,-2.0027,2.4313,8.5126,1235,3031.99
27559,2.5821,3.9014,9.019,1237,3031.99
27564,-0.2622,1.1193,12.8593,1241,3031.99
27569,-4.7992,-1.4509,12.9,1235,3031.99
27574,-1.6257,2.5127,8.3474,1225,3031.83
27579,2.6875,3.8403,9.1877,1236,3031.83
27584,-0.4932,0.8871,12.9718,1237,3031.83
27589,-4.9165,-1.3192,12.7072,1241,3031.83
27594,-1.1947,2.5115,8.2349,1235,3031.68
27599,2.788,3.893,9.2955,1238,3031.68
27604,-0.6776,0.7063,13.0699,1229,3031.68
27609,-5.0925,-1.1289,12.5851,1239,3031.68
27614,-0.7745,2.66,8.1403,1229,3032.14
27619,2.8407,3.8607,9.3673,1239,3032.14
27624,-0.8511,0.4884,13.2304,1235,3032.14
27629,-5.1511,-0.9697,12.4091,1235,3032.14
27634,-0.4752,2.6983,8.1283,1239,3032.14
27639,2.9401,3.8259,9.5026,1237,3032.14
27644,-0.9888,0.3172,13.3608,1235,3032.14
27649,-5.3307,-0.7051,12.2032,1237,3032.14
27654,-0.0886,2.8084,8.096,1239,3032.29
27659,3.0574,3.8331,9.5445,1237,3032.29
27664,-1.2234,0.085,13.4806,1239,3032.29
27669,-5.448,-0.5124,12.0488,1237,3032.29
27674,0.2418,2.8659,8.0541,1241,3031.83
27679,3.1723,3.7433,9.6702,1239,3031.83
27684,-1.3467,-0.0622,13.5703,1237,3031.83
27689,-5.5797,-0.2538,11.8549,1239,3031.83
27694,0.5459,2.9389,7.9918,1225,3031.68
27699,3.2058,3.7014,9.8234,1234,3031.68
27704,-1.5179,-0.3053,13.6374,1236,3031.68
27709,-5.5893,-0.0383,11.7663,1231,3031.68
27714,0.7769,2.9329,8.0266,1235,3031.53
27719,3.2334,3.5937,10.0161,1238,3031.53
27724,-1.6771,-0.5351,13.6757,1239,3031.53
27729,-5.6371,0.2286,11.4359,1233,3031.53
27734,1.0391,3.0287,8.096,1235,3031.53
27739,3.2609,3.535,10.1347,1235,3031.53
27744,-1.8759,-0.7326,13.7463,1243,3031.53
27749,-5.6204,0.4573,11.2707,1240,3031.53
27754,1.245,3.0706,8.0816,1235,3031.68
27759,3.2202,3.3722,10.3034,1235,3031.68
27764,-2.0818,-0.9373,13.787,1235,3031.68
27769,-5.6156,0.6895,11.0265,1241,3031.68
27774,1.4269,3.1747,8.157,1229,3032.14
27779,3.146,3.2741,10.4746,1235,3032.14
27784,-2.2446,-1.1564,13.7906,1236,3032.14
27789,-5.5414,0.9266,10.7595,1247,3032.14
27794,1.573,3.2166,8.2384,1231,3032.29
27799,3.0418,3.0382,10.6745,1239,3032.29
27804,-2.5247,-1.4078,13.7762,1238,3032.29
27809,-5.3977,1.1684,10.5692,1242,3032.29
27814,1.7573,3.3004,8.254,1240,3032.45
27819,2.8659,2.9987,10.8589,1235,3032.45
27824,-2.7485,-1.5311,13.8133,1239,3032.45
27829,-5.2577,1.318,10.3394,1230,3032.45
27834,1.8555,3.3339,8.3175,1237,3032.45
27839,2.7007,2.7737,11.0133,1241,3032.45
27844,-2.9317,-1.6975,13.7762,1235,3032.45
27849,-5.0159,1.5479,10.1251,1240,3030.92
27854,1.9321,3.4249,8.4204,1251,3030.92
27859,2.405,2.6348,11.2408,1235,3030.92
27864,-3.1903,-1.7561,13.7691,1235,3030.92
27869,-4.7441,1.6975,9.8713,1235,3033.52
27874,1.9956,3.4632,8.4862,1233,3033.52
27879,2.1225,2.387,11.4072,1241,3033.52
27884,-3.3686,-1.8663,13.6589,1239,3033.52
27889,-4.4077,1.8411,9.6247,1239,3031.99
27894,2.1009,3.5518,8.5413,1233,3031.99
27899,1.816,2.2565,11.6777,1238,3031.99
27904,-3.6093,-1.8818,13.5895,1242,3031.99
27909,-4.0941,1.9429,9.4391,1231,3031.99
27914,2.1979,3.6152,8.6503,1237,3031.99
27919,1.4269,2.0375,11.8752,1235,3031.99
27924,-3.7972,-1.9417,13.5033,1242,3031.99
27929,-3.7218,2.0602,9.1578,1237,3031.83
27934,2.2505,3.7266,8.7329,1238,3031.83
27939,1.0989,1.8747,12.0141,1237,3031.83
27944,-3.9863,-1.8759,13.4351,1241,3031.83
27949,-3.316,2.2051,8.983,1237,3031.53
27954,2.3559,3.7553,8.8059,1235,3031.53
27959,0.741,1.6747,12.2092,1237,3031.53
27964,-4.1563,-1.8519,13.2974,1237,3031.53
27969,-2.9209,2.2482,8.8178,1237,3031.53
27974,2.4409,3.7936,8.9112,1239,3031.53
27979,0.4489,1.5083,12.396,1235,3031.53
27984,-4.3371,-1.798,13.1681,1237,3031.53
27989,-2.5666,2.3523,8.6993,1234,3031.83
27994,2.4876,3.8164,8.9028,1239,3031.83
27999,0.1329,1.2857,12.5947,1235,3031.83
28004,-4.5215,-1.6819,13.0161,1239,3031.83
28009,-2.1272,2.3894,8.5198,1235,3031.68
28014,2.5642,3.8607,9.0549,1237,3031.68
28019,-0.1173,1.1396,12.7527,1229,3031.68
28024,-4.6938,-1.5562,12.876,1237,3031.68
28029,-1.7142,2.4529,8.3629,1235,3031.83
28034,2.6671,3.8595,9.1315,1234,3031.83
28039,-0.3723,0.9816,12.8952,1243,3031.83
28044,-4.8399,-1.385,12.8054,1241,3031.83
28049,-1.3288,2.5127,8.2396,1237,3032.14
28054,2.7689,3.8571,9.1866,1235,3032.14
28059,-0.595,0.7566,13.0041,1235,3032.14
28064,-5.0566,-1.2115,12.645,1245,3032.14
28069,-0.923,2.6264,8.1882,1235,3032.45
28074,2.7988,3.802,9.2476,1238,3032.45
28079,-0.7937,0.5243,13.2088,1235,3032.45
28084,-5.1834,-1.0534,12.4367,1245,3032.45
28089,-0.5794,2.6743,8.1355,1235,3032.14
28094,2.9509,3.8367,9.3613,1241,3032.14
28099,-0.9708,0.4046,13.3692,1235,3032.14
28104,-5.3307,-0.7709,12.3182,1241,3032.14
28109,-0.2059,2.7402,8.096,1239,3032.14
28114,3.0119,3.7876,9.4535,1239,3032.14
28119,-1.1672,0.1269,13.3908,1235,3032.14
28124,-5.4636,-0.6153,12.0907,1235,3032.14
28129,0.0886,2.7916,8.0086,1239,3032.45
28134,3.1029,3.7733,9.6307,1234,3032.45
28139,-1.2582,-0.0563,13.538,1227,3032.45
28144,-5.5881,-0.3484,11.9255,1238,3032.45
28149,0.4477,2.8706,8.0337,1239,3032.91
28154,3.1807,3.711,9.754,1241,3032.91
28159,-1.482,-0.2526,13.6302,1235,3032.91
28164,-5.618,-0.0826,11.728,1237,3032.91
28169,0.6812,2.9521,8.0828,1231,3033.21
28174,3.2262,3.6284,9.8952,1237,3033.21
28179,-1.634,-0.4621,13.6865,1238,3033.21
28184,-5.6767,0.1652,11.4994,1237,3033.21
28189,0.9685,3.0191,8.078,1234,3033.21
28194,3.2573,3.4848,10.0688,1231,3033.21
28199,-1.8364,-0.7314,13.7966,1231,3033.21
28204,-5.6898,0.413,11.236,1237,3033.21
28209,1.221,3.0921,8.0876,1231,3033.37
28214,3.2238,3.4249,10.234,1233,3033.37
28219,-2.0901,-0.8859,13.8433,1237,3033.37
28224,-5.6467,0.6644,11.0864,1240,3033.37
28229,1.4018,3.1316,8.1116,1235,3033.37
28234,3.1137,3.2825,10.4579,1229,3033.37
28239,-2.3236,-1.1456,13.8433,1235,3033.37
28244,-5.539,0.9014,10.908,1245,3033.37
28249,1.5814,3.2334,8.2037,1231,3033.67
28254,3.0789,3.1951,10.6147,1231,3033.67
28259,-2.5498,-1.3012,13.8433,1235,3033.67
28264,-5.4181,1.1803,10.5584,1241,3033.67
28269,1.6783,3.3255,8.2756,1238,3034.13
28274,2.8874,2.9832,10.8014,1237,3034.13
28279,-2.7342,-1.4892,13.8612,1235,3034.13
28284,-5.2469,1.3527,10.3058,1236,3034.13
28289,1.8591,3.3854,8.3115,1243,3033.83
28294,2.7078,2.8072,11.0181,1237,3033.83
28299,-2.9461,-1.6233,13.8002,1235,3033.83
28304,-5.0003,1.5287,10.0533,1240,3033.83
28309,2.0075,3.4596,8.3845,1235,3033.52
28314,2.4229,2.6061,11.2468,1239,3033.52
28319,-3.1831,-1.7992,13.7331,1235,3033.52
28324,-4.6328,1.7083,9.8737,1239,3033.67
28329,2.0482,3.5183,8.4587,1245,3033.67
28334,2.1033,2.4433,11.4886,1241,3033.67
28339,-3.4189,-1.8423,13.6685,1237,3033.67
28344,-4.4053,1.8555,9.6223,1240,3033.83
28349,2.1608,3.5602,8.5665,1235,3033.83
28354,1.7693,2.1895,11.6957,1236,3033.83
28359,-3.6236,-1.8806,13.6254,1241,3033.83
28364,-4.0055,1.9824,9.2979,1235,3034.44
28369,2.2877,3.6332,8.6119,1237,3034.44
28374,1.4617,2.0219,11.8118,1235,3034.44
28379,-3.9002,-1.9297,13.5189,1241,3034.44
28384,-3.626,2.1225,9.1459,1245,3034.9
28389,2.3164,3.6703,8.7628,1237,3034.9
28394,1.0953,1.7753,12.0548,1231,3034.9
28399,-4.057,-1.9046,13.4051,1237,3034.9
28404,-3.2394,2.1596,8.916,1237,3035.21
28409,2.4469,3.7158,8.7724,1235,3035.21
28414,0.7482,1.5778,12.311,1235,3035.21
28419,-4.312,-1.8663,13.2447,1231,3035.21
28424,-2.7677,2.3296,8.7245,1239,3035.36
28429,2.5163,3.7852,8.8502,1241,3035.36
28434,0.3388,1.3731,12.4798,1230,3035.36
28439,-4.5179,-1.7669,13.1226,1236,3035.36
28444,-2.2901,2.3343,8.5545,1239,3035.05
28449,2.6013,3.7565,8.9232,1237,3035.05
28454,0.0754,1.1791,12.6629,1235,3035.05
28459,-4.6843,-1.6269,12.9981,1237,3035.05
28464,-1.8423,2.4565,8.418,1235,3034.75
28469,2.6408,3.8355,9.1207,1231,3034.75
28474,-0.3112,0.9708,12.8114,1235,3034.75
28479,-4.8554,-1.4497,12.8844,1243,3034.75
28484,-1.4102,2.5055,8.2768,1237,3034.75
28489,2.7593,3.8654,9.2081,1235,3034.75
28494,-0.5387,0.7745,12.9993,1240,3034.75
28499,-5.0518,-1.2605,12.6941,1240,3034.75
28504,-0.9948,2.6001,8.2169,1235,3034.75
28509,2.8347,3.9002,9.2368,1237,3034.75
28514,-0.753,0.5878,13.1561,1231,3034.75
28519,-5.2589,-1.0307,12.4906,1239,3034.75
28524,-0.6141,2.6564,8.0948,1231,3034.59
28529,2.9233,3.8211,9.3589,1237,3034.59
28534,-0.9613,0.3519,13.3477,1235,3034.59
28539,-5.4085,-0.7961,12.3026,1240,3034.59
28544,-0.2107,2.7629,8.0673,1239,3034.59
28549,3.0442,3.8247,9.5026,1238,3034.59
28554,-1.1169,0.1628,13.4829,1231,3034.59
28559,-5.5222,-0.6153,12.1709,1237,3034.59
28564,0.1077,2.7809,7.9978,1243,3034.29
28569,3.1149,3.8008,9.6403,1237,3034.29
28574,-1.3647,-0.0826,13.5667,1237,3034.29
28579,-5.5737,-0.3424,11.9483,1235,3034.29
28584,0.4573,2.8695,8.0218,1241,3034.59
28589,3.2106,3.7314,9.7468,1235,3034.59
28594,-1.5419,-0.2909,13.6398,1231,3034.59
28599,-5.6383,-0.0251,11.7388,1237,3034.59
28604,0.7578,2.9497,8.0828,1236,3034.75
28609,3.2142,3.6272,9.8869,1235,3034.75
28614,-1.7406,-0.5399,13.7798,1229,3034.75
28619,-5.715,0.2298,11.5161,1236,3034.75
28624,1.0295,3.0311,8.078,1237,3034.75
28629,3.2609,3.5554,10.088,1235,3034.75
28634,-1.919,-0.723,13.805,1239,3034.75
28639,-5.7245,0.5088,11.2492,1235,3034.75
28644,1.2617,3.134,8.0996,1235,3035.05
28649,3.2382,3.4201,10.2975,1231,3035.05
28654,-2.1632,-0.9816,13.8337,1237,3035.05
28659,-5.6407,0.7877,11.0241,1243,3035.05
28664,1.4856,3.1687,8.1271,1235,3034.75
28669,3.1532,3.2813,10.4986,1237,3034.75
28674,-2.4134,-1.2246,13.781,1227,3034.75
28679,-5.515,1.0391,10.7787,1243,3034.75
28684,1.6556,3.2346,8.169,1235,3033.98
28689,3.0981,3.0718,10.7057,1237,3033.98
28694,-2.5738,-1.3467,13.8696,1231,3033.98
28699,-5.3702,1.2546,10.4818,1245,3033.98
28704,1.7849,3.3423,8.3115,1237,3033.37
28709,2.891,2.9425,10.9307,1239,3033.37
28714,-2.7605,-1.579,13.8193,1229,3033.37
28719,-5.126,1.4078,10.228,1241,3033.37
28724,1.8794,3.4417,8.3558,1241,3033.21
28729,2.6276,2.6995,11.1546,1239,3033.21
28734,-3.0083,-1.6316,13.7583,1231,3033.21
28739,-4.8997,1.5646,10.0209,1238,3033.21
28744,2.0159,3.4333,8.4228,1237,3033.37
28749,2.3882,2.5367,11.3425,1243,3033.37
28754,-3.2166,-1.7741,13.7415,1231,3033.37
28759,-4.6136,1.7597,9.8055,1239,3033.37
28764,2.1201,3.4955,8.4743,1237,3033.37
28769,2.0243,2.3619,11.5161,1242,3033.37
28774,-3.4524,-1.8794,13.623,1237,3033.37
28779,-4.2665,1.889,9.5158,1237,3033.83
28784,2.1787,3.5745,8.5509,1236,3033.83
28789,1.7394,2.1751,11.7531,1236,3033.83
28794,-3.6619,-1.8866,13.5632,1239,3033.83
28799,-3.9349,2.0087,9.2416,1234,3033.67
28804,2.2577,3.644,8.6586,1243,3033.67
28809,1.3647,1.9561,11.9447,1231,3033.67
28814,-3.8618,-1.9118,13.4446,1241,3033.67
28819,-3.5267,2.1213,9.0429,1237,3033.37
28824,2.3619,3.717,8.7712,1240,3033.37
28829,0.9996,1.6903,12.1111,1233,3033.37
28834,-4.0642,-1.8926,13.3441,1237,3033.37
28839,-3.1053,2.2122,8.8873,1237,3033.67
28844,2.4433,3.7182,8.8131,1235,3033.67
28849,0.6165,1.5203,12.2679,1236,3033.67
28854,-4.294,-1.8723,13.2124,1233,3033.67
28859,-2.7318,2.3176,8.7747,1238,3033.52
28864,2.4888,3.7613,8.8861,1239,3033.52
28869,0.3268,1.3743,12.4618,1235,3033.52
28874,-4.4784,-1.7729,13.0233,1235,3033.52
28879,-2.2482,2.3296,8.5593,1234,3033.21
28884,2.5666,3.7625,8.9818,1241,3033.21
28889,-0.0048,1.1528,12.7072,1235,3033.21
28894,-4.6687,-1.6209,13.0652,1235,3033.21
28899,-1.8615,2.4876,8.4599,1239,3033.06
28904,2.6767,3.8092,9.0896,1237,3033.06
28909,-0.2993,1.0044,12.8198,1231,3033.06
28914,-4.8686,-1.4736,12.8581,1233,3033.06
28919,-1.4353,2.5031,8.2612,1235,3032.91
28924,2.7162,3.8475,9.1554,1236,3032.91
28929,-0.5866,0.7673,13.0125,1239,3032.91
28934,-5.0482,-1.2857,12.6534,1238,3032.91
28939,-1.0523,2.5738,8.1618,1229,3033.21
28944,2.8228,3.8199,9.2129,1238,3033.21
28949,-0.747,0.6321,13.1418,1234,3033.21
28954,-5.1775,-1.0762,12.5313,1241,3033.21
28959,-0.6393,2.6707,8.1989,1228,3033.37
28964,2.8874,3.8295,9.3685,1238,3033.37
28969,-0.9673,0.3867,13.3034,1230,3033.37
28974,-5.3187,-0.8392,12.3026,1239,3033.37
28979,-0.2586,2.7785,8.0625,1237,3033.06
28984,2.9892,3.8523,9.5086,1237,3033.06
28989,-1.1085,0.1915,13.4578,1235,3033.06
28994,-5.4528,-0.6033,12.1685,1231,3033.06
28999,0.1053,2.8204,8.0409,1235,3034.44
29004,3.0765,3.8152,9.6379,1236,3034.44
29009,-1.33,-0.0491,13.526,1235,3034.44
29014,-5.551,-0.3651,11.9542,1237,3034.44
29019,0.3855,2.879,8.0014,1241,3033.67
29024,3.1532,3.7565,9.7396,1238,3033.67
29029,-1.4533,-0.2131,13.6661,1235,3033.67
29034,-5.6826,-0.0994,11.7926,1236,3033.67
29039,0.6716,2.9497,8.0038,1237,3033.98
29044,3.225,3.6152,9.9132,1237,3033.98
29049,-1.6676,-0.48,13.7714,1229,3033.98
29054,-5.6599,0.1784,11.4874,1235,3033.98
29059,0.9505,3.0107,8.0445,1235,3033.83
29064,3.2896,3.4836,10.0676,1235,3033.83
29069,-1.8591,-0.662,13.8133,1236,3033.83
29074,-5.7317,0.4824,11.2815,1231,3033.83
29079,1.2103,3.1029,8.1008,1245,3033.67
29084,3.2394,3.4117,10.2987,1237,3033.67
29089,-2.0842,-0.9026,13.793,1235,3033.67
29094,-5.5941,0.7015,11.0636,1237,3033.67
29099,1.4042,3.1603,8.0804,1235,3033.83
29104,3.207,3.3243,10.483,1237,3033.83
29109,-2.247,-1.1109,13.8612,1237,3033.83
29114,-5.5498,0.9553,10.805,1240,3033.83
29119,1.5742,3.2669,8.1977,1231,3033.98
29124,3.1041,3.1173,10.6111,1241,3033.98
29129,-2.5007,-1.3252,13.8588,1229,3033.98
29134,-5.3965,1.1768,10.5477,1243,3033.98
29139,1.7442,3.3052,8.2708,1237,3033.83
29144,2.9197,2.9748,10.811,1241,3033.83
29149,-2.7198,-1.5311,13.884,1230,3033.83
29154,-5.2325,1.3001,10.3106,1239,3033.83
29159,1.8771,3.401,8.3474,1239,3033.52
29164,2.6839,2.7617,11.0433,1237,3033.52
29169,-2.897,-1.6676,13.8193,1236,3033.52
29174,-4.9775,1.47,10.1023,1233,3033.52
29179,1.9944,3.3902,8.3845,1237,3033.98
29184,2.4481,2.5881,11.248,1244,3033.98
29189,-3.1975,-1.7358,13.7714,1231,3033.98
29194,-4.7285,1.719,9.8102,1238,3034.13
29199,2.071,3.5159,8.4671,1235,3034.13
29204,2.1476,2.3858,11.4586,1245,3034.13
29209,-3.3902,-1.9333,13.69,1231,3034.13
29214,-4.3551,1.8196,9.5768,1237,3034.44
29219,2.1536,3.559,8.5461,1239,3034.44
29224,1.8148,2.1799,11.6849,1240,3034.44
29229,-3.6452,-1.9333,13.5883,1239,3034.44
29234,-4.0486,1.9836,9.3182,1237,3034.44
29239,2.2398,3.6583,8.6036,1241,3034.44
29244,1.4257,1.9764,11.8824,1235,3034.44
29249,-3.8211,-1.9632,13.4997,1241,3034.44
29254,-3.6344,2.1009,9.104,1236,3034.44
29259,2.3822,3.6571,8.7412,1240,3034.44
29264,1.0211,1.7418,12.0835,1237,3034.44
29269,-4.0893,-1.9417,13.4303,1241,3034.44
29274,-3.1915,2.2206,8.91,1239,3034.29
29279,2.411,3.7409,8.734,1237,3034.29
29284,0.6261,1.5909,12.2775,1236,3034.29
29289,-4.2868,-1.8519,13.2687,1235,3034.29
29294,-2.7761,2.2913,8.7891,1235,3034.59
29299,2.4576,3.7302,8.8789,1241,3034.59
29304,0.346,1.3719,12.5049,1237,3034.59
29309,-4.5047,-1.7454,13.1226,1233,3034.59
29314,-2.3284,2.3403,8.5305,1240,3034.59
29319,2.5379,3.8235,8.9747,1240,3034.59
29324,-0.0036,1.1947,12.6701,1237,3034.59
29329,-4.6866,-1.6041,12.9574,1233,3034.59
29334,-1.8639,2.4553,8.4527,1235,3034.13
29339,2.6133,3.8211,9.0585,1240,3034.13
29344,-0.3388,0.984,12.8186,1239,3034.13
29349,-4.8554,-1.4784,12.8329,1229,3034.13
29354,-1.4437,2.545,8.2648,1235,3034.29
29359,2.7354,3.8271,9.1842,1239,3034.29
29364,-0.5231,0.7913,13.0125,1239,3034.29
29369,-5.0446,-1.2163,12.7276,1236,3034.29
29374,-1.0463,2.5881,8.169,1239,3034.44
29379,2.7928,3.814,9.1674,1237,3034.44
29384,-0.8056,0.5842,13.2016,1239,3034.44
29389,-5.1954,-1.0582,12.5384,1241,3034.44
29394,-0.5997,2.7246,8.1008,1231,3034.29
29399,2.9329,3.8571,9.341,1240,3034.29
29404,-0.9313,0.3903,13.3596,1239,3034.29
29409,-5.3403,-0.8344,12.3529,1239,3034.29
29414,-0.2801,2.7545,8.0553,1235,3034.59
29419,3.0119,3.802,9.4451,1241,3034.59
29424,-1.1768,0.1772,13.4303,1237,3034.59
29429,-5.4743,-0.5914,12.22,1239,3034.59
29434,0.0946,2.8036,8.0278,1237,3034.29
29439,3.073,3.7816,9.657,1239,3034.29
29444,-1.3132,-0.0479,13.5153,1239,3034.29
29449,-5.5557,-0.3448,11.9531,1236,3034.29
29454,0.413,2.8742,8.029,1239,3034.75
29459,3.1651,3.7002,9.7504,1241,3034.75
29464,-1.488,-0.2897,13.6529,1238,3034.75
29469,-5.6431,-0.0563,11.7531,1236,3034.75
29474,0.7075,2.976,8.0182,1231,3034.9
29479,3.31,3.6236,9.8809,1235,3034.9
29484,-1.6328,-0.4741,13.7248,1239,3034.9
29489,-5.7257,0.2107,11.4718,1233,3034.9
29494,1.0331,3.0119,8.023,1231,3034.9
29499,3.2825,3.474,10.0724,1236,3034.9
29504,-1.8771,-0.7638,13.8086,1238,3034.9
29509,-5.6838,0.4992,11.315,1235,3034.9
29514,1.2773,3.1161,8.0924,1225,3034.9
29519,3.2513,3.383,10.3154,1239,3034.9
29524,-2.1105,-0.9625,13.7762,1239,3034.9
29529,-5.6192,0.7482,11.0145,1238,3034.9
29534,1.4401,3.1711,8.1511,1235,3034.59
29539,3.1975,3.2262,10.5201,1233,3034.59
29544,-2.314,-1.1863,13.8672,1237,3034.59
29549,-5.5115,1.008,10.7763,1241,3034.59
29554,1.6233,3.2406,8.1942,1234,3034.9
29559,3.0765,3.0921,10.6578,1235,3034.9
29564,-2.557,-1.3779,13.8409,1235,3034.9
29569,-5.3798,1.2103,10.483,1241,3034.9
29574,1.7633,3.3531,8.2899,1235,3034.59
29579,2.8647,2.909,10.8649,1244,3034.59
29584,-2.7904,-1.5658,13.8529,1235,3034.59
29589,-5.1811,1.4317,10.307,1241,3034.59
29594,1.9046,3.4692,8.3462,1241,3034.59
29599,2.636,2.7138,11.0804,1235,3034.59
29604,-2.9987,-1.6652,13.7858,1236,3034.59
29609,-4.9189,1.5909,10.0377,1237,3034.59
29614,1.9776,3.4429,8.406,1237,3034.59
29619,2.3499,2.5247,11.3318,1240,3034.59
29624,-3.3028,-1.8112,13.696,1234,3034.59
29629,-4.5873,1.7873,9.76,1240,3035.21
29634,2.1225,3.5219,8.5054,1237,3035.21
29639,2.0267,2.2972,11.5772,1245,3035.21
29644,-3.4955,-1.8591,13.6338,1235,3035.21
29649,-4.2713,1.9201,9.4786,1237,3035.21
29654,2.2027,3.5686,8.5665,1226,3035.21
29659,1.6424,2.0949,11.8058,1239,3035.21
29664,-3.7134,-1.9285,13.5632,1241,3035.21
29669,-3.8822,2.0303,9.2261,1237,3034.44
29674,2.2697,3.6607,8.6287,1239,3034.44
29679,1.2989,1.9034,11.9303,1235,3034.44
29684,-3.9337,-1.9441,13.5392,1243,3034.44
29689,-3.456,2.138,9.0656,1237,3034.75
29694,2.3846,3.717,8.7269,1235,3034.75
29699,0.8535,1.725,12.1374,1237,3034.75
29704,-4.1779,-1.8507,13.3237,1243,3034.75
29709,-3.0203,2.235,8.8334,1235,3034.59
29714,2.4241,3.7493,8.7783,1238,3034.59
29719,0.5734,1.5203,12.3996,1232,3034.59
29724,-4.3419,-1.8423,13.204,1235,3034.59
29729,-2.575,2.308,8.746,1237,3034.59
29734,2.5438,3.7757,8.8274,1240,3034.59
29739,0.2059,1.3024,12.5121,1239,3034.59
29744,-4.5574,-1.7214,13.0975,1237,3034.59
29749,-2.1165,2.4157,8.5509,1235,3034.44
29754,2.5774,3.8152,8.9567,1241,3034.44
29759,-0.0778,1.1349,12.7192,1230,3034.44
29764,-4.7142,-1.555,12.955,1233,3034.44
29769,-1.6963,2.5067,8.3821,1235,3034.44
29774,2.7282,3.8702,9.0944,1235,3034.44
29779,-0.4226,0.8966,12.9155,1239,3034.44
29784,-4.9141,-1.4138,12.7563,1238,3034.44
29789,-1.2617,2.5642,8.2756,1237,3034.75
29794,2.818,3.8439,9.1877,1231,3034.75
29799,-0.5962,0.7278,13.0951,1239,3034.75
29804,-5.0889,-1.1995,12.6426,1239,3034.75
29809,-0.8392,2.6683,8.2013,1231,3035.21
29814,2.8826,3.8307,9.2332,1235,3035.21
29819,-0.8703,0.5483,13.301,1235,3035.21
29824,-5.223,-0.9996,12.5061,1243,3035.21
29829,-0.5124,2.7665,8.0649,1225,3035.21
29834,2.988,3.8056,9.3865,1237,3035.21
29839,-1.0223,0.3089,13.4159,1237,3035.21
29844,-5.4468,-0.7374,12.2392,1239,3035.21
29849,-0.0898,2.7773,8.0373,1237,3035.21
29854,3.0562,3.7757,9.5696,1238,3035.21
29859,-1.2198,0.0634,13.4806,1229,3035.21
29864,-5.5055,-0.4932,12.0728,1239,3035.21
29869,0.2406,2.8347,8.0361,1239,3035.52
29874,3.2226,3.7362,9.6702,1231,3035.52
29879,-1.4018,-0.1317,13.623,1237,3035.52
29884,-5.6743,-0.1676,11.8453,1236,3035.52
29889,0.5794,2.8695,8.0433,1240,3035.98
29894,3.2286,3.6356,9.8031,1240,3035.98
29899,-1.634,-0.4034,13.7607,1240,3035.98
29904,-5.7581,0.0802,11.5604,1239,3035.98
29909,0.8751,3.0622,8.0565,1236,3035.82
29914,3.2645,3.5362,9.9862,1237,3035.82
29919,-1.8328,-0.6237,13.7846,1237,3035.82
29924,-5.7497,0.3675,11.3701,1237,3035.82
29929,1.1564,3.0909,8.0972,1236,3035.67
29934,3.2525,3.3914,10.1155,1235,3035.67
29939,-2.0554,-0.8978,13.8732,1240,3035.67
29944,-5.6946,0.6404,11.1175,1235,3035.67
29949,1.3587,3.1891,8.0625,1239,3035.98
29954,3.2046,3.3208,10.4184,1235,3035.98
29959,-2.2924,-1.0965,13.878,1240,3035.98
29964,-5.5869,0.9074,10.8565,1243,3035.98
29969,1.5526,3.2286,8.2085,1235,3036.28
29974,3.0921,3.1436,10.5788,1231,3036.28
29979,-2.484,-1.2917,13.866,1237,3036.28
29984,-5.4624,1.1504,10.6099,1244,3036.28
29989,1.6867,3.3016,8.2181,1235,3036.59
29994,2.9257,2.982,10.8002,1240,3036.59
29999,-2.7689,-1.5107,13.9055,1230,3036.59
30004,-5.2421,1.3934,10.325,1244,3036.59
30009,1.8675,3.4261,8.333,1237,3036.59
30014,2.6935,2.7892,11.0289,1239,3036.59
30019,-2.9604,-1.6436,13.8062,1237,3036.59
30024,-4.9835,1.5634,10.0401,1239,3036.59
30029,1.9561,3.456,8.4372,1240,3036.59
30034,2.3966,2.5941,11.248,1237,3036.59
30039,-3.2597,-1.7478,13.7487,1235,3036.59
30044,-4.6783,1.7142,9.7839,1239,3036.59
30049,2.0913,3.5398,8.4946,1235,3036.44
30054,2.0758,2.3367,11.5568,1242,3036.44
30059,-3.5303,-1.8687,13.7104,1231,3036.44
30064,-4.3179,1.9465,9.5529,1240,3035.98
30069,2.2087,3.5889,8.5186,1235,3035.98
30074,1.7095,2.1608,11.7184,1240,3035.98
30079,-3.7242,-1.8759,13.6086,1238,3035.98
30084,-3.96,2.083,9.2967,1231,3036.44
30089,2.2877,3.6787,8.6754,1237,3036.44
30094,1.3276,1.9178,11.904,1235,3036.44
30099,-3.9433,-1.919,13.5189,1243,3036.44
30104,-3.4931,2.1691,9.0214,1237,3035.67
30109,2.4181,3.7302,8.7269,1237,3035.67
30114,0.9122,1.7023,12.1386,1231,3035.67
30119,-4.1767,-1.8783,13.4063,1244,3035.67
30124,-3.0047,2.2434,8.8789,1237,3035.67
30129,2.472,3.7493,8.7831,1237,3035.67
30134,0.5207,1.4796,12.3277,1233,3035.67
30139,-4.367,-1.8028,13.2196,1230,3035.67
30144,-2.5702,2.3547,8.6514,1239,3034.9
30149,2.5486,3.7745,8.8645,1238,3034.9
30154,0.176,1.3156,12.6186,1235,3034.9
30159,-4.5406,-1.6795,13.0867,1234,3034.9
30164,-2.0794,2.4181,8.5042,1239,3035.67
30169,2.6324,3.8199,8.9591,1233,3035.67
30174,-0.1616,1.1169,12.7348,1235,3035.67
30179,-4.7226,-1.5766,12.9347,1237,3035.67
30184,-1.6759,2.4636,8.3665,1238,3034.9
30189,2.7174,3.8152,9.104,1237,3034.9
30194,-0.4094,0.8871,12.876,1237,3034.9
30199,-4.9333,-1.397,12.821,1230,3034.9
30204,-1.233,2.5786,8.2935,1235,3034.75
30209,2.8479,3.808,9.1674,1235,3034.75
30214,-0.6572,0.6752,13.1011,1235,3034.75
30219,-5.0482,-1.2115,12.6713,1237,3034.75
30224,-0.832,2.6468,8.1738,1238,3034.75
30229,2.8862,3.8223,9.2763,1235,3034.75
30234,-0.82,0.5088,13.2639,1239,3034.75
30239,-5.2613,-0.9349,12.457,1241,3034.75
30244,-0.4417,2.7438,8.0984,1245,3034.9
30249,3.0107,3.8379,9.3541,1233,3034.9
30254,-1.0175,0.3124,13.4219,1238,3034.9
30259,-5.4121,-0.7614,12.2811,1229,3034.9
30264,-0.0994,2.7952,8.0709,1237,3035.36
30269,3.0789,3.7553,9.5086,1239,3035.36
30274,-1.2103,0.0599,13.4674,1231,3035.36
30279,-5.4983,-0.4537,12.068,1238,3035.36
30284,0.2765,2.8587,8.0565,1240,3034.9
30289,3.1687,3.7505,9.6989,1235,3034.9
30294,-1.4006,-0.158,13.5739,1236,3034.9
30299,-5.6132,-0.1867,11.8154,1237,3034.9
30304,0.5997,2.9281,7.993,1241,3034.75
30309,3.2214,3.6595,9.8689,1239,3034.75
30314,-1.6053,-0.3735,13.6888,1236,3034.75
30319,-5.6922,0.0958,11.6681,1236,3034.75
30324,0.8452,2.9772,8.0397,1236,3034.9
30329,3.2417,3.5566,9.9587,1227,3034.9
30334,-1.8028,-0.6512,13.7607,1235,3034.9
30339,-5.7317,0.3831,11.3617,1236,3034.9
30344,1.1289,3.0873,8.0613,1234,3035.05
30349,3.2597,3.4345,10.2089,1237,3035.05
30354,-1.9788,-0.8559,13.8277,1237,3035.05
30359,-5.7162,0.6572,11.1821,1237,3035.05
30364,1.33,3.1436,8.1558,1239,3034.9
30369,3.1771,3.3423,10.4112,1236,3034.9
30374,-2.2194,-1.0834,13.8529,1237,3034.9
30379,-5.6216,0.899,10.8852,1239,3034.9
30384,1.5347,3.2406,8.1415,1240,3034.59
30389,3.0789,3.1603,10.6267,1229,3034.59
30394,-2.4708,-1.2773,13.8469,1237,3034.59
30399,-5.4504,1.1408,10.635,1243,3034.59
30404,1.6712,3.3327,8.2085,1238,3034.59
30409,2.9042,3.0526,10.8445,1237,3034.59
30414,-2.6384,-1.4856,13.8122,1234,3034.59
30419,-5.2756,1.3276,10.3896,1243,3034.59
30424,1.8232,3.3842,8.3115,1237,3034.44
30429,2.727,2.8419,10.9798,1239,3034.44
30434,-2.8766,-1.664,13.8361,1237,3034.44
30439,-5.0182,1.5479,10.1287,1243,3034.44
30444,1.9369,3.4488,8.3821,1241,3034.29
30449,2.5127,2.636,11.1725,1230,3034.29
30454,-3.1903,-1.7406,13.7966,1235,3034.29
30459,-4.8363,1.658,9.8545,1237,3034.29
30464,2.0578,3.474,8.4527,1241,3034.44
30469,2.1859,2.4337,11.3928,1239,3034.44
30474,-3.4261,-1.8699,13.6865,1234,3034.44
30479,-4.4149,1.8663,9.6403,1239,3034.29
30484,2.1512,3.5925,8.4731,1238,3034.29
30489,1.8208,2.2901,11.6562,1243,3034.29
30494,-3.5925,-1.9034,13.5679,1235,3034.29
30499,-4.0821,1.9836,9.3745,1239,3034.75
30504,2.229,3.6176,8.6012,1240,3034.75
30509,1.5036,1.9656,11.8357,1243,3034.75
30514,-3.8331,-1.9537,13.562,1239,3034.75
30519,-3.6284,2.1201,9.165,1236,3034.59
30524,2.3343,3.7182,8.673,1239,3034.59
30529,1.1408,1.834,12.0153,1238,3034.59
30534,-4.0043,-1.9022,13.4183,1241,3034.59
30539,-3.2358,2.1668,8.9471,1236,3034.44
30544,2.4385,3.7541,8.7065,1241,3034.44
30549,0.7087,1.555,12.2487,1237,3034.44
30554,-4.2018,-1.9094,13.2627,1239,3034.44
30559,-2.7617,2.2805,8.7783,1237,3034.9
30564,2.5175,3.7673,8.8693,1239,3034.9
30569,0.3376,1.4006,12.4642,1240,3034.9
30574,-4.4161,-1.7585,13.1921,1236,3034.9
30579,-2.4134,2.3128,8.5868,1241,3035.82
30584,2.5498,3.814,8.8729,1241,3035.82
30589,0.0311,1.1839,12.6857,1233,3035.82
30594,-4.6579,-1.6173,12.9909,1231,3035.82
30599,-1.9082,2.49,8.4348,1238,3036.74
30604,2.642,3.8211,9.001,1242,3036.74
30609,-0.2263,0.9756,12.8964,1235,3036.74
30614,-4.8255,-1.4353,12.8317,1235,3036.74
30619,-1.4664,2.5367,8.3522,1238,3037.21
30624,2.7126,3.8235,9.0944,1239,3037.21
30629,-0.5734,0.7733,13.0161,1239,3037.21
30634,-5.0601,-1.2546,12.7108,1234,3037.21
30639,-0.9972,2.636,8.1618,1235,3036.74
30644,2.9149,3.863,9.1985,1236,3036.74
30649,-0.7254,0.5578,13.2004,1239,3036.74
30654,-5.211,-0.9876,12.4953,1239,3036.74
30659,-0.5698,2.6971,8.157,1238,3036.28
30664,2.9485,3.8176,9.341,1239,3036.28
30669,-0.9972,0.3256,13.4135,1235,3036.28
30674,-5.3439,-0.7961,12.3337,1239,3036.28
30679,-0.1796,2.7677,8.0266,1236,3035.82
30684,3.0478,3.8044,9.4248,1239,3035.82
30689,-1.142,0.1137,13.5428,1235,3035.82
30694,-5.4959,-0.571,12.1422,1239,3035.82
30699,0.1879,2.8539,8.0397,1240,3035.52
30704,3.1208,3.7326,9.5852,1235,3035.52
30709,-1.3515,-0.1293,13.6051,1235,3035.52
30714,-5.6264,-0.2921,11.8214,1235,3035.52
30719,0.5148,2.8922,7.9691,1241,3035.36
30724,3.2058,3.7254,9.8653,1236,3035.36
30729,-1.5574,-0.31,13.7439,1234,3035.36
30734,-5.6778,-0.0012,11.7196,1237,3035.36
30739,0.8128,2.9604,8.09,1245,3035.21
30744,3.2609,3.5781,9.9395,1240,3035.21
30749,-1.7873,-0.5531,13.7236,1235,3035.21
30754,-5.7233,0.2765,11.4239,1239,3035.21
30759,1.0271,3.037,8.0589,1239,3035.36
30764,3.2585,3.4512,10.155,1239,3035.36
30769,-1.9656,-0.7614,13.8301,1234,3035.36
30774,-5.715,0.5866,11.1378,1235,3035.36
30779,1.318,3.1412,8.1331,1235,3035.21
30784,3.2022,3.3315,10.3274,1239,3035.21
30789,-2.144,-1.0068,13.866,1235,3035.21
30794,-5.6072,0.838,10.9571,1235,3035.21
30799,1.4712,3.2453,8.1834,1235,3035.21
30804,3.128,3.1903,10.5465,1237,3035.21
30809,-2.3882,-1.2677,13.8457,1237,3035.21
30814,-5.5067,1.0965,10.6566,1241,3035.21
30819,1.6987,3.2813,8.1882,1237,3035.05
30824,3.0035,3.0394,10.726,1237,3035.05
30829,-2.6073,-1.4617,13.8732,1239,3035.05
30834,-5.3367,1.2977,10.4411,1242,3035.05
30839,1.8196,3.3543,8.3031,1237,3035.05
30844,2.8168,2.8635,10.9822,1235,3035.05
30849,-2.9353,-1.5826,13.8062,1235,3035.05
30854,-5.0913,1.5311,10.1574,1244,3035.05
30859,1.9632,3.4237,8.3845,1238,3035.05
30864,2.5223,2.6205,11.1594,1239,3035.05
30869,-3.1089,-1.7178,13.8157,1237,3035.05
30874,-4.8088,1.6747,9.9826,1237,3035.05
30879,2.0111,3.4848,8.491,1243,3035.05
30884,2.2601,2.4612,11.3844,1239,3035.05
30889,-3.3734,-1.798,13.7367,1230,3035.05
30894,-4.5502,1.8112,9.6498,1235,3035.05
30899,2.0973,3.541,8.4827,1235,3034.44
30904,1.9345,2.2374,11.637,1243,3034.44
30909,-3.5386,-1.9369,13.6469,1235,3034.44
30914,-4.1228,1.986,9.4822,1237,3034.13
30919,2.2051,3.5781,8.5437,1237,3034.13
30924,1.5526,2.0411,11.8681,1245,3034.13
30929,-3.7936,-1.9034,13.5524,1237,3034.13
30934,-3.7385,2.0853,9.2428,1239,3034.13
30939,2.2805,3.6787,8.6443,1237,3034.13
30944,1.1025,1.81,12.0847,1240,3034.13
30949,-3.9863,-1.9273,13.4686,1239,3034.13
30954,-3.2765,2.2051,8.9747,1231,3034.13
30959,2.3822,3.7421,8.6921,1240,3034.13
30964,0.7626,1.6125,12.1793,1239,3034.13
30969,-4.2258,-1.8926,13.3405,1243,3034.13
30974,-2.9149,2.2565,8.8155,1239,3034.13
30979,2.5019,3.7888,8.8753,1239,3034.13
30984,0.3675,1.4365,12.4367,1231,3034.13
30989,-4.3766,-1.7957,13.2112,1235,3034.13
30994,-2.4768,2.3619,8.6275,1237,3034.13
30999,2.5594,3.7864,8.8585,1238,3034.13
31004,0.0383,1.2845,12.5887,1239,3034.13
31009,-4.6076,-1.6316,13.1095,1237,3034.13
31014,-2.0554,2.4169,8.4707,1228,3034.13
31019,2.5881,3.8463,8.9687,1238,3034.13
31024,-0.2155,1.0702,12.8245,1239,3034.13
31029,-4.7704,-1.5179,12.8676,1235,3034.13
31034,-1.6221,2.49,8.3187,1237,3033.83
31039,2.721,3.8104,9.1075,1239,3033.83
31044,-0.4345,0.8954,12.9502,1239,3033.83
31049,-4.9285,-1.3192,12.7838,1237,3033.83
31054,-1.2007,2.6145,8.2121,1234,3033.37
31059,2.7342,3.8259,9.2165,1240,3033.37
31064,-0.7207,0.6584,13.1035,1239,3033.37
31069,-5.0901,-1.1432,12.6115,1235,3033.37
31074,-0.8009,2.6695,8.1223,1235,3032.91
31079,2.8276,3.8068,9.335,1239,3032.91
31084,-0.893,0.4262,13.2615,1242,3032.91
31089,-5.2577,-0.9385,12.4103,1239,3032.91
31094,-0.4178,2.7473,8.0625,1237,3033.06
31099,2.9425,3.8607,9.4092,1237,3033.06
31104,-1.0307,0.2993,13.4267,1239,3033.06
31109,-5.3714,-0.7207,12.2104,1242,3033.06
31114,-0.067,2.7916,8.0038,1231,3032.6
31119,3.0562,3.7828,9.5301,1243,3032.6
31124,-1.2055,0.1053,13.5045,1237,3032.6
31129,-5.5031,-0.4465,12.0273,1239,3032.6
31134,0.2023,2.8706,8.0278,1237,3032.6
31139,3.1316,3.7218,9.7384,1240,3032.6
31144,-1.3659,-0.1496,13.5679,1239,3032.6
31149,-5.5605,-0.2502,11.9112,1239,3032.6
31154,0.5016,2.8647,8.0445,1239,3032.29
31159,3.1831,3.6835,9.8617,1239,3032.29
31164,-1.5886,-0.3053,13.6314,1237,3032.29
31169,-5.6707,0.0359,11.6622,1239,3032.29
31174,0.808,3.0203,8.0924,1241,3032.29
31179,3.201,3.6188,10.0341,1239,3032.29
31184,-1.7035,-0.5495,13.726,1241,3032.29
31189,-5.6623,0.3041,11.4311,1238,3032.29
31194,1.0439,3.0119,8.1128,1237,3032.14
31199,3.1807,3.5027,10.167,1237,3032.14
31204,-1.889,-0.7626,13.8014,1237,3032.14
31209,-5.703,0.5746,11.2312,1239,3032.14
31214,1.2641,3.1304,8.1283,1235,3032.29
31219,3.2022,3.377,10.3274,1237,3032.29
31224,-2.1392,-0.9577,13.8684,1239,3032.29
31229,-5.5881,0.7781,10.9918,1236,3032.29
31234,1.4497,3.2118,8.1822,1237,3032.6
31239,3.1448,3.2765,10.5333,1239,3032.6
31244,-2.3068,-1.1947,13.7738,1240,3032.6
31249,-5.5414,1.0175,10.817,1236,3032.6
31254,1.6352,3.2657,8.2396,1237,3032.45
31259,3.0095,3.1184,10.7368,1236,3032.45
31264,-2.5618,-1.3503,13.8397,1237,3032.45
31269,-5.3989,1.2186,10.5273,1235,3032.45
31274,1.7621,3.3555,8.2803,1239,3032.14
31279,2.8563,2.9305,10.8625,1239,3032.14
31284,-2.7497,-1.5407,13.8373,1242,3032.14
31289,-5.1655,1.415,10.2999,1241,3032.14
31294,1.8926,3.3938,8.3246,1237,3031.83
31299,2.6073,2.7581,11.1055,1237,3031.83
31304,-2.964,-1.6664,13.805,1231,3031.83
31309,-4.9285,1.5754,10.0473,1243,3031.83
31314,1.9537,3.5027,8.3941,1239,3031.37
31319,2.3547,2.545,11.2719,1239,3031.37
31324,-3.1795,-1.7466,13.7331,1237,3031.37
31329,-4.6567,1.7418,9.8114,1235,3031.37
31334,2.0949,3.5183,8.4683,1241,3031.22
31339,2.1249,2.4229,11.5125,1236,3031.22
31344,-3.3291,-1.8399,13.69,1238,3031.22
31349,-4.3586,1.8687,9.5864,1236,3031.22
31354,2.1368,3.5506,8.4743,1237,3031.37
31359,1.749,2.1895,11.6741,1243,3031.37
31364,-3.5578,-1.9154,13.5608,1235,3031.37
31369,-4.0294,1.9896,9.3877,1231,3031.53
31374,2.2565,3.6428,8.6131,1237,3031.53
31379,1.4485,2.0303,11.898,1243,3031.53
31384,-3.8415,-1.9597,13.5045,1241,3031.53
31389,-3.6679,2.0339,9.0812,1235,3031.99
31394,2.3343,3.7038,8.7089,1235,3031.99
31399,1.0618,1.8208,11.995,1243,3031.99
31404,-3.9313,-1.8962,13.4339,1241,3031.99
31409,-3.3148,2.1392,8.9639,1237,3031.99
31414,2.381,3.7314,8.8226,1238,3031.99
31419,0.7458,1.646,12.2499,1237,3031.99
31424,-4.1911,-1.9094,13.3381,1245,3031.99
31429,-2.8683,2.2434,8.7963,1235,3031.83
31434,2.4636,3.7421,8.8238,1241,3031.83
31439,0.3998,1.4257,12.39,1237,3031.83
31444,-4.3443,-1.834,13.1382,1251,3031.83
31449,-2.5079,2.3236,8.6514,1240,3031.99
31454,2.5331,3.7613,9.001,1237,3031.99
31459,0.1748,1.3048,12.6474,1235,3031.99
31464,-4.5274,-1.7178,12.9814,1241,3031.99
31469,-2.0913,2.3715,8.4443,1237,3032.29
31474,2.5893,3.79,9.0321,1239,3032.29
31479,-0.1748,1.1025,12.7719,1241,3032.29
31484,-4.7202,-1.5921,12.8844,1237,3032.29
31489,-1.6951,2.5091,8.321,1229,3032.29
31494,2.6049,3.8259,9.1028,1239,3032.29
31499,-0.4202,0.905,12.9131,1227,3032.29
31504,-4.8758,-1.3958,12.7934,1237,3032.29
31509,-1.2653,2.5283,8.2588,1230,3031.99
31514,2.7533,3.8379,9.2644,1237,3031.99
31519,-0.6225,0.7063,13.0831,1245,3031.99
31524,-5.0721,-1.2282,12.6139,1235,3031.99
31529,-0.8918,2.6073,8.2037,1235,3031.53
31534,2.8156,3.8307,9.2799,1237,3031.53
31539,-0.8547,0.5375,13.216,1243,3031.53
31544,-5.2218,-1.0163,12.4858,1235,3031.53
31549,-0.5471,2.7222,8.1307,1237,3031.53
31554,2.9125,3.8295,9.4128,1234,3031.53
31559,-1.0343,0.3783,13.3177,1241,3031.53
31564,-5.3439,-0.7889,12.3086,1240,3031.53
31569,-0.2298,2.7916,8.1008,1235,3031.68
31574,2.9856,3.8092,9.5421,1239,3031.68
31579,-1.172,0.1856,13.4063,1235,3031.68
31584,-5.5162,-0.5303,12.1159,1241,3031.68
31589,0.0934,2.7821,8.0972,1231,3032.14
31594,3.0873,3.7697,9.7252,1233,3032.14
31599,-1.3563,-0.0395,13.4913,1235,3032.14
31604,-5.5785,-0.2705,11.9662,1241,3032.14
31609,0.3855,2.8802,8.0816,1237,3032.45
31614,3.1699,3.7529,9.8043,1230,3032.45
31619,-1.4952,-0.2274,13.6685,1236,3032.45
31624,-5.6922,0.018,11.7184,1249,3032.45
31629,0.6776,3.0203,8.102,1241,3032.29
31634,3.128,3.6464,9.9012,1239,3032.29
31639,-1.6723,-0.4477,13.7499,1235,3032.29
31644,-5.709,0.2155,11.4994,1236,3032.29
31649,0.9325,3.0406,8.1355,1243,3032.29
31654,3.1951,3.5877,10.0568,1235,3032.29
31659,-1.8735,-0.662,13.7882,1240,3032.29
31664,-5.6862,0.4908,11.3605,1237,3032.29
31669,1.1911,3.1568,8.1056,1236,3031.68
31674,3.1591,3.4632,10.2604,1239,3031.68
31679,-2.0458,-0.8835,13.8098,1235,3031.68
31684,-5.6216,0.68,11.1103,1239,3031.68
31689,1.4341,3.213,8.1211,1239,3031.53
31694,3.1615,3.3734,10.4483,1235,3031.53
31699,-2.2685,-1.0582,13.8301,1235,3031.53
31704,-5.5019,0.9697,10.8589,1238,3031.53
31709,1.5826,3.3076,8.1714,1237,3031.99
31714,3.0837,3.1496,10.5584,1239,3031.99
31719,-2.405,-1.2617,13.8529,1241,3031.99
31724,-5.3822,1.1456,10.5943,1241,3031.99
31729,1.7071,3.3435,8.2229,1239,3031.99
31734,2.9305,3.0311,10.7799,1235,3031.99
31739,-2.624,-1.4353,13.8289,1240,3031.99
31744,-5.2493,1.3491,10.3729,1243,3031.99
31749,1.81,3.4225,8.3199,1229,3032.14
31754,2.7366,2.8156,10.9798,1239,3032.14
31759,-2.7988,-1.5886,13.8098,1235,3032.14
31764,-4.9859,1.4784,10.0904,1247,3032.14
31769,1.9944,3.4812,8.418,1237,3031.83
31774,2.5426,2.6456,11.1953,1239,3031.83
31779,-3.0263,-1.725,13.7906,1235,3031.83
31784,-4.7357,1.6185,9.9252,1251,3031.83
31789,2.1117,3.5159,8.4396,1244,3031.68
31794,2.2242,2.4301,11.3892,1237,3031.68
31799,-3.2441,-1.8399,13.6972,1235,3031.68
31804,-4.4927,1.7657,9.6067,1241,3031.68
31809,2.1572,3.5255,8.5497,1240,3031.83
31814,1.9369,2.2482,11.5772,1243,3031.83
31819,-3.4836,-1.9417,13.6589,1237,3031.83
31824,-4.1408,1.8962,9.3518,1242,3031.83
31829,2.2362,3.5853,8.5688,1235,3032.6
31834,1.6017,2.0315,11.728,1243,3032.6
31839,-3.6727,-1.9465,13.5404,1235,3032.6
31844,-3.8223,1.9632,9.1758,1241,3032.75
31849,2.2494,3.6129,8.7005,1235,3032.75
31854,1.2665,1.8938,11.9447,1244,3032.75
31859,-3.9097,-1.9788,13.4794,1241,3032.75
31864,-3.3555,2.0937,9.0237,1239,3032.75
31869,2.3499,3.6476,8.7556,1237,3032.75
31874,0.9206,1.6975,12.1709,1238,3032.75
31879,-4.1025,-1.9549,13.2842,1241,3032.75
31884,-3.0119,2.1668,8.8238,1239,3032.91
31889,2.3942,3.6751,8.8717,1237,3032.91
31894,0.5758,1.494,12.3493,1236,3032.91
31899,-4.3574,-1.8495,13.2256,1245,3032.91
31904,-2.6181,2.2793,8.6383,1227,3032.6
31909,2.4457,3.7649,8.928,1239,3032.6
31914,0.2095,1.2905,12.5121,1235,3032.6
31919,-4.4807,-1.7801,13.1142,1240,3032.6
31924,-2.2015,2.3834,8.497,1240,3032.6
31929,2.5079,3.7385,9.0405,1237,3032.6
31934,-0.1077,1.0762,12.7036,1235,3032.6
31939,-4.7417,-1.6568,12.9347,1237,3032.6
31944,-1.7549,2.472,8.3725,1244,3032.75
31949,2.6109,3.8463,9.1171,1237,3032.75
31954,-0.3986,0.9493,12.9275,1237,3032.75
31959,-4.9153,-1.4605,12.8317,1236,3032.75
31964,-1.4006,2.5343,8.2923,1240,3032.75
31969,2.7174,3.8128,9.1866,1239,3032.75
31974,-0.6213,0.7554,13.0412,1235,3032.75
31979,-5.1032,-1.2869,12.633,1238,3032.75
31984,-1.0104,2.624,8.2097,1235,3032.75
31989,2.7689,3.8918,9.2644,1235,3032.75
31994,-0.8152,0.5674,13.2136,1236,3032.75
31999,-5.2421,-1.0187,12.5061,1238,3032.75
32004,-0.6584,2.6719,8.1175,1237,3032.91
32009,2.8742,3.9061,9.4571,1235,3032.91
32014,-1.0068,0.3735,13.2782,1239,3032.91
32019,-5.357,-0.7566,12.3744,1237,3032.91
32024,-0.2514,2.7928,8.1128,1239,3032.75
32029,2.9808,3.9061,9.5361,1237,3032.75
32034,-1.1863,0.2047,13.4806,1230,3032.75
32039,-5.5019,-0.5267,12.1458,1243,3032.75
32044,0.0838,2.8359,8.0409,1235,3032.45
32049,3.0742,3.8367,9.6319,1237,3032.45
32054,-1.4054,0.0239,13.5787,1231,3032.45
32059,-5.5905,-0.2526,12.0392,1243,3032.45
32064,0.4405,2.9377,8.0697,1239,3032.91
32069,3.1244,3.7397,9.7863,1239,3032.91
32074,-1.5191,-0.1939,13.7164,1233,3032.91
32079,-5.6383,-0.0012,11.7531,1241,3032.91
32084,0.7003,3.0011,8.0517,1241,3033.21
32089,3.2394,3.6559,9.9252,1239,3033.21
32094,-1.6628,-0.3867,13.7403,1235,3033.21
32099,-5.6419,0.267,11.5293,1239,3033.21
32104,1.0211,3.1352,8.0613,1244,3033.06
32109,3.2429,3.6619,10.1071,1237,3033.06
32114,-1.8914,-0.6321,13.7738,1237,3033.06
32119,-5.6623,0.492,11.3294,1239,3033.06
32124,1.2031,3.1208,8.0385,1239,3033.37
32129,3.2621,3.456,10.2328,1238,3033.37
32134,-2.047,-0.8954,13.8157,1231,3033.37
32139,-5.5929,0.7338,11.0864,1239,3033.37
32144,1.4377,3.231,8.1116,1239,3033.37
32149,3.237,3.3459,10.3489,1229,3033.37
32154,-2.1979,-1.0918,13.8361,1235,3033.37
32159,-5.5091,0.9433,10.835,1237,3033.37
32164,1.5814,3.2657,8.175,1240,3033.06
32169,3.1316,3.1532,10.5967,1236,3033.06
32174,-2.3774,-1.3072,13.8624,1237,3033.06
32179,-5.3498,1.0977,10.5668,1241,3033.06
32184,1.7286,3.3184,8.2133,1238,3033.06
32189,2.9616,3.0071,10.7835,1235,3033.06
32194,-2.6456,-1.4676,13.8469,1239,3033.06
32199,-5.1822,1.2989,10.3525,1241,3033.06
32204,1.907,3.3411,8.3414,1239,3032.75
32209,2.721,2.7833,11.0385,1236,3032.75
32214,-2.8635,-1.6747,13.787,1237,3032.75
32219,-4.9488,1.4712,10.0916,1243,3032.75
32224,2.0446,3.4046,8.3965,1237,3033.21
32229,2.5546,2.5905,11.2779,1239,3033.21
32234,-3.1005,-1.7957,13.7691,1237,3033.21
32239,-4.7214,1.6269,9.8641,1244,3033.21
32244,2.0758,3.4764,8.4719,1240,3033.06
32249,2.2206,2.4062,11.4239,1237,3033.06
32254,-3.3507,-1.9273,13.6613,1236,3033.06
32259,-4.4065,1.7202,9.5936,1239,3033.06
32264,2.1787,3.4884,8.5653,1244,3032.91
32269,1.8495,2.1847,11.6203,1240,3032.91
32274,-3.5733,-1.968,13.6242,1237,3032.91
32279,-4.0797,1.913,9.4008,1241,3032.91
32284,2.1919,3.6021,8.6251,1239,3032.75
32289,1.476,1.9609,11.8309,1243,3032.75
32294,-3.7517,-2.0159,13.5057,1229,3032.75
32299,-3.6978,2.0458,9.1375,1236,3032.75
32304,2.3116,3.5865,8.6766,1236,3032.75
32309,1.1265,1.8196,12.0716,1241,3032.75
32314,-4.0043,-2.0004,13.3968,1237,3032.75
32319,-3.3243,2.138,8.9938,1241,3032.91
32324,2.3092,3.6476,8.7855,1239,3032.91
32329,0.7626,1.6017,12.1985,1240,3032.91
32334,-4.2006,-1.9668,13.2914,1243,3032.91
32339,-2.9473,2.2446,8.7783,1239,3033.06
32344,2.3535,3.6859,8.8837,1240,3033.06
32349,0.3974,1.3982,12.3816,1235,3033.06
32354,-4.4628,-1.8387,13.2411,1241,3033.06
32359,-2.5247,2.3367,8.6826,1239,3033.06
32364,2.4337,3.7661,8.9771,1241,3033.06
32369,0.0431,1.2151,12.6079,1237,3033.06
32374,-4.6172,-1.7478,13.0113,1239,3033.06
32379,-2.0937,2.4385,8.4587,1241,3032.91
32384,2.5319,3.8379,9.0549,1239,3032.91
32389,-0.2143,1.0846,12.8054,1239,3032.91
32394,-4.8435,-1.5155,12.9347,1231,3032.91
32399,-1.6747,2.5043,8.3474,1240,3032.6
32404,2.5821,3.8642,9.0716,1240,3032.6
32409,-0.4884,0.8847,12.967,1237,3032.6
32414,-4.9943,-1.3803,12.7623,1237,3032.6
32419,-1.2534,2.6121,8.278,1243,3032.45
32424,2.7102,3.9037,9.2045,1244,3032.45
32429,-0.6907,0.7087,13.1394,1237,3032.45
32434,-5.1248,-1.1803,12.6426,1237,3032.45
32439,-0.8894,2.6372,8.1535,1251,3032.45
32444,2.8455,3.9409,9.3087,1238,3032.45
32449,-0.9481,0.5315,13.1765,1240,3032.45
32454,-5.2373,-0.9577,12.5348,1235,3032.45
32459,-0.4609,2.7282,8.1403,1235,3032.6
32464,2.9796,3.9085,9.3853,1245,3032.6
32469,-1.063,0.3831,13.3824,1241,3032.6
32474,-5.3486,-0.7003,12.3002,1255,3032.6
32479,-0.146,2.788,8.0828,1237,3032.91
32484,3.037,3.8367,9.5181,1239,3032.91
32489,-1.245,0.1425,13.5284,1239,3032.91
32494,-5.4588,-0.4345,12.1326,1241,3032.91
32499,0.1879,2.8862,8.1247,1236,3032.91
32504,3.1316,3.7745,9.6845,1241,3032.91
32509,-1.3563,-0.0395,13.6003,1234,3032.91
32514,-5.5629,-0.1604,11.8693,1237,3032.91
32519,0.5435,2.9413,8.0038,1239,3032.91
32524,3.213,3.7086,9.7719,1239,3032.91
32529,-1.5359,-0.316,13.6458,1231,3032.91
32534,-5.6348,0.0227,11.6741,1239,3032.91
32539,0.7781,3.0203,8.0086,1239,3032.91
32544,3.2944,3.6775,9.9371,1239,3032.91
32549,-1.6807,-0.4944,13.7236,1235,3032.91
32554,-5.6336,0.2705,11.485,1239,3032.91
32559,1.081,3.0682,8.0505,1243,3032.6
32564,3.2944,3.4895,10.1191,1241,3032.6
32569,-1.8687,-0.7506,13.8038,1237,3032.6
32574,-5.6084,0.4992,11.2252,1239,3032.6
32579,1.2869,3.1699,8.0721,1243,3033.06
32584,3.2968,3.4081,10.2604,1237,3033.06
32589,-2.0279,-0.9397,13.8624,1234,3033.06
32594,-5.606,0.6931,10.9774,1239,3033.06
32599,1.4976,3.2178,8.1104,1237,3033.37
32604,3.1723,3.2334,10.471,1241,3033.37
32609,-2.2386,-1.1851,13.8277,1237,3033.37
32614,-5.4564,0.9062,10.6937,1239,3033.37
32619,1.6472,3.2525,8.1822,1241,3033.21
32624,3.0909,3.1161,10.6434,1237,3033.21
32629,-2.5007,-1.3683,13.8313,1237,3033.21
32634,-5.3738,1.1636,10.5117,1239,3033.21
32639,1.8076,3.298,8.2935,1239,3033.21
32644,2.903,2.9102,10.8804,1237,3033.21
32649,-2.6899,-1.5862,13.7882,1241,3033.21
32654,-5.1679,1.3934,10.2663,1243,3033.21
32659,1.9261,3.3698,8.3318,1231,3033.06
32664,2.6911,2.7198,11.0397,1238,3033.06
32669,-2.9748,-1.6831,13.7631,1237,3033.06
32674,-4.9464,1.5646,9.9898,1246,3033.06
32679,1.9872,3.4297,8.406,1236,3033.52
32684,2.393,2.4888,11.2647,1239,3033.52
32689,-3.152,-1.8519,13.7272,1227,3033.52
32694,-4.6519,1.6747,9.7648,1243,3033.52
32699,2.1296,3.4907,8.4467,1241,3033.98
32704,2.0806,2.3104,11.473,1240,3033.98
32709,-3.4524,-1.9549,13.6589,1240,3033.98
32714,-4.3503,1.8615,9.5289,1237,3033.98
32719,2.1536,3.5913,8.5569,1241,3033.67
32724,1.7023,2.1237,11.7519,1241,3033.67
32729,-2.6624,-1.5083,13.8145,1235,3033.67
32734,-5.266,1.3252,10.3645,1240,3033.67
32739,2.1895,3.5542,8.6514,1237,3033.52
32744,2.7761,2.8539,10.9834,1245,3033.52
32749,-2.9161,-1.6185,13.8708,1235,3033.52
32754,-5.0422,1.5,10.1023,1241,3032.91
32759,1.9345,3.456,8.3534,1236,3032.91
32764,2.4888,2.6492,11.1103,1245,3032.91
32769,-3.1352,-1.725,13.7487,1239,3032.91
32774,-4.7657,1.664,9.8881,1239,3033.21
32779,2.0458,3.4979,8.5198,1239,3033.21
32784,2.1775,2.4313,11.3713,1241,3033.21
32789,-3.3399,-1.8268,13.7248,1243,3033.21
32794,-4.464,1.7621,9.6738,1236,3033.37
32799,2.1237,3.5674,8.5653,1241,3033.37
32804,1.9201,2.2517,11.5927,1239,3033.37
32809,-3.565,-1.883,13.6338,1243,3033.37
32814,-4.1156,1.9297,9.4559,1241,3033.67
32819,2.2134,3.5698,8.6514,1240,3033.67
32824,1.4844,2.0363,11.8549,1239,3033.67
32829,-3.7505,-1.9692,13.4829,1241,3033.67
32834,-3.735,2.1117,9.2093,1229,3034.13
32839,2.3008,3.6883,8.6778,1239,3034.13
32844,1.1815,1.8507,12.0225,1240,3034.13
32849,-3.9935,-1.9261,13.5153,1237,3034.13
32854,-3.3148,2.1799,8.9699,1237,3034.75
32859,2.3272,3.7362,8.7412,1240,3034.75
32864,0.7913,1.5981,12.1901,1229,3034.75
32869,-4.1899,-1.8651,13.3429,1236,3034.75
32874,-2.8706,2.2637,8.7616,1237,3034.75
32879,2.5019,3.796,8.8729,1240,3034.75
32884,0.4465,1.4257,12.3828,1239,3034.75
32889,-4.4077,-1.7873,13.2531,1237,3034.75
32894,-2.4529,2.3499,8.6191,1235,3034.59
32899,2.5247,3.8355,8.9795,1241,3034.59
32904,0.0982,1.2438,12.5959,1240,3034.59
32909,-4.5885,-1.7047,13.0412,1236,3034.59
32914,-2.0027,2.3978,8.4755,1237,3034.75
32919,2.6659,3.8343,8.9735,1237,3034.75
32924,-0.1688,1.0918,12.7994,1243,3034.75
32929,-4.8088,-1.5538,12.9359,1239,3034.75
32934,-1.5814,2.4768,8.3234,1238,3034.9
32939,2.6959,3.8403,9.1111,1240,3034.9
32944,-0.5076,0.8212,12.9933,1239,3034.9
32949,-4.9404,-1.3575,12.7575,1239,3034.9
32954,-1.1648,2.5989,8.2384,1231,3034.9
32959,2.8252,3.8319,9.2225,1239,3034.9
32964,-0.6955,0.6704,13.0915,1235,3034.9
32969,-5.1092,-1.1289,12.6067,1239,3034.9
32974,-0.7302,2.6193,8.1247,1245,3034.75
32979,2.9066,3.8463,9.3326,1241,3034.75
32984,-0.9445,0.4621,13.2232,1237,3034.75
32989,-5.2708,-0.8799,12.4247,1239,3034.75
32994,-0.3448,2.7414,8.0984,1241,3034.9
32999,3.0574,3.8199,9.3996,1239,3034.9
33004,-1.057,0.2574,13.4817,1239,3034.9
33009,-5.442,-0.6716,12.2092,1237,3034.9
33014,0.0299,2.8395,8.0158,1239,3035.21
33019,3.0765,3.7589,9.4763,1242,3035.21
33024,-1.2665,0.0227,13.544,1237,3035.21
33029,-5.5366,-0.4334,12.0333,1239,3035.21
33034,0.3699,2.9113,8.0397,1235,3035.36
33039,3.1424,3.7421,9.7612,1242,3035.36
33044,-1.4329,-0.1939,13.6182,1239,3035.36
33049,-5.624,-0.1077,11.795,1237,3035.36
33054,0.6931,2.9257,7.9859,1231,3035.52
33059,3.2597,3.6296,9.8378,1239,3035.52
33064,-1.6269,-0.4573,13.7248,1239,3035.52
33069,-5.6898,0.1269,11.552,1237,3035.52
33074,0.9493,3.0251,8.0206,1235,3035.67
33079,3.2657,3.5506,10.0724,1237,3035.67
33084,-1.8423,-0.6728,13.7714,1237,3035.67
33089,-5.6958,0.4417,11.2635,1242,3035.67
33094,1.1839,3.0514,8.108,1237,3035.98
33099,3.2525,3.3531,10.2292,1239,3035.98
33104,-2.059,-0.9912,13.8517,1237,3035.98
33109,-5.6862,0.7266,11.0528,1243,3035.98
33114,1.4521,3.2525,8.1606,1243,3036.13
33119,3.1999,3.2801,10.4315,1240,3036.13
33124,-2.3032,-1.1684,13.9355,1235,3036.13
33129,-5.6036,0.9589,10.7871,1245,3036.13
33134,1.6484,3.2406,8.1989,1241,3035.98
33139,3.0849,3.0861,10.6255,1236,3035.98
33144,-2.5845,-1.397,13.8337,1238,3035.98
33149,-5.4408,1.2151,10.5177,1236,3035.98
33154,1.7873,3.31,8.1834,1237,3035.52
33159,2.9042,2.9113,10.8625,1241,3035.52
33164,-2.8431,-1.5622,13.8385,1229,3035.52
33169,-5.2098,1.421,10.3106,1237,3034.9
33174,1.9225,3.3818,8.2971,1251,3034.9
33179,2.6899,2.7294,11.1151,1253,3034.9
33184,-3.0813,-1.7633,13.8684,1237,3034.9
33189,-4.9057,1.6005,10.058,1238,3037.21
33194,2.0099,3.4812,8.3737,1234,3037.21
33199,2.3296,2.5486,11.3054,1241,3037.21
33204,-3.3124,-1.7885,13.799,1241,3037.21
33209,-4.6088,1.7406,9.7624,1237,3035.98
33214,2.0698,3.5614,8.4276,1238,3035.98
33219,1.9345,2.3188,11.5185,1241,3035.98
33224,-3.553,-1.9345,13.696,1245,3035.98
33229,-4.215,1.9094,9.4858,1239,3035.98
33234,2.1967,3.5925,8.5988,1240,3035.98
33239,1.6041,2.1093,11.7663,1237,3035.98
33244,-3.7757,-1.9118,13.6074,1243,3035.98
33249,-3.8319,2.0518,9.3158,1236,3035.36
33254,2.223,3.6368,8.5916,1237,3035.36
33259,1.2019,1.8375,12.0225,1237,3035.36
33264,-4.0151,-1.968,13.4997,1241,3035.36
33269,-3.3974,2.1811,8.9986,1240,3036.44
33274,2.3355,3.7385,8.7185,1237,3036.44
33279,0.8332,1.6987,12.2332,1235,3036.44
33284,-4.215,-1.8316,13.3968,1237,3036.44
33289,-3.0023,2.2769,8.8214,1235,3036.44
33294,2.4181,3.7924,8.8095,1240,3036.44
33299,0.3915,1.4485,12.3972,1237,3036.44
33304,-4.4137,-1.8435,13.228,1237,3036.44
33309,-2.5115,2.3451,8.5952,1236,3036.74
33314,2.5594,3.8451,8.8981,1238,3036.74
33319,0.1377,1.2857,12.645,1239,3036.74
33324,-4.6938,-1.6412,13.119,1238,3036.74
33329,-2.0315,2.4313,8.4707,1237,3036.74
33334,2.6169,3.8415,8.9759,1236,3036.74
33339,-0.2526,1.0116,12.8593,1237,3036.74
33344,-4.8076,-1.4808,12.949,1245,3036.74
33349,-1.5251,2.5283,8.3809,1237,3036.9
33354,2.7557,3.869,9.1004,1239,3036.9
33359,-0.4417,0.9014,13.0544,1239,3036.9
33364,-5.0254,-1.2773,12.7563,1243,3036.9
33369,-1.0439,2.5977,8.2049,1231,3036.59
33374,2.8335,3.8499,9.2021,1239,3036.59
33379,-0.7626,0.6141,13.1334,1237,3036.59
33384,-5.1799,-1.0774,12.5576,1240,3036.59
33389,-0.68,2.6899,8.1307,1243,3037.67
33394,2.9544,3.8786,9.3182,1239,3037.67
33399,-0.911,0.4381,13.3058,1239,3037.67
33404,-5.3654,-0.8499,12.3409,1238,3037.67
33409,-0.1999,2.8072,8.0313,1240,3037.05
33414,3.0897,3.7948,9.4379,1237,3037.05
33419,-1.1349,0.1664,13.4446,1241,3037.05
33424,-5.5055,-0.5614,12.1338,1240,3037.05
33429,0.1257,2.8347,7.9835,1243,3036.74
33434,3.201,3.7769,9.6211,1242,3036.74
33439,-1.3443,-0.0239,13.6278,1237,3036.74
33444,-5.5857,-0.2646,11.9339,1239,3036.74
33449,0.4788,2.9221,8.0397,1235,3036.9
33454,3.2585,3.7062,9.7324,1255,3036.9
33459,-1.4629,-0.2801,13.6853,1247,3036.9
33464,-5.6599,-0.0144,11.6502,1238,3036.9
33469,0.8092,2.9916,8.0445,1236,3036.9
33474,3.2968,3.5877,9.9156,1230,3036.9
33479,-1.6783,-0.5483,13.7511,1239,3036.9
33484,-5.6982,0.2777,11.4191,1239,3036.9
33489,1.0918,3.0311,7.9871,1235,3036.9
33494,3.3363,3.4824,10.1095,1234,3036.9
33499,-1.9034,-0.8188,13.7954,1241,3036.9
33504,-5.6958,0.5842,11.2037,1243,3036.9
33509,1.3204,3.1173,8.0792,1236,3036.59
33514,3.3112,3.2681,10.2831,1237,3036.59
33519,-2.1368,-1.0594,13.8445,1237,3036.59
33524,-5.6336,0.8595,10.902,1246,3036.59
33529,1.5431,3.2214,8.1451,1236,3036.28
33534,3.1783,3.1639,10.507,1240,3036.28
33539,-2.4014,-1.3288,13.8169,1237,3036.28
33544,-5.5246,1.0702,10.6087,1239,3036.28
33549,1.7238,3.2741,8.2097,1240,3036.44
33554,3.0095,2.982,10.7212,1236,3036.44
33559,-2.7102,-1.4916,13.8971,1230,3036.44
33564,-5.3187,1.257,10.3884,1237,3036.44
33569,1.8112,3.3806,8.2121,1240,3036.28
33574,2.7976,2.7665,10.9906,1247,3036.28
33579,-2.9892,-1.6221,13.866,1239,3036.28
33584,-5.0853,1.4952,10.161,1239,3036.13
33589,1.9178,3.3926,8.3222,1235,3036.13
33594,2.4948,2.5821,11.1725,1244,3036.13
33599,-3.1795,-1.8004,13.7427,1235,3036.13
33604,-4.7369,1.6747,9.8497,1236,3035.67
33609,1.9908,3.4477,8.4874,1231,3035.67
33614,2.1967,2.4265,11.4682,1237,3035.67
33619,-3.4465,-1.889,13.7128,1242,3035.67
33624,-4.4604,1.8495,9.6235,1241,3035.36
33629,2.0877,3.5027,8.5102,1239,3035.36
33634,1.7825,2.1763,11.661,1235,3035.36
33639,-3.6847,-1.9549,13.6781,1247,3035.36
33644,-4.0534,1.9573,9.3709,1241,3034.9
33649,2.162,3.6308,8.6443,1239,3034.9
33654,1.3838,1.9597,11.8597,1237,3034.9
33659,-3.893,-1.9381,13.5225,1243,3034.9
33664,-3.6488,2.071,9.1494,1237,3035.52
33669,2.2805,3.6715,8.7041,1235,3035.52
33674,1.0726,1.8004,12.1075,1235,3035.52
33679,-4.1384,-1.8926,13.4375,1239,3035.52
33684,-3.2585,2.2458,8.9447,1241,3035.52
33689,2.3391,3.7182,8.7819,1239,3035.52
33694,0.6656,1.6053,12.3433,1235,3035.52
33699,-4.3311,-1.8136,13.3393,1238,3035.52
33704,-2.8132,2.3236,8.746,1239,3035.82
33709,2.4732,3.8199,8.8502,1237,3035.82
33714,0.3124,1.3922,12.4894,1237,3035.82
33719,-4.5382,-1.6951,13.2004,1239,3035.82
33724,-2.3248,2.4253,8.5988,1234,3035.67
33729,2.5426,3.8882,8.9639,1237,3035.67
33734,0.0024,1.1971,12.6402,1239,3035.67
33739,-4.6986,-1.5814,13.0257,1238,3035.67
33744,-1.8208,2.4756,8.3893,1239,3035.67
33749,2.6719,3.8822,9.0513,1231,3035.67
33754,-0.31,0.9541,12.8581,1241,3035.67
33759,-4.9129,-1.4293,12.8652,1241,3035.67
33764,-1.4006,2.5714,8.3414,1239,3035.36
33769,2.7581,3.875,9.0836,1237,3035.36
33774,-0.565,0.8056,13.0376,1235,3035.36
33779,-5.0254,-1.1911,12.6857,1243,3035.36
33784,-0.9876,2.6085,8.2193,1231,3035.21
33789,2.8479,3.8463,9.2476,1238,3035.21
