timestamp_ms,ax,ay,az,acs_adc,rpm
13469,-1.8962,-0.9936,13.3225,1257,2973.24
13474,-4.9428,0.7422,10.7009,1262,2973.24
13479,1.227,3.2106,8.6479,1251,2973.39
13484,2.5738,3.5099,10.6614,1251,2973.39
13489,-1.7286,-0.8116,13.1909,1257,2973.39
13494,-4.9871,0.5183,10.8242,1260,2973.39
13499,1.081,3.1556,8.6131,1251,2973.09
13504,2.6264,3.5039,10.5584,1254,2973.09
13509,-1.6005,-0.6321,13.228,1257,2973.09
13514,-4.9572,0.2945,10.9595,1255,2973.09
13519,0.9206,3.0215,8.5102,1253,2973.24
13524,2.6959,3.6033,10.4184,1253,2973.24
13529,-1.4868,-0.4657,13.1753,1255,2973.24
13534,-4.9943,0.0778,11.145,1255,2973.24
13539,0.7195,2.9102,8.4707,1251,2973.09
13544,2.6276,3.6691,10.3884,1256,2973.09
13549,-1.4509,-0.3687,13.1262,1255,2973.09
13554,-4.9967,-0.1305,11.3018,1261,2973.09
13559,0.48,2.8527,8.4013,1255,2972.8
13564,2.6181,3.7194,10.3406,1255,2972.8
13569,-1.3707,-0.1784,13.0723,1255,2972.8
13574,-4.968,-0.3089,11.5041,1257,2972.8
13579,0.3244,2.7749,8.3761,1261,2973.09
13584,2.5295,3.8439,10.2244,1261,2973.09
13589,-1.3886,0.0012,13.064,1257,2973.09
13594,-4.8818,-0.4956,11.5831,1259,2973.09
13599,0.0587,2.721,8.4288,1261,2973.24
13604,2.5103,3.9025,10.1574,1259,2973.24
13609,-1.3683,0.2239,13.0376,1257,2973.24
13614,-4.8147,-0.595,11.7352,1259,2973.24
13619,-0.1293,2.7509,8.3953,1257,2973.68
13624,2.4983,3.9624,10.0149,1257,2973.68
13629,-1.3479,0.3543,12.9766,1254,2973.68
13634,-4.725,-0.7362,11.8681,1261,2973.68
13639,-0.3196,2.6959,8.4013,1259,2973.68
13644,2.4948,4.0103,10.0341,1259,2973.68
13649,-1.2402,0.559,12.8952,1256,2973.68
13654,-4.5789,-0.9541,12.0608,1263,2973.68
13659,-0.5555,2.5893,8.3582,1250,2973.68
13664,2.466,3.9947,9.9036,1256,2973.68
13669,-1.2079,0.6476,12.7491,1257,2973.68
13674,-4.4077,-1.1301,12.1374,1263,2973.68
13679,-0.8164,2.4756,8.3989,1253,2973.83
13684,2.4086,4.0055,9.8019,1256,2973.83
13689,-1.0965,0.7709,12.6534,1255,2973.83
13694,-4.3371,-1.3324,12.287,1273,2973.83
13699,-1.1432,2.4014,8.3857,1259,2973.68
13704,2.3224,3.9277,9.7636,1255,2973.68
13709,-1.008,0.917,12.615,1261,2973.68
13714,-4.209,-1.4581,12.3792,1257,2973.68
13719,-1.4042,2.3607,8.4982,1253,2973.83
13724,2.2266,3.8954,9.6857,1253,2973.83
13729,-0.8859,1.057,12.5324,1259,2973.83
13734,-4.1324,-1.561,12.4403,1255,2973.83
13739,-1.7837,2.3044,8.5042,1250,2973.98
13744,2.1703,3.9061,9.657,1257,2973.98
13749,-0.7973,1.1947,12.4283,1255,2973.98
13754,-4.0247,-1.6149,12.5684,1256,2973.98
13759,-1.9992,2.2745,8.6143,1251,2973.83
13764,2.1691,4.0259,9.6163,1255,2973.83
13769,-0.6273,1.3623,12.3038,1254,2973.83
13774,-3.8499,-1.6951,12.7683,1253,2973.83
13779,-2.2517,2.1787,8.7017,1253,2974.42
13784,2.1679,3.9935,9.5708,1256,2974.42
13789,-0.3759,1.5095,12.1949,1255,2974.42
13794,-3.7553,-1.7657,12.7611,1253,2974.42
13799,-2.5139,2.1799,8.7712,1253,2974.13
13804,2.1703,3.9133,9.4284,1255,2974.13
13809,-0.1496,1.5981,12.1446,1255,2974.13
13814,-3.5446,-1.8519,12.7659,1255,2974.13
13819,-2.7641,2.053,8.837,1253,2973.39
13824,2.1404,3.8415,9.3865,1251,2973.39
13829,0.1389,1.7131,12.0536,1255,2973.39
13834,-3.3866,-1.8962,12.8844,1257,2973.39
13839,-3.0107,1.9453,8.9699,1252,2974.71
13844,2.077,3.7697,9.341,1257,2974.71
13849,0.4274,1.8747,11.9052,1255,2974.71
13854,-3.1735,-1.9776,12.9885,1262,2974.71
13859,-3.2944,1.8579,9.0621,1256,2974.27
13864,2.0087,3.723,9.3254,1257,2974.27
13869,0.6764,1.9692,11.7879,1257,2974.27
13874,-3.0909,-1.9573,12.9838,1263,2974.27
13879,-3.5506,1.7657,9.2285,1255,2974.42
13884,1.9453,3.7122,9.2871,1255,2974.42
13889,0.8559,2.1536,11.716,1259,2974.42
13894,-2.9676,-1.9154,13.0975,1258,2974.42
13899,-3.7984,1.6987,9.3877,1254,2974.57
13904,1.8627,3.6045,9.1866,1251,2974.57
13909,1.0894,2.3212,11.5879,1262,2974.57
13914,-2.8347,-1.8459,13.1262,1257,2974.57
13919,-4.027,1.6352,9.5217,1257,2974.13
13924,1.8292,3.6045,9.1279,1251,2974.13
13929,1.3659,2.4469,11.4958,1277,2974.13
13934,-2.6779,-1.7789,13.1944,1252,2974.13
13939,-4.2353,1.5742,9.6666,1257,2974.13
13944,1.8016,3.5733,9.0345,1253,2974.13
13949,1.6436,2.6252,11.3318,1263,2974.13
13954,-2.4912,-1.6903,13.1226,1252,2974.13
13959,-4.3622,1.4521,9.815,1256,2974.13
13964,1.7873,3.5015,9.0094,1256,2973.68
13969,1.9178,2.7533,11.236,1259,2973.68
13974,-2.3798,-1.5909,13.222,1255,2973.68
13979,-4.5334,1.2534,9.9707,1256,2973.68
13984,1.7011,3.3914,8.9208,1255,2974.13
13989,2.1201,2.8718,11.0911,1257,2974.13
13994,-2.1979,-1.4964,13.1741,1254,2974.13
13999,-4.713,1.1037,10.1179,1261,2974.13
14004,1.6185,3.3052,8.7771,1254,2974.27
14009,2.2482,2.9892,10.987,1257,2974.27
14014,-2.1141,-1.3934,13.2363,1251,2974.27
14019,-4.8016,0.9373,10.343,1263,2974.27
14024,1.4868,3.2453,8.7364,1253,2974.27
14029,2.3523,3.1113,10.902,1255,2974.27
14034,-2.0171,-1.2175,13.2519,1253,2974.27
14039,-4.9368,0.8176,10.4914,1263,2974.27
14044,1.3551,3.1927,8.7113,1252,2974.57
14049,2.4529,3.2848,10.8386,1256,2974.57
14054,-1.8998,-1.0606,13.2495,1253,2974.57
14059,-5.0015,0.7039,10.6147,1259,2974.57
14064,1.2115,3.1196,8.6874,1244,2974.86
14069,2.5331,3.3926,10.7093,1255,2974.86
14074,-1.8352,-0.8918,13.3393,1257,2974.86
14079,-5.0434,0.5567,10.823,1255,2974.86
14084,1.1325,3.128,8.606,1253,2974.71
14089,2.6097,3.4991,10.6183,1255,2974.71
14094,-1.7035,-0.6644,13.2902,1255,2974.71
14099,-5.041,0.3795,10.9295,1252,2974.71
14104,0.9852,3.0454,8.5365,1252,2974.71
14109,2.6791,3.5662,10.5237,1256,2974.71
14114,-1.6065,-0.5351,13.21,1255,2974.71
14119,-4.9799,0.2406,11.157,1255,2974.71
14124,0.8416,3.0323,8.4647,1251,2974.57
14129,2.6995,3.6715,10.4363,1257,2974.57
14134,-1.5335,-0.3196,13.2076,1255,2974.57
14139,-4.9524,0.0024,11.2958,1255,2974.57
14144,0.6596,2.903,8.3857,1253,2974.27
14149,2.6719,3.7314,10.3262,1257,2974.27
14154,-1.5,-0.2119,13.1741,1256,2974.27
14159,-4.9069,-0.1832,11.4036,1271,2974.27
14164,0.4214,2.8168,8.3629,1254,2973.98
14169,2.6049,3.8032,10.2292,1258,2973.98
14174,-1.3994,-0.0622,13.0855,1259,2973.98
14179,-4.8937,-0.4417,11.5855,1253,2973.98
14184,0.1796,2.7509,8.4695,1258,2973.54
14189,2.5893,3.8283,10.1825,1261,2973.54
14194,-1.3695,0.1281,13.0221,1253,2973.54
14199,-4.8399,-0.5914,11.6945,1257,2973.54
14204,-0.0072,2.7521,8.3893,1257,2973.54
14209,2.484,3.9397,10.149,1256,2973.54
14214,-1.3455,0.3089,12.9335,1247,2973.54
14219,-4.7681,-0.7314,11.8453,1257,2973.54
14224,-0.2298,2.6647,8.4252,1257,2973.09
14229,2.411,3.966,10.0449,1257,2973.09
14234,-1.324,0.4764,12.8868,1255,2973.09
14239,-4.6412,-0.8882,12.0321,1263,2973.09
14244,-0.5231,2.5762,8.3761,1251,2973.09
14249,2.4457,4.0247,9.9587,1259,2973.09
14254,-1.2821,0.6608,12.8233,1257,2973.09
14259,-4.5191,-1.0271,12.1242,1261,2973.09
14264,-0.7554,2.5331,8.4539,1253,2973.24
14269,2.387,3.9816,9.9156,1259,2973.24
14274,-1.1768,0.8033,12.7168,1259,2973.24
14279,-4.367,-1.1648,12.2068,1261,2973.24
14284,-1.0247,2.4756,8.4563,1255,2973.39
14289,2.3894,3.9564,9.8462,1255,2973.39
14294,-1.0439,0.9337,12.6713,1259,2973.39
14299,-4.2545,-1.3791,12.3289,1256,2973.39
14304,-1.2486,2.3918,8.4204,1253,2973.24
14309,2.3284,3.9385,9.7312,1259,2973.24
14314,-0.9146,0.996,12.487,1251,2973.24
14319,-4.1001,-1.5024,12.451,1258,2973.24
14324,-1.6149,2.3044,8.5677,1251,2973.24
14329,2.2577,3.9313,9.7061,1257,2973.24
14334,-0.7709,1.1732,12.4271,1257,2973.24
14339,-4.0151,-1.6017,12.5121,1257,2973.24
14344,-1.9094,2.2505,8.5401,1255,2972.65
14349,2.1763,3.9145,9.5744,1263,2972.65
14354,-0.6452,1.2462,12.3696,1257,2972.65
14359,-3.8666,-1.6592,12.6797,1255,2972.65
14364,-2.1356,2.1608,8.7017,1255,2973.68
14369,2.1237,3.9014,9.511,1261,2973.68
14374,-0.4477,1.4724,12.2763,1255,2973.68
14379,-3.7541,-1.7765,12.6773,1256,2973.68
14384,-2.4576,2.1835,8.7149,1255,2973.09
14389,2.0578,3.8654,9.4942,1257,2973.09
14394,-0.2083,1.561,12.159,1255,2973.09
14399,-3.6152,-1.7945,12.797,1257,2973.09
14404,-2.727,2.0674,8.8873,1253,2973.24
14409,2.0494,3.8307,9.4499,1257,2973.24
14414,0.0862,1.7226,12.0428,1257,2973.24
14419,-3.4201,-1.8112,12.8904,1258,2973.24
14424,-3.0215,1.9776,8.9112,1257,2973.09
14429,2.077,3.7936,9.3972,1259,2973.09
14434,0.3484,1.8675,11.8812,1255,2973.09
14439,-3.2609,-1.8567,12.9215,1268,2973.09
14444,-3.2777,1.8866,9.0609,1256,2972.5
14449,2.1177,3.7661,9.3553,1259,2972.5
14454,0.6404,1.986,11.7771,1262,2972.5
14459,-3.0634,-1.913,12.9179,1260,2972.5
14464,-3.5494,1.8256,9.1901,1261,2973.09
14469,1.9932,3.6643,9.268,1256,2973.09
14474,0.9146,2.1823,11.6634,1260,2973.09
14479,-2.9102,-1.8926,13.0304,1259,2973.09
14484,-3.814,1.6963,9.408,1261,2972.8
14489,1.9321,3.6272,9.1925,1259,2972.8
14494,1.2258,2.3152,11.582,1267,2972.8
14499,-2.7701,-1.8543,13.028,1255,2972.8
14504,-4.0211,1.6125,9.5445,1259,2973.24
14509,1.8555,3.5243,9.1171,1257,2973.24
14514,1.4557,2.4445,11.4742,1260,2973.24
14519,-2.5941,-1.81,13.1442,1256,2973.24
14524,-4.2545,1.4928,9.6618,1259,2973.24
14529,1.7921,3.5111,9.0644,1263,2973.68
14534,1.7059,2.6001,11.3198,1263,2973.68
14539,-2.46,-1.6831,13.1669,1255,2973.68
14544,-4.5035,1.3779,9.8964,1257,2973.68
14549,1.7538,3.4441,8.9783,1262,2973.54
14554,1.9381,2.7916,11.2456,1259,2973.54
14559,-2.3774,-1.5957,13.2148,1255,2973.54
14564,-4.6076,1.2546,10.0329,1261,2973.54
14569,1.634,3.4069,8.8562,1261,2973.54
14574,2.132,2.8898,11.0911,1261,2973.54
14579,-2.2302,-1.3886,13.2447,1257,2973.54
14584,-4.725,1.0942,10.2232,1268,2973.54
14589,1.5682,3.3232,8.8394,1256,2973.39
14594,2.3511,3.0538,11.0133,1259,2973.39
14599,-2.0698,-1.3204,13.2172,1255,2973.39
14604,-4.8399,0.9697,10.3621,1267,2973.39
14609,1.4605,3.2334,8.764,1256,2972.8
14614,2.4457,3.2046,10.9032,1257,2972.8
14619,-1.9309,-1.1109,13.2591,1256,2972.8
14624,-4.8937,0.7853,10.5333,1268,2972.8
14629,1.2941,3.201,8.7209,1257,2972.8
14634,2.5175,3.2836,10.756,1257,2972.8
14639,-1.7849,-0.9553,13.2316,1259,2972.8
14644,-4.938,0.6237,10.7153,1261,2972.8
14649,1.2151,3.0777,8.6095,1255,2972.8
14654,2.6061,3.4058,10.6781,1259,2972.8
14659,-1.7394,-0.7925,13.2112,1258,2972.8
14664,-5.0135,0.4166,10.8733,1255,2972.8
14669,1.0475,3.0023,8.5401,1257,2973.09
14674,2.6324,3.5003,10.5764,1261,2973.09
14679,-1.6508,-0.6416,13.1502,1257,2973.09
14684,-5.0374,0.231,11.0421,1259,2973.09
14689,0.8835,2.9844,8.4719,1257,2973.39
14694,2.6348,3.6117,10.5153,1257,2973.39
14699,-1.6029,-0.4932,13.1777,1253,2973.39
14704,-4.9943,0.1137,11.2001,1260,2973.39
14709,0.7123,2.9197,8.418,1257,2973.39
14714,2.6695,3.7433,10.4208,1259,2973.39
14719,-1.5538,-0.261,13.1382,1260,2973.39
14724,-5.0051,-0.085,11.376,1260,2973.39
14729,0.5315,2.8994,8.4994,1263,2973.54
14734,2.6875,3.7757,10.2819,1259,2973.54
14739,-1.4569,-0.0862,13.1202,1257,2973.54
14744,-4.9189,-0.249,11.5125,1261,2973.54
14749,0.3244,2.8048,8.418,1263,2973.68
14754,2.6504,3.8523,10.2161,1258,2973.68
14759,-1.4317,0.0946,13.0245,1256,2973.68
14764,-4.8686,-0.4752,11.6693,1262,2973.68
14769,0.085,2.7773,8.3558,1261,2974.13
14774,2.6097,3.8607,10.1287,1259,2974.13
14779,-1.3898,0.2394,12.9861,1256,2974.13
14784,-4.7381,-0.6476,11.7879,1261,2974.13
14789,-0.1484,2.721,8.333,1261,2973.24
14794,2.6085,3.9037,10.0616,1259,2973.24
14799,-1.3204,0.3603,12.8952,1255,2973.24
14804,-4.6603,-0.808,11.959,1262,2973.24
14809,-0.3771,2.6228,8.3929,1255,2974.57
14814,2.4828,3.9648,9.9407,1259,2974.57
14819,-1.2749,0.504,12.8078,1251,2974.57
14824,-4.5993,-1.0116,12.0404,1265,2974.57
14829,-0.6297,2.5367,8.3641,1259,2974.13
14834,2.472,3.9552,9.8964,1261,2974.13
14839,-1.1791,0.668,12.7958,1262,2974.13
14844,-4.4915,-1.1277,12.1625,1261,2974.13
14849,-0.9278,2.5534,8.3917,1257,2975.01
14854,2.4157,3.9672,9.8067,1255,2975.01
14859,-1.0965,0.8284,12.6785,1259,2975.01
14864,-4.4137,-1.3192,12.2799,1256,2975.01
14869,-1.1947,2.4421,8.4432,1263,2975.01
14874,2.3475,4.0175,9.7564,1257,2975.01
14879,-1.0307,0.9026,12.6617,1257,2975.01
14884,-4.2952,-1.3862,12.396,1257,2975.01
14889,-1.4054,2.3679,8.4324,1254,2975.3
14894,2.3164,4.0163,9.7492,1255,2975.3
14899,-0.8835,1.1037,12.5193,1257,2975.3
14904,-4.1336,-1.4928,12.5528,1256,2975.3
14909,-1.67,2.3427,8.5856,1253,2975.6
14914,2.3032,3.9804,9.6714,1257,2975.6
14919,-0.7661,1.1983,12.4702,1253,2975.6
14924,-4.039,-1.5969,12.5911,1253,2975.6
14929,-1.9178,2.2601,8.5581,1255,2975.6
14934,2.2948,3.9193,9.584,1258,2975.6
14939,-0.5722,1.3396,12.3481,1253,2975.6
14944,-3.8271,-1.6652,12.6629,1252,2975.6
14949,-2.1644,2.211,8.7305,1256,2975.01
14954,2.1632,3.8439,9.5361,1257,2975.01
14959,-0.3843,1.4569,12.2799,1253,2975.01
14964,-3.7505,-1.7609,12.6558,1253,2975.01
14969,-2.4493,2.1165,8.7436,1255,2974.57
14974,2.1368,3.7864,9.4487,1255,2974.57
14979,-0.1317,1.5395,12.1997,1259,2974.57
14984,-3.6129,-1.816,12.8281,1258,2974.57
14989,-2.7378,2.0494,8.7532,1254,2974.13
14994,2.0746,3.7661,9.3865,1259,2974.13
14999,0.0407,1.6963,12.0189,1253,2974.13
15004,-3.4608,-1.8998,12.8844,1272,2974.13
15009,-3.0155,1.974,8.9579,1258,2974.27
15014,2.0662,3.7733,9.402,1259,2974.27
15019,0.3172,1.8747,11.9351,1257,2974.27
15024,-3.3255,-1.8651,12.9838,1261,2974.27
15029,-3.2789,1.8938,8.9986,1258,2973.68
15034,1.98,3.7134,9.2907,1257,2973.68
15039,0.5471,1.9848,11.8094,1255,2973.68
15044,-3.1675,-1.8459,13.0723,1260,2973.68
15049,-3.5757,1.8483,9.2548,1261,2975.16
15054,1.9932,3.6811,9.2919,1255,2975.16
15059,0.9254,2.1632,11.7855,1263,2975.16
15064,-2.9975,-1.8639,13.052,1257,2975.16
15069,-3.7757,1.7669,9.3518,1259,2974.13
15074,1.9585,3.6823,9.268,1255,2974.13
15079,1.1564,2.2865,11.5999,1259,2974.13
15084,-2.8216,-1.8076,13.0855,1252,2974.13
15089,-3.9828,1.6604,9.499,1259,2974.42
15094,1.9357,3.5853,9.1195,1253,2974.42
15099,1.4425,2.4062,11.4622,1261,2974.42
15104,-2.7054,-1.7717,13.1095,1255,2974.42
15109,-4.1779,1.5119,9.59,1259,2974.42
15114,1.895,3.5123,9.0704,1259,2974.86
15119,1.7238,2.5235,11.3294,1259,2974.86
15124,-2.5558,-1.725,13.1897,1267,2974.86
15129,-4.4029,1.4066,9.7636,1258,2974.86
15134,1.8136,3.4465,9.019,1260,2974.86
15139,1.9309,2.7019,11.2551,1259,2974.86
15144,-2.4134,-1.634,13.222,1255,2974.86
15149,-4.5418,1.2941,9.9491,1263,2974.86
15154,1.6927,3.3806,8.8669,1257,2975.16
15159,2.1057,2.8216,11.1809,1260,2975.16
15164,-2.3391,-1.5706,13.283,1253,2975.16
15169,-4.6723,1.148,10.1658,1267,2975.16
15174,1.6089,3.2729,8.8035,1255,2975.16
15179,2.2673,2.9652,11.1055,1259,2975.16
15184,-2.2063,-1.3659,13.2591,1255,2975.16
15189,-4.8028,1.0104,10.2987,1269,2975.16
15194,1.5526,3.286,8.7987,1255,2975.16
15199,2.3391,3.14,10.9367,1255,2975.16
15204,-2.0794,-1.233,13.2687,1259,2975.16
15209,-4.8937,0.9134,10.4279,1269,2975.16
15214,1.4401,3.2525,8.7652,1255,2974.86
15219,2.4445,3.2226,10.8254,1256,2974.86
15224,-1.9261,-1.0259,13.2663,1259,2974.86
15229,-4.9763,0.7578,10.5836,1261,2974.86
15234,1.324,3.2094,8.7053,1257,2974.57
15239,2.6037,3.3279,10.7655,1253,2974.57
15244,-1.8124,-0.923,13.2603,1259,2974.57
15249,-4.9835,0.5997,10.7643,1259,2974.57
15254,1.2007,3.1196,8.5772,1257,2974.71
15259,2.654,3.4824,10.5955,1257,2974.71
15264,-1.6831,-0.7841,13.2351,1257,2974.71
15269,-4.9799,0.4298,10.8649,1261,2974.71
15274,1.0187,3.0682,8.5162,1259,2974.86
15279,2.6791,3.5303,10.5536,1260,2974.86
15284,-1.6305,-0.583,13.1585,1257,2974.86
15289,-5.0075,0.2107,10.9702,1259,2974.86
15294,0.8679,2.9604,8.5078,1254,2974.86
15299,2.7258,3.626,10.4615,1259,2974.86
15304,-1.5502,-0.4417,13.1849,1257,2974.86
15309,-5.0506,0.0431,11.2168,1263,2974.86
15314,0.6979,2.8635,8.4623,1263,2975.01
15319,2.6671,3.6332,10.386,1261,2975.01
15324,-1.5083,-0.3172,13.149,1261,2975.01
15329,-5.0135,-0.1472,11.3306,1263,2975.01
15334,0.4848,2.8635,8.4791,1263,2974.71
15339,2.6025,3.7278,10.3142,1257,2974.71
15344,-1.4868,-0.0886,13.1142,1257,2974.71
15349,-4.9847,-0.267,11.4586,1263,2974.71
15354,0.2801,2.8072,8.4204,1263,2974.42
15359,2.6205,3.8523,10.2256,1269,2974.42
15364,-1.4688,0.097,13.0676,1255,2974.42
15369,-4.9213,-0.4238,11.661,1266,2974.42
15374,0.0503,2.7569,8.442,1261,2974.27
15379,2.5917,3.9468,10.1394,1258,2974.27
15384,-1.4198,0.2741,13.0077,1256,2974.27
15389,-4.8171,-0.5447,11.7495,1266,2974.27
15394,-0.1401,2.7138,8.3318,1253,2974.13
15399,2.6073,3.948,10.0114,1259,2974.13
15404,-1.3779,0.4214,12.9359,1255,2974.13
15409,-4.6711,-0.7709,11.9183,1264,2974.13
15414,-0.3675,2.6492,8.406,1254,2974.27
15419,2.5343,3.9433,9.912,1259,2974.27
15424,-1.2665,0.5231,12.8162,1257,2974.27
15429,-4.5753,-0.9481,12.0069,1267,2974.27
15434,-0.5962,2.5618,8.3522,1257,2973.98
15439,2.4648,3.887,9.8533,1257,2973.98
15444,-1.1863,0.6788,12.8233,1259,2973.98
15449,-4.4688,-1.1456,12.208,1259,2973.98
15454,-0.8918,2.5031,8.3941,1255,2974.27
15459,2.4517,3.9696,9.7947,1255,2974.27
15464,-1.1265,0.7817,12.6833,1256,2974.27
15469,-4.3766,-1.3228,12.2056,1259,2974.27
15474,-1.1768,2.4289,8.3917,1255,2974.42
15479,2.3116,3.9373,9.7959,1258,2974.42
15484,-1.0068,0.9481,12.6486,1255,2974.42
15489,-4.2725,-1.397,12.4103,1256,2974.42
15494,-1.4305,2.381,8.4587,1253,2974.13
15499,2.2721,3.96,9.7157,1257,2974.13
15504,-0.9218,1.0977,12.536,1253,2974.13
15509,-4.1827,-1.4964,12.451,1255,2974.13
15514,-1.7286,2.3056,8.5401,1255,2974.42
15519,2.2613,3.9612,9.657,1261,2974.42
15524,-0.7434,1.2486,12.4223,1255,2974.42
15529,-4.0701,-1.5514,12.5301,1255,2974.42
15534,-1.9561,2.2601,8.5832,1259,2974.57
15539,2.217,3.9576,9.6043,1259,2974.57
15544,-0.5327,1.3635,12.3876,1256,2974.57
15549,-3.887,-1.664,12.6282,1255,2974.57
15554,-2.2386,2.2505,8.6562,1257,2974.86
15559,2.229,3.9828,9.584,1255,2974.86
15564,-0.3112,1.4557,12.2667,1257,2974.86
15569,-3.7038,-1.7526,12.7587,1256,2974.86
15574,-2.5283,2.1548,8.74,1255,2975.01
15579,2.1907,3.8475,9.4846,1259,2975.01
15584,-0.0503,1.5814,12.1422,1253,2975.01
15589,-3.5518,-1.8495,12.8329,1277,2975.01
15594,-2.7509,2.0315,8.8981,1255,2975.45
15599,2.1715,3.7757,9.396,1260,2975.45
15604,0.1413,1.6771,12.0392,1249,2975.45
15609,-3.4141,-1.8603,12.8066,1267,2975.45
15614,-3.0358,1.9944,8.9615,1256,2975.45
15619,2.0542,3.6966,9.3374,1257,2975.45
15624,0.4262,1.816,11.9746,1257,2975.45
15629,-3.2884,-1.9321,12.894,1261,2975.45
15634,-3.2573,1.895,9.098,1261,2976.04
15639,1.9944,3.6655,9.2751,1251,2976.04
15644,0.6117,1.9585,11.8513,1261,2976.04
15649,-3.1831,-1.913,12.9742,1257,2976.04
15654,-3.547,1.8292,9.1758,1257,2976.34
15659,1.9728,3.6524,9.2488,1252,2976.34
15664,0.844,2.0925,11.7867,1262,2976.34
15669,-3.0742,-1.8735,13.0795,1257,2976.34
15674,-3.7757,1.7753,9.329,1257,2977.52
15679,1.9393,3.6571,9.2261,1255,2977.52
15684,1.1061,2.2386,11.6729,1261,2977.52
15689,-2.9592,-1.8268,13.0987,1252,2977.52
15694,-3.9828,1.7119,9.4834,1261,2976.63
15699,1.9261,3.6045,9.165,1255,2976.63
15704,1.342,2.3906,11.5604,1263,2976.63
15709,-2.7785,-1.7178,13.1274,1258,2976.63
15714,-4.1204,1.6077,9.5529,1257,2976.63
15719,1.8926,3.5805,9.0573,1261,2976.63
15724,1.6484,2.5235,11.3892,1267,2976.63
15729,-2.6576,-1.7274,13.1909,1259,2976.63
15734,-4.306,1.482,9.7576,1257,2976.63
15739,1.8495,3.4788,8.9795,1259,2976.93
15744,1.8435,2.6181,11.3294,1259,2976.93
15749,-2.5019,-1.6544,13.1992,1256,2976.93
15754,-4.4927,1.4126,9.8533,1261,2976.93
15759,1.7657,3.4022,8.837,1256,2977.08
15764,2.053,2.7509,11.218,1258,2977.08
15769,-2.4014,-1.5598,13.1885,1254,2977.08
15774,-4.5861,1.2845,10.0054,1267,2977.08
15779,1.7226,3.3363,8.8538,1253,2977.22
15784,2.1536,2.8838,11.1175,1261,2977.22
15789,-2.3056,-1.4784,13.3118,1256,2977.22
15794,-4.7226,1.154,10.1454,1273,2977.22
15799,1.6173,3.2813,8.7951,1252,2977.22
15804,2.2745,3.0239,11.0756,1259,2977.22
15809,-2.1943,-1.3671,13.2794,1257,2977.22
15814,-4.8363,1.0475,10.3214,1263,2977.22
15819,1.4808,3.2765,8.7532,1254,2977.08
15824,2.3774,3.1196,10.9427,1257,2977.08
15829,-2.1105,-1.1911,13.2507,1261,2977.08
15834,-4.9141,0.9577,10.4447,1263,2977.08
15839,1.3922,3.2118,8.7209,1256,2976.93
15844,2.478,3.3136,10.8888,1257,2976.93
15849,-1.9501,-1.0846,13.3094,1261,2976.93
15854,-4.9704,0.8499,10.641,1259,2976.93
15859,1.3024,3.1496,8.6263,1259,2976.49
15864,2.5869,3.3854,10.8218,1259,2976.49
15869,-1.8591,-0.9469,13.2567,1259,2976.49
15874,-5.0147,0.6177,10.7512,1259,2976.49
15879,1.1672,3.1388,8.5617,1257,2976.49
15884,2.6588,3.4596,10.6159,1258,2976.49
15889,-1.7286,-0.7242,13.2723,1257,2976.49
15894,-5.0147,0.4752,10.8062,1260,2976.49
15899,1.057,3.0754,8.5293,1253,2976.49
15904,2.7198,3.5338,10.5333,1259,2976.49
15909,-1.5838,-0.5938,13.2818,1257,2976.49
15914,-5.0123,0.2394,11.054,1261,2976.49
15919,0.9481,2.9868,8.4491,1257,2976.34
15924,2.7485,3.5674,10.489,1263,2976.34
15929,-1.5945,-0.516,13.1681,1261,2976.34
15934,-4.9991,0.0491,11.2013,1259,2976.34
15939,0.7302,2.8826,8.4779,1261,2976.19
15944,2.6815,3.6919,10.3789,1261,2976.19
15949,-1.5682,-0.3436,13.1921,1259,2976.19
15954,-4.9931,-0.0826,11.3689,1259,2976.19
15959,0.5794,2.8383,8.3797,1263,2975.45
15964,2.6647,3.735,10.2999,1253,2975.45
15969,-1.5239,-0.1808,13.1394,1259,2975.45
15974,-5.0003,-0.2155,11.4742,1261,2975.45
15979,0.3627,2.8551,8.4815,1261,2975.45
15984,2.6001,3.863,10.2903,1260,2975.45
15989,-1.5383,0.0024,13.125,1256,2975.45
15994,-4.9225,-0.3962,11.6358,1263,2975.45
15999,0.1652,2.7497,8.3761,1259,2975.3
16004,2.545,3.8774,10.1682,1263,2975.3
16009,-1.4641,0.1987,13.058,1257,2975.3
16014,-4.8363,-0.5519,11.7651,1267,2975.3
16019,-0.012,2.7186,8.4108,1255,2976.04
16024,2.5917,3.9325,10.1095,1262,2976.04
16029,-1.4186,0.3268,12.9586,1259,2976.04
16034,-4.7262,-0.6488,11.8776,1269,2976.04
16039,-0.2274,2.6624,8.3414,1254,2976.34
16044,2.6073,3.9564,10.003,1259,2976.34
16049,-1.3479,0.4322,12.8509,1261,2976.34
16054,-4.6196,-0.826,11.9722,1267,2976.34
16059,-0.4441,2.6157,8.3007,1256,2976.63
16064,2.569,3.9349,9.9024,1256,2976.63
16069,-1.3012,0.5986,12.8305,1264,2976.63
16074,-4.5813,-0.9744,12.0979,1260,2976.63
16079,-0.6668,2.5259,8.3809,1256,2976.93
16084,2.484,3.9492,9.8509,1258,2976.93
16089,-1.1684,0.6704,12.7946,1260,2976.93
16094,-4.464,-1.1325,12.1661,1258,2976.93
16099,-0.9325,2.5319,8.3941,1255,2977.22
16104,2.4074,3.9516,9.8138,1251,2977.22
16109,-1.0953,0.7721,12.7383,1259,2977.22
16114,-4.4125,-1.2881,12.2439,1255,2977.22
16119,-1.1744,2.3822,8.3977,1255,2977.08
16124,2.3535,3.9145,9.7492,1257,2977.08
16129,-1.0151,0.8894,12.6869,1256,2977.08
16134,-4.2952,-1.3683,12.3804,1255,2977.08
16139,-1.4126,2.3906,8.4168,1257,2977.37
16144,2.3176,3.9851,9.7408,1259,2977.37
16149,-0.8894,1.0666,12.5516,1255,2977.37
16154,-4.2078,-1.4257,12.469,1257,2977.37
16159,-1.6328,2.3056,8.4862,1256,2977.52
16164,2.3152,3.9397,9.7288,1257,2977.52
16169,-0.7721,1.1612,12.4929,1255,2977.52
16174,-4.0929,-1.5431,12.5516,1251,2977.52
16179,-1.9237,2.2589,8.4719,1257,2977.67
16184,2.2529,3.9504,9.578,1261,2977.67
16189,-0.5938,1.3001,12.3768,1255,2977.67
16194,-3.9875,-1.6209,12.6498,1257,2977.67
16199,-2.1249,2.2721,8.6395,1257,2977.82
16204,2.2098,3.9468,9.5852,1255,2977.82
16209,-0.4501,1.403,12.2775,1259,2977.82
16214,-3.796,-1.7107,12.7108,1259,2977.82
16219,-2.3715,2.1524,8.6634,1257,2977.67
16224,2.2314,3.9061,9.4846,1259,2977.67
16229,-0.2239,1.5107,12.1602,1259,2977.67
16234,-3.6919,-1.804,12.7707,1261,2977.67
16239,-2.5893,2.0997,8.7676,1257,2977.96
16244,2.1596,3.8475,9.4523,1261,2977.96
16249,-0.0479,1.5802,12.0776,1259,2977.96
16254,-3.5195,-1.8651,12.7779,1267,2977.96
16259,-2.8347,1.9968,8.8478,1256,2977.96
16264,2.1344,3.7912,9.3589,1259,2977.96
16269,0.1628,1.7142,12.0057,1260,2977.96
16274,-3.45,-1.9082,12.9754,1261,2977.96
16279,-3.0777,1.9405,8.9675,1257,2978.11
16284,2.0662,3.7194,9.3206,1255,2978.11
16289,0.3819,1.804,11.9255,1259,2978.11
16294,-3.3447,-1.901,12.9933,1262,2978.11
16299,-3.322,1.9034,9.1016,1259,2978.11
16304,1.98,3.6655,9.2763,1255,2978.11
16309,0.6273,2.0123,11.9219,1267,2978.11
16314,-3.2334,-1.8938,13.0233,1255,2978.11
16319,-3.5135,1.9022,9.2189,1261,2977.67
16324,1.9728,3.6619,9.2392,1255,2977.67
16329,0.8643,2.0734,11.746,1263,2977.67
16334,-3.0777,-1.883,13.052,1255,2977.67
16339,-3.7373,1.7825,9.3242,1259,2977.82
16344,1.9537,3.6188,9.2117,1255,2977.82
16349,1.0846,2.2661,11.6657,1263,2977.82
16354,-2.9521,-1.804,13.1968,1257,2977.82
16359,-3.9025,1.6963,9.4332,1259,2977.82
16364,1.9501,3.6081,9.092,1257,2977.52
16369,1.33,2.332,11.5305,1263,2977.52
16374,-2.7653,-1.7633,13.1537,1257,2977.52
16379,-4.1001,1.5945,9.56,1257,2977.52
16384,1.907,3.5482,9.0633,1260,2977.82
16389,1.5802,2.4995,11.4802,1257,2977.82
16394,-2.6205,-1.7047,13.1525,1255,2977.82
16399,-4.2473,1.5083,9.6714,1261,2977.82
16404,1.8399,3.4656,9.0034,1260,2977.67
16409,1.798,2.563,11.3509,1263,2977.67
16414,-2.5391,-1.7095,13.21,1254,2977.67
16419,-4.4269,1.3934,9.7947,1267,2977.67
16424,1.7933,3.3495,8.9268,1255,2977.67
16429,1.9788,2.7222,11.2599,1261,2977.67
16434,-2.4277,-1.6149,13.2663,1255,2977.67
16439,-4.5669,1.3036,9.8928,1267,2977.67
16444,1.7442,3.3782,8.8789,1253,2977.67
16449,2.0782,2.7976,11.1965,1259,2977.67
16454,-2.3008,-1.5526,13.2627,1255,2977.67
16459,-4.7453,1.16,10.088,1267,2977.67
16464,1.5909,3.3351,8.8717,1254,2977.52
16469,2.2182,2.9532,11.0409,1257,2977.52
16474,-2.2087,-1.3791,13.2878,1254,2977.52
16479,-4.8518,1.0642,10.2735,1261,2977.52
16484,1.5526,3.2633,8.7855,1255,2977.37
16489,2.399,3.0873,11.0145,1257,2977.37
16494,-2.1141,-1.2725,13.283,1258,2977.37
16499,-4.9165,0.9637,10.3896,1261,2977.37
16504,1.4964,3.219,8.7125,1256,2977.67
16509,2.5055,3.237,10.9128,1256,2977.67
16514,-2.0135,-1.1157,13.3237,1258,2977.67
16519,-4.9847,0.8475,10.5884,1257,2977.67
16524,1.3815,3.1819,8.7412,1257,2977.96
16529,2.6049,3.3255,10.7619,1261,2977.96
16534,-1.9345,-0.9697,13.2639,1257,2977.96
16539,-5.0278,0.7063,10.7045,1256,2977.96
16544,1.2713,3.14,8.5665,1252,2978.11
16549,2.6588,3.3782,10.6566,1259,2978.11
16554,-1.8208,-0.8236,13.2962,1257,2978.11
16559,-5.0589,0.5136,10.7751,1257,2978.11
16564,1.1444,3.0861,8.5892,1253,2978.26
16569,2.7222,3.4895,10.5872,1260,2978.26
16574,-1.7226,-0.6476,13.2567,1256,2978.26
16579,-5.1116,0.328,10.9583,1258,2978.26
16584,0.996,3.0023,8.5042,1255,2978.11
16589,2.7473,3.5207,10.4866,1261,2978.11
16594,-1.6999,-0.5519,13.2232,1259,2978.11
16599,-5.053,0.1951,11.1187,1257,2978.11
16604,0.8631,2.9149,8.4767,1253,2978.11
16609,2.7378,3.6009,10.4914,1261,2978.11
16614,-1.6281,-0.4441,13.1741,1253,2978.11
16619,-5.0458,0.073,11.2252,1259,2978.11
16624,0.7039,2.8515,8.406,1259,2977.67
16629,2.7102,3.6919,10.3549,1261,2977.67
16634,-1.6173,-0.2921,13.2543,1257,2977.67
16639,-5.0506,-0.0563,11.3892,1260,2977.67
16644,0.5231,2.8311,8.4001,1259,2977.67
16649,2.6647,3.717,10.2592,1259,2977.67
16654,-1.5538,-0.0838,13.1609,1263,2977.67
16659,-5.0123,-0.1796,11.4898,1261,2977.67
16664,0.3472,2.794,8.4228,1261,2977.22
16669,2.66,3.7984,10.2328,1259,2977.22
16674,-1.4964,0.0251,13.1154,1253,2977.22
16679,-4.9536,-0.3484,11.6334,1263,2977.22
16684,0.1652,2.7653,8.3582,1253,2976.78
16689,2.6827,3.887,10.155,1259,2976.78
16694,-1.4593,0.1879,13.0269,1251,2976.78
16699,-4.8459,-0.5231,11.7759,1259,2976.78
16704,-0.0096,2.7174,8.3187,1253,2977.52
16709,2.6564,3.9181,10.0724,1260,2977.52
16714,-1.391,0.3232,12.9634,1255,2977.52
16719,-4.7597,-0.6931,11.8788,1261,2977.52
16724,-0.2466,2.6564,8.3163,1256,2977.37
16729,2.6001,3.9516,9.9575,1256,2977.37
16734,-1.2917,0.4178,12.9059,1285,2977.37
16739,-4.6364,-0.8595,11.9483,1256,2977.37
16744,-0.4286,2.5881,8.3462,1255,2977.22
16749,2.545,3.9313,9.9467,1259,2977.22
16754,-1.2378,0.5854,12.9107,1261,2977.22
16759,-4.5969,-1.0187,12.0536,1256,2977.22
16764,-0.6907,2.5426,8.3534,1253,2977.37
16769,2.4565,3.9301,9.8366,1261,2977.37
16774,-1.1935,0.6728,12.8449,1259,2977.37
16779,-4.5478,-1.1205,12.1602,1251,2977.37
16784,-0.9278,2.4708,8.3761,1253,2977.22
16789,2.3655,3.8966,9.8557,1256,2977.22
16794,-1.1061,0.7578,12.7419,1258,2977.22
16799,-4.4772,-1.2821,12.2751,1255,2977.22
16804,-1.1073,2.3894,8.3594,1255,2977.67
16809,2.3978,3.9804,9.8198,1259,2977.67
16814,-1.0367,0.9158,12.6222,1254,2977.67
16819,-4.3263,-1.3743,12.4044,1257,2977.67
16824,-1.403,2.3679,8.4659,1245,2977.52
16829,2.326,4.0055,9.73,1259,2977.52
16834,-0.9541,1.0116,12.615,1251,2977.52
16839,-4.2174,-1.4509,12.4475,1253,2977.52
16844,-1.6101,2.3367,8.5078,1254,2977.08
16849,2.3224,3.9648,9.6881,1259,2977.08
16854,-0.8236,1.1576,12.5444,1254,2977.08
16859,-4.0917,-1.5359,12.4977,1251,2977.08
16864,-1.8495,2.2996,8.5988,1253,2977.08
16869,2.2685,3.9588,9.5792,1247,2977.08
16874,-0.6105,1.3312,12.4163,1253,2977.08
16879,-3.978,-1.6257,12.6462,1255,2977.08
16884,-2.0865,2.2565,8.606,1256,2976.93
16889,2.2649,3.9073,9.566,1257,2976.93
16894,-0.4393,1.3455,12.3409,1256,2976.93
16899,-3.8235,-1.7286,12.6689,1259,2976.93
16904,-2.32,2.1931,8.6766,1254,2977.37
16909,2.2434,3.8211,9.499,1259,2977.37
16914,-0.2191,1.47,12.2032,1253,2977.37
16919,-3.6847,-1.7873,12.7719,1261,2977.37
16924,-2.5678,2.0997,8.831,1256,2977.67
16929,2.1464,3.784,9.4691,1258,2977.67
16934,-0.0096,1.5814,12.1362,1251,2977.67
16939,-3.5674,-1.8687,12.8329,1258,2977.67
16944,-2.8407,2.0279,8.7951,1255,2977.67
16949,2.1344,3.7433,9.3805,1258,2977.67
16954,0.1987,1.7071,12.1063,1258,2977.67
16959,-3.4991,-1.8783,12.9024,1260,2977.67
16964,-3.0861,1.9752,9.0058,1256,2977.96
16969,2.0099,3.7086,9.3565,1259,2977.96
16974,0.395,1.8387,11.9854,1261,2977.96
16979,-3.3674,-1.889,12.9203,1255,2977.96
16984,-3.298,1.9453,9.0597,1257,2978.41
16989,1.9932,3.6679,9.2715,1251,2978.41
16994,0.6512,1.9369,11.9171,1262,2978.41
16999,-3.2262,-1.8735,12.985,1253,2978.41
17004,-3.559,1.8878,9.0812,1257,2978.11
17009,2.0554,3.7433,9.2931,1251,2978.11
17014,0.7901,2.1213,11.8693,1261,2978.11
17019,-3.0993,-1.8352,13.2351,1255,2978.11
17024,-3.6871,1.8304,9.3494,1257,2978.11
17029,1.9944,3.6703,9.2249,1257,2978.26
17034,1.0798,2.1943,11.6035,1259,2978.26
17039,-2.8754,-1.8268,13.0484,1256,2978.26
17044,-3.9325,1.6999,9.3565,1255,2978.26
17049,1.9956,3.6464,9.1985,1262,2978.11
17054,1.2977,2.3703,11.5903,1255,2978.11
17059,-2.7653,-1.7897,13.1549,1255,2978.11
17064,-4.0929,1.6065,9.5014,1257,2978.11
17069,1.9393,3.547,9.0309,1260,2977.82
17074,1.5598,2.4565,11.4539,1261,2977.82
17079,-2.6624,-1.7693,13.1873,1255,2977.82
17084,-4.2904,1.4844,9.7372,1263,2977.82
17089,1.8148,3.4488,9.019,1257,2977.82
17094,1.7418,2.5462,11.3832,1259,2977.82
17099,-2.5019,-1.7693,13.1717,1253,2977.82
17104,-4.4568,1.3635,9.76,1266,2977.82
17109,1.8208,3.4201,8.9064,1257,2977.37
17114,1.9573,2.6947,11.2731,1257,2977.37
17119,-2.46,-1.6376,13.2663,1253,2977.37
17124,-4.6483,1.2869,9.9814,1267,2977.37
17129,1.6927,3.3579,8.8777,1247,2977.52
17134,2.059,2.8072,11.0971,1255,2977.52
17139,-2.3188,-1.5071,13.2675,1253,2977.52
17144,-4.7573,1.1708,10.1047,1261,2977.52
17149,1.5694,3.3507,8.8921,1255,2977.82
17154,2.1799,2.9772,11.1259,1253,2977.82
17159,-2.1943,-1.3922,13.3225,1257,2977.82
17164,-4.8471,1.0558,10.2604,1261,2977.82
17169,1.5682,3.2729,8.7676,1254,2978.26
17174,2.3774,3.1244,10.9547,1255,2978.26
17179,-2.1165,-1.257,13.3094,1258,2978.26
17184,-4.9057,0.9601,10.4232,1255,2978.26
17189,1.4485,3.2382,8.7101,1257,2978.11
17194,2.5031,3.219,10.8493,1255,2978.11
17199,-1.9513,-1.0989,13.2232,1257,2978.11
17204,-4.8997,0.8823,10.5536,1259,2978.11
17209,1.4186,3.2262,8.691,1255,2977.96
17214,2.6181,3.3052,10.7763,1256,2977.96
17219,-1.8316,-1.0044,13.3201,1257,2977.96
17224,-4.9656,0.7063,10.7009,1257,2977.96
17229,1.306,3.1292,8.6084,1255,2977.67
17234,2.7318,3.3555,10.6566,1256,2977.67
17239,-1.7059,-0.8655,13.2196,1251,2977.67
17244,-5.041,0.5231,10.7631,1256,2977.67
17249,1.1396,3.0945,8.5353,1257,2977.67
17254,2.6791,3.4201,10.5716,1259,2977.67
17259,-1.6688,-0.7889,13.2399,1257,2977.67
17264,-5.0697,0.3268,10.9331,1259,2977.67
17269,1.002,2.9604,8.5222,1264,2977.52
17274,2.7114,3.5171,10.5117,1261,2977.52
17279,-1.6305,-0.6273,13.2316,1255,2977.52
17284,-5.0721,0.2215,11.1127,1259,2977.52
17289,0.8188,2.97,8.5078,1259,2977.96
17294,2.6743,3.6955,10.4184,1257,2977.96
17299,-1.5634,-0.4764,13.21,1259,2977.96
17304,-5.0996,0.0982,11.2384,1259,2977.96
17309,0.7266,2.8958,8.4731,1261,2978.11
17314,2.6659,3.7206,10.4279,1255,2978.11
17319,-1.5933,-0.3053,13.2112,1251,2978.11
17324,-5.102,-0.0407,11.3713,1259,2978.11
17329,0.5219,2.8994,8.4862,1259,2977.96
17334,2.6396,3.8092,10.2819,1253,2977.96
17339,-1.5431,-0.1437,13.137,1251,2977.96
17344,-4.9907,-0.1676,11.4575,1261,2977.96
17349,0.3879,2.8299,8.412,1255,2977.37
17354,2.6384,3.8463,10.246,1256,2977.37
17359,-1.4605,0.0204,13.0891,1255,2977.37
17364,-4.9153,-0.3244,11.6382,1263,2977.37
17369,0.2047,2.824,8.4096,1255,2976.34
17374,2.654,3.869,10.1382,1257,2976.34
17379,-1.3791,0.1437,12.9861,1255,2976.34
17384,-4.7896,-0.5543,11.7687,1274,2976.34
17389,0.0036,2.733,8.3163,1253,2975.6
17394,2.6073,3.9037,10.1203,1257,2975.6
17399,-1.3001,0.261,12.955,1263,2975.6
17404,-4.7477,-0.7075,11.8154,1261,2975.6
17409,-0.2394,2.6635,8.3115,1255,2975.45
17414,2.5462,3.9097,9.9479,1255,2975.45
17419,-1.2402,0.3974,12.864,1259,2975.45
17424,-4.6699,-0.9218,11.9411,1255,2975.45
17429,-0.5088,2.6145,8.3869,1254,2975.45
17434,2.46,3.8954,9.9371,1255,2975.45
17439,-1.1839,0.5447,12.7611,1257,2975.45
17444,-4.5717,-1.0546,12.0273,1257,2975.45
17449,-0.7207,2.5414,8.3833,1253,2975.6
17454,2.3906,3.9433,9.8892,1255,2975.6
17459,-1.148,0.6823,12.7431,1255,2975.6
17464,-4.5179,-1.1851,12.1829,1261,2975.6
17469,-1.0175,2.484,8.4312,1255,2975.6
17474,2.3248,4.0294,9.8713,1256,2975.6
17479,-1.0906,0.8248,12.6162,1243,2975.6
17484,-4.391,-1.2546,12.3385,1257,2975.6
17489,-1.3108,2.4624,8.4719,1257,2975.6
17494,2.2972,4.0199,9.8354,1257,2975.6
17499,-1.0056,0.9433,12.5564,1253,2975.6
17504,-4.2306,-1.3431,12.4139,1251,2975.6
17509,-1.4832,2.3954,8.4862,1257,2975.75
17514,2.3284,4.039,9.6642,1253,2975.75
17519,-0.838,1.1337,12.4606,1255,2975.75
17524,-4.0893,-1.4712,12.4953,1253,2975.75
17529,-1.7214,2.3188,8.5401,1259,2975.75
17534,2.3224,3.9792,9.6534,1255,2975.75
17539,-0.6345,1.2067,12.4103,1257,2975.75
17544,-3.9397,-1.5646,12.5133,1259,2975.75
17549,-2.0123,2.2338,8.5928,1259,2976.19
17554,2.2362,3.9145,9.5421,1263,2976.19
17559,-0.431,1.312,12.2894,1255,2976.19
17564,-3.8199,-1.7813,12.615,1259,2976.19
17569,-2.2661,2.2075,8.6969,1255,2976.19
17574,2.1763,3.8583,9.6223,1255,2976.19
17579,-0.2765,1.4341,12.1937,1255,2976.19
17584,-3.7074,-1.8232,12.6773,1253,2976.19
17589,-2.5343,2.0925,8.7329,1255,2976.63
17594,2.0997,3.7936,9.5325,1255,2976.63
17599,-0.0658,1.5407,12.0524,1257,2976.63
17604,-3.5913,-1.8399,12.8042,1257,2976.63
17609,-2.7701,2.065,8.8681,1257,2976.93
17614,2.0482,3.8032,9.4822,1255,2976.93
17619,0.1245,1.634,12.0165,1259,2976.93
17624,-3.5063,-1.8567,12.8533,1257,2976.93
17629,-3.0562,1.9908,8.9795,1257,2976.49
17634,2.0171,3.7553,9.4284,1253,2976.49
17639,0.328,1.7885,11.9447,1260,2976.49
17644,-3.4105,-1.8723,12.9179,1251,2976.49
17649,-3.2848,1.992,9.1183,1259,2977.08
17654,2.0159,3.7685,9.3099,1253,2977.08
17659,0.5315,1.9668,11.8585,1259,2977.08
17664,-3.2166,-1.8567,12.9814,1251,2977.08
17669,-3.5111,1.889,9.1614,1259,2976.34
17674,1.986,3.7362,9.3218,1253,2976.34
17679,0.8619,2.059,11.6777,1260,2976.34
17684,-3.0586,-1.8387,12.9933,1253,2976.34
17689,-3.7601,1.8196,9.3122,1259,2976.34
17694,2.0147,3.7002,9.2584,1259,2976.49
17699,1.1384,2.1428,11.5401,1257,2976.49
17704,-2.8455,-1.8471,13.1059,1259,2976.49
17709,-3.8918,1.6592,9.414,1259,2976.49
17714,1.9549,3.6009,9.1985,1259,2976.49
17719,1.3994,2.2853,11.4479,1259,2976.49
17724,-2.7426,-1.8196,13.1262,1255,2976.49
17729,-4.1408,1.5562,9.5373,1263,2976.49
17734,1.913,3.5614,9.104,1257,2977.08
17739,1.6125,2.4146,11.3593,1259,2977.08
17744,-2.6312,-1.7514,13.1777,1255,2977.08
17749,-4.3419,1.4724,9.7312,1271,2977.08
17754,1.7741,3.4333,9.0465,1254,2979.44
17759,1.7514,2.5283,11.3162,1257,2979.44
17764,-2.5438,-1.725,13.1897,1252,2979.44
17769,-4.4927,1.4593,9.8234,1267,2979.44
17774,1.7262,3.4752,9.0333,1253,2981.37
17779,1.9704,2.6659,11.2097,1257,2981.37
17784,-2.4864,-1.652,13.3058,1255,2981.37
17789,-4.6615,1.3767,9.9407,1264,2981.37
17794,1.6927,3.4512,8.8957,1255,2982.26
17799,2.0387,2.7593,11.145,1255,2982.26
17804,-2.375,-1.5036,13.3513,1255,2982.26
17809,-4.7369,1.324,10.0509,1263,2982.26
17814,1.6735,3.4261,8.8789,1253,2981.81
17819,2.1883,2.9066,11.084,1247,2981.81
17824,-2.2841,-1.4269,13.307,1257,2981.81
17829,-4.7788,1.2019,10.167,1260,2981.81
17834,1.6305,3.3758,8.7987,1253,2980.77
17839,2.788,3.5985,10.3729,1256,2980.77
17844,-2.162,-1.3479,13.2495,1261,2980.77
17849,-5.0027,0.0359,11.1869,1253,2980.77
17854,1.4808,3.316,8.7963,1256,2980.03
17859,2.745,3.6739,10.3549,1255,2980.03
17864,-1.4712,-0.2981,13.2483,1256,2980.03
17869,-4.9859,-0.0994,11.3162,1258,2980.03
17874,1.4174,3.2609,8.7053,1255,2979.59
17879,2.7102,3.6943,10.2723,1257,2979.59
17884,-1.4078,-0.1413,13.1669,1256,2979.59
17889,-4.9895,-0.2406,11.4203,1257,2979.59
17894,0.3579,2.8623,8.4479,1253,2978.85
17899,2.6097,3.7673,10.2005,1255,2978.85
17904,-1.4018,-0.0611,13.0556,1253,2978.85
17909,-4.968,-0.419,11.5903,1251,2978.85
17914,0.1987,2.7857,8.3893,1254,2978.41
17919,2.563,3.8595,10.1706,1259,2978.41
17924,-1.4138,0.1329,13.0376,1259,2978.41
17929,-4.9201,-0.4992,11.716,1259,2978.41
17934,-0.0383,2.7497,8.4264,1259,2978.11
17939,2.5582,3.9385,10.0868,1261,2978.11
17944,-1.3683,0.2658,12.9921,1257,2978.11
17949,-4.8375,-0.6345,11.8752,1259,2978.11
17954,-0.1867,2.721,8.3773,1260,2977.82
17959,2.5618,3.9875,9.9886,1257,2977.82
17964,-1.342,0.4058,12.9155,1254,2977.82
17969,-4.7321,-0.7422,11.965,1251,2977.82
17974,-0.4034,2.6659,8.4096,1257,2977.82
17979,2.5223,3.9373,9.9491,1259,2977.82
17984,-1.2617,0.5255,12.876,1253,2977.82
17989,-4.6076,-0.9098,11.9902,1261,2977.82
17994,-0.6057,2.6157,8.4025,1260,2977.52
17999,2.5331,3.9935,9.8892,1259,2977.52
18004,-1.1636,0.6644,12.8245,1254,2977.52
18009,-4.4903,-1.1049,12.1386,1261,2977.52
18014,-0.7865,2.557,8.4192,1255,2977.37
18019,2.4169,3.9229,9.7995,1259,2977.37
18024,-1.0774,0.7506,12.6785,1254,2977.37
18029,-4.3981,-1.2318,12.2128,1261,2977.37
18034,-1.0846,2.4672,8.3989,1251,2977.52
18039,2.3367,3.9444,9.8426,1259,2977.52
18044,-0.9577,0.808,12.5995,1255,2977.52
18049,-4.3515,-1.3288,12.311,1262,2977.52
18054,-1.3659,2.4146,8.4324,1256,2977.37
18059,2.3116,3.9229,9.7899,1255,2977.37
18064,-0.917,0.9218,12.5348,1268,2977.37
18069,-4.2437,-1.4269,12.4451,1267,2977.37
18074,-1.5862,2.387,8.4803,1255,2977.22
18079,2.2338,3.9576,9.7037,1257,2977.22
18084,-0.8045,1.093,12.5013,1259,2977.22
18089,-4.1539,-1.5143,12.4762,1257,2977.22
18094,-1.8292,2.32,8.606,1253,2976.93
18099,2.1799,3.9313,9.6414,1255,2976.93
18104,-0.6584,1.2258,12.4091,1258,2976.93
18109,-4.0618,-1.6137,12.6067,1255,2976.93
18114,-2.047,2.2948,8.7173,1253,2976.93
18119,2.1895,3.9289,9.5672,1255,2976.93
18124,-0.4884,1.3671,12.305,1257,2976.93
18129,-3.8415,-1.6831,12.6174,1259,2976.93
18134,-2.2745,2.2637,8.679,1251,2977.22
18139,2.2505,3.9073,9.5421,1254,2977.22
18144,-0.2993,1.4114,12.2332,1255,2977.22
18149,-3.717,-1.7298,12.7192,1256,2977.22
18154,-2.5307,2.144,8.746,1253,2977.37
18159,2.1931,3.9241,9.5612,1258,2977.37
18164,-0.0323,1.5263,12.0764,1253,2977.37
18169,-3.6081,-1.834,12.8389,1256,2977.37
18174,-2.7797,2.077,8.8753,1256,2977.52
18179,2.1572,3.8343,9.4296,1267,2977.52
18184,0.1556,1.6951,11.9878,1259,2977.52
18189,-3.4273,-1.8902,12.9071,1259,2977.52
18194,-3.0059,1.98,8.9866,1259,2976.93
18199,2.0997,3.7409,9.3637,1261,2976.93
18204,0.3903,1.7346,11.9124,1261,2976.93
18209,-3.3459,-1.9393,12.8988,1261,2976.93
18214,-3.2693,1.9237,9.0776,1263,2976.78
18219,2.0255,3.7074,9.335,1267,2976.78
18224,0.5782,1.9273,11.8381,1263,2976.78
18229,-3.1819,-1.9417,12.9347,1269,2976.78
18234,-3.5039,1.8567,9.2153,1266,2976.63
18239,1.9884,3.6284,9.3051,1269,2976.63
18244,0.8787,2.0219,11.6981,1260,2976.63
18249,-3.1244,-1.8926,13.0556,1271,2976.63
18254,-3.7529,1.804,9.3446,1269,2976.19
18259,1.9357,3.6368,9.3039,1261,2976.19
18264,1.0882,2.1883,11.5796,1262,2976.19
18269,-2.9341,-1.8747,13.0676,1270,2976.19
18274,-3.9444,1.6987,9.4463,1262,2976.04
18279,1.9297,3.6344,9.2105,1267,2976.04
18284,1.324,2.3439,11.4994,1267,2976.04
18289,-2.812,-1.7921,13.1394,1269,2976.04
18294,-4.1372,1.6364,9.6438,1267,2976.04
18299,1.8555,3.6033,9.1075,1261,2976.04
18304,1.6005,2.4972,11.4371,1268,2976.04
18309,-2.6899,-1.7238,13.1142,1269,2976.04
18314,-4.312,1.5083,9.7229,1267,2977.22
18319,1.8304,3.4955,9.0597,1262,2977.22
18324,1.804,2.6001,11.2456,1274,2977.22
18329,-2.4768,-1.6412,13.131,1261,2977.22
18334,-4.4676,1.4305,9.8749,1263,2976.78
18339,1.7585,3.4165,9.007,1261,2976.78
18344,2.0039,2.7066,11.151,1270,2976.78
18349,-2.3367,-1.5778,13.1729,1261,2976.78
18354,-4.61,1.2653,9.9766,1268,2976.78
18359,1.7023,3.3842,8.9447,1262,2976.49
18364,2.144,2.8204,11.084,1269,2976.49
18369,-2.2458,-1.5275,13.2399,1263,2976.49
18374,-4.7369,1.1672,10.1454,1261,2976.49
18379,1.6508,3.3243,8.8825,1270,2976.78
18384,2.2865,2.9485,11.0061,1267,2976.78
18389,-2.1512,-1.4162,13.2339,1267,2976.78
18394,-4.8542,0.9876,10.3142,1269,2976.78
18399,1.5203,3.2693,8.7819,1267,2977.52
18404,2.3619,3.1328,10.9415,1271,2977.52
18409,-2.0746,-1.2761,13.222,1263,2977.52
18414,-4.974,0.9589,10.4495,1290,2977.52
18419,1.4449,3.2453,8.7113,1263,2978.55
18424,2.5151,3.2082,10.8565,1269,2978.55
18429,-2.0087,-1.1564,13.2471,1267,2978.55
18434,-5.0206,0.82,10.6219,1275,2978.55
18439,1.3192,3.2142,8.679,1261,2978.7
18444,2.6097,3.3243,10.7787,1269,2978.7
18449,-1.9022,-0.9529,13.2088,1267,2978.7
18454,-5.0554,0.6895,10.6865,1273,2978.7
18459,1.2665,3.1771,8.6838,1259,2978.41
18464,2.6624,3.4536,10.6386,1263,2978.41
18469,-1.8076,-0.7985,13.2986,1261,2978.41
18474,-5.0422,0.5291,10.8122,1269,2978.41
18479,1.136,3.1388,8.5677,1263,2977.82
18484,2.6971,3.4907,10.5608,1264,2977.82
18489,-1.6951,-0.68,13.1932,1271,2977.82
18494,-5.0649,0.34,10.9463,1271,2977.82
18499,1.0187,3.0418,8.5545,1263,2977.52
18504,2.7126,3.5877,10.5034,1256,2977.52
18509,-1.6352,-0.5279,13.2064,1268,2977.52
18514,-5.0135,0.1939,11.1259,1263,2977.52
18519,0.8128,2.9497,8.4635,1261,2977.08
18524,2.739,3.6368,10.3956,1269,2977.08
18529,-1.5311,-0.4274,13.1454,1269,2977.08
18534,-5.017,0.0108,11.2372,1259,2977.08
18539,0.6428,2.9006,8.4707,1261,2977.22
18544,2.7114,3.7421,10.3896,1268,2977.22
18549,-1.4784,-0.2801,13.1059,1265,2977.22
18554,-4.9847,-0.1257,11.3772,1268,2977.22
18559,0.4681,2.8192,8.4803,1261,2977.22
18564,2.6432,3.7589,10.2747,1271,2977.22
18569,-1.4832,-0.1161,13.125,1263,2977.22
18574,-5.0159,-0.3148,11.4898,1269,2977.22
18579,0.2682,2.8144,8.4731,1268,2977.37
18584,2.6157,3.8583,10.2005,1272,2977.37
18589,-1.4856,0.0299,13.0592,1271,2977.37
18594,-4.9189,-0.4369,11.637,1267,2977.37
18599,0.1197,2.7438,8.4372,1274,2977.37
18604,2.5857,3.8654,10.1311,1269,2977.37
18609,-1.4485,0.1592,12.9658,1271,2977.37
18614,-4.8818,-0.5614,11.795,1269,2977.37
18619,-0.1018,2.7414,8.4108,1273,2976.78
18624,2.5798,3.9492,10.0748,1269,2976.78
18629,-1.3815,0.3268,12.9191,1269,2976.78
18634,-4.7609,-0.6776,11.8764,1271,2976.78
18639,-0.3029,2.6731,8.3617,1269,2977.08
18644,2.5678,3.9205,9.9766,1273,2977.08
18649,-1.3024,0.4717,12.876,1267,2977.08
18654,-4.6388,-0.8607,12.0225,1270,2977.08
18659,-0.4836,2.6336,8.3677,1269,2977.52
18664,2.5043,3.9744,9.9252,1269,2977.52
18669,-1.2282,0.5782,12.7934,1263,2977.52
18674,-4.5741,-1.0199,12.0811,1270,2977.52
18679,-0.7039,2.5762,8.3606,1261,2977.52
18684,2.4588,3.9528,9.8964,1269,2977.52
18689,-1.1588,0.6668,12.7814,1267,2977.52
18694,-4.4688,-1.1827,12.1997,1271,2977.52
18699,-0.9697,2.5103,8.418,1259,2977.52
18704,2.4193,3.9349,9.8569,1269,2977.52
18709,-1.0259,0.7889,12.6665,1263,2977.52
18714,-4.3754,-1.2941,12.3373,1271,2977.52
18719,-1.1923,2.478,8.424,1261,2977.08
18724,2.3355,3.9816,9.8162,1267,2977.08
18729,-0.9852,0.8859,12.5624,1271,2977.08
18734,-4.2318,-1.4006,12.3756,1269,2977.08
18739,-1.4557,2.3774,8.4623,1263,2976.78
18744,2.3068,4.0247,9.7492,1279,2976.78
18749,-0.8607,1.0211,12.5097,1266,2976.78
18754,-4.1827,-1.488,12.4558,1263,2976.78
18759,-1.725,2.3343,8.582,1268,2977.08
18764,2.2553,3.9792,9.7564,1262,2977.08
18769,-0.735,1.1696,12.4475,1269,2977.08
18774,-4.0749,-1.5969,12.4882,1269,2977.08
18779,-1.962,2.3427,8.6203,1262,2977.22
18784,2.2661,3.978,9.6642,1267,2977.22
18789,-0.583,1.2749,12.293,1268,2977.22
18794,-3.9612,-1.6221,12.6043,1269,2977.22
18799,-2.1871,2.2625,8.7029,1268,2977.37
18804,2.2326,3.954,9.6271,1271,2977.37
18809,-0.3639,1.3779,12.1961,1263,2977.37
18814,-3.7804,-1.7107,12.7144,1267,2977.37
18819,-2.4409,2.1727,8.7568,1263,2977.52
18824,2.2278,3.9002,9.5409,1271,2977.52
18829,-0.1616,1.494,12.0776,1263,2977.52
18834,-3.6751,-1.7813,12.7958,1270,2977.52
18839,-2.6911,2.0997,8.7963,1263,2977.82
18844,2.1464,3.8487,9.4655,1271,2977.82
18849,0.1149,1.5886,11.9782,1267,2977.82
18854,-3.5219,-1.8543,12.8497,1263,2977.82
18859,-2.8802,2.0853,8.9519,1270,2977.96
18864,2.083,3.7673,9.4224,1269,2977.96
18869,0.3244,1.7166,11.9303,1267,2977.96
18874,-3.4381,-1.9237,12.8784,1263,2977.96
18879,-3.1065,1.9704,9.0321,1273,2977.82
18884,2.0554,3.699,9.329,1271,2977.82
18889,0.4705,1.8196,11.8728,1269,2977.82
18894,-3.3184,-1.9381,12.9814,1273,2977.82
18899,-3.3926,1.9309,9.165,1269,2977.67
18904,1.9788,3.6847,9.3518,1271,2977.67
18909,0.6752,1.9716,11.7819,1267,2977.67
18914,-3.1615,-1.8962,13.0616,1273,2977.67
18919,-3.5757,1.834,9.2213,1269,2977.96
18924,2.0075,3.6739,9.3063,1272,2977.96
18929,0.9577,2.083,11.6418,1269,2977.96
18934,-3.0526,-1.8591,13.0855,1263,2977.96
18939,-3.8176,1.7609,9.3709,1264,2977.96
18944,1.9513,3.6188,9.2787,1270,2977.96
18949,1.1313,2.2039,11.5688,1271,2977.96
18954,-2.9197,-1.8172,13.1549,1275,2977.96
18959,-3.9887,1.7262,9.4786,1269,2977.96
18964,1.9261,3.6176,9.1171,1267,2977.96
18969,1.4269,2.3451,11.5053,1272,2977.96
18974,-2.7904,-1.7394,13.1118,1269,2977.96
18979,-4.1743,1.6783,9.6007,1269,2977.22
18984,1.901,3.5638,9.0609,1268,2977.22
18989,1.6412,2.5079,11.3749,1275,2977.22
18994,-2.5833,-1.7382,13.1334,1257,2977.22
18999,-4.3491,1.4688,9.7193,1269,2976.63
19004,1.8435,3.4716,9.0453,1267,2976.63
19009,1.8364,2.5941,11.2695,1273,2976.63
19014,-2.4612,-1.6795,13.1789,1262,2976.63
19019,-4.4724,1.3827,9.845,1272,2976.63
19024,1.7681,3.4477,9.0333,1268,2977.67
19029,2.0267,2.7485,11.1797,1271,2977.67
19034,-2.3451,-1.6017,13.1537,1267,2977.67
19039,-4.6735,1.2258,9.9527,1269,2977.67
19044,1.7214,3.3758,8.934,1272,2977.08
19049,2.1608,2.8683,11.0816,1269,2977.08
19054,-2.2984,-1.4533,13.222,1269,2977.08
19059,-4.792,1.1025,10.1526,1267,2977.08
19064,1.6245,3.3172,8.855,1271,2976.93
19069,2.2661,2.9856,11.0014,1273,2976.93
19074,-2.1368,-1.3922,13.222,1263,2976.93
19079,-4.8722,0.996,10.2987,1275,2976.93
19084,1.506,3.2717,8.8669,1269,2976.93
19089,2.387,3.1615,10.9307,1271,2976.93
19094,-2.0842,-1.2055,13.2112,1257,2976.93
19099,-4.9428,0.9457,10.4148,1277,2976.93
19104,1.391,3.2406,8.7568,1263,2977.37
19109,2.5175,3.2729,10.8002,1267,2977.37
19114,-1.9501,-1.0726,13.2711,1263,2977.37
19119,-4.9991,0.7494,10.6913,1277,2977.37
19124,1.3288,3.2334,8.679,1268,2977.08
19129,2.6025,3.3088,10.7045,1263,2977.08
19134,-1.8507,-0.8859,13.2411,1263,2977.08
19139,-5.0637,0.6009,10.744,1275,2977.08
19144,1.2163,3.1448,8.655,1263,2977.22
19149,2.7054,3.4129,10.6087,1273,2977.22
19154,-1.7059,-0.759,13.2088,1269,2977.22
19159,-5.0398,0.4489,10.8697,1272,2977.22
19164,1.1013,3.0969,8.5665,1263,2976.93
19169,2.7162,3.5207,10.489,1263,2976.93
19174,-1.5957,-0.644,13.1801,1271,2976.93
19179,-5.0266,0.2514,11.0253,1269,2976.93
19184,0.929,3.0215,8.5521,1266,2976.63
19189,2.6923,3.5793,10.4351,1269,2976.63
19194,-1.5933,-0.5148,13.1418,1269,2976.63
19199,-5.0745,0.0611,11.1737,1269,2976.63
19204,0.7386,2.8898,8.5006,1263,2976.63
19209,2.6803,3.644,10.3837,1269,2976.63
19214,-1.5119,-0.3711,13.1549,1267,2976.63
19219,-5.0613,-0.0946,11.2767,1267,2976.63
19224,0.5722,2.8934,8.4803,1259,2976.78
19229,2.6719,3.7206,10.3011,1267,2976.78
19234,-1.5,-0.1556,13.143,1264,2976.78
19239,-5.0865,-0.2179,11.4706,1269,2976.78
19244,0.407,2.8371,8.4587,1271,2976.19
19249,2.6085,3.796,10.1885,1272,2976.19
19254,-1.5024,-0.0215,13.0819,1269,2976.19
19259,-4.9668,-0.3496,11.5772,1261,2976.19
19264,0.2059,2.8252,8.3929,1271,2976.04
19269,2.6205,3.9014,10.1622,1271,2976.04
19274,-1.4736,0.146,13.028,1271,2976.04
19279,-4.9009,-0.4609,11.6969,1271,2976.04
19284,0.0204,2.7473,8.3845,1273,2976.04
19289,2.5702,3.9504,10.0688,1273,2976.04
19294,-1.415,0.2658,12.9574,1267,2976.04
19299,-4.8147,-0.6536,11.8453,1269,2976.04
19304,-0.1628,2.6899,8.4216,1272,2976.19
19309,2.6001,3.978,9.9982,1272,2976.19
19314,-1.3216,0.4226,12.8617,1263,2976.19
19319,-4.64,-0.8009,11.8944,1271,2976.19
19324,-0.4537,2.6288,8.3785,1272,2975.9
19329,2.545,3.9397,9.9587,1271,2975.9
19334,-1.2809,0.4788,12.7946,1267,2975.9
19339,-4.5897,-0.9924,11.995,1273,2975.9
19344,-0.6512,2.5989,8.3809,1270,2975.6
19349,2.4373,3.948,9.8725,1269,2975.6
19354,-1.1121,0.6812,12.6929,1267,2975.6
19359,-4.5083,-1.1576,12.056,1273,2975.6
19364,-0.9026,2.4888,8.4659,1271,2975.16
19369,2.3655,3.9049,9.9144,1273,2975.16
19374,-1.0846,0.7829,12.6426,1272,2975.16
19379,-4.397,-1.2809,12.2942,1271,2975.16
19384,-1.2127,2.4181,8.4252,1270,2975.6
19389,2.3236,3.966,9.8294,1269,2975.6
19394,-1.0056,0.8559,12.5037,1271,2975.6
19399,-4.3503,-1.3779,12.3972,1268,2975.6
19404,-1.4724,2.411,8.5078,1269,2975.75
19409,2.2649,3.9828,9.7779,1261,2975.75
19414,-0.8835,1.0211,12.4786,1269,2975.75
19419,-4.209,-1.4724,12.4654,1275,2975.75
19424,-1.7011,2.3463,8.5353,1263,2975.75
19429,2.2134,4.0067,9.675,1269,2975.75
19434,-0.7506,1.1528,12.3696,1269,2975.75
19439,-4.063,-1.5311,12.5336,1267,2975.75
19444,-1.9764,2.3284,8.6323,1269,2976.04
19449,2.2254,3.9528,9.6666,1271,2976.04
19454,-0.5112,1.3264,12.3194,1269,2976.04
19459,-3.9504,-1.6688,12.5732,1258,2976.04
19464,-2.241,2.2374,8.6945,1263,2976.04
19469,2.1955,3.9409,9.5996,1269,2976.04
19474,-0.2634,1.4234,12.1625,1269,2976.04
19479,-3.7242,-1.7717,12.7228,1271,2976.04
19484,-2.4576,2.1225,8.7867,1271,2976.34
19489,2.2015,3.8738,9.4822,1269,2976.34
19494,-0.0407,1.5586,12.0309,1269,2976.34
19499,-3.6176,-1.8507,12.7767,1271,2976.34
19504,-2.7174,2.053,8.7891,1271,2976.19
19509,2.1177,3.7589,9.4008,1262,2976.19
19514,0.1149,1.6221,11.9878,1269,2976.19
19519,-3.4955,-1.9225,12.8413,1271,2976.19
19524,-2.9928,2.0458,8.9567,1267,2976.19
19529,2.0758,3.7373,9.3709,1267,2976.19
19534,0.3436,1.7561,11.9004,1267,2976.19
19539,-3.3674,-1.8866,12.8928,1273,2976.19
19544,-3.225,1.968,9.0477,1269,2977.22
19549,1.9956,3.7493,9.3386,1271,2977.22
19554,0.5243,1.8878,11.886,1267,2977.22
19559,-3.2513,-1.8854,12.9921,1268,2977.22
19564,-3.4632,1.901,9.2117,1263,2976.49
19569,1.9549,3.6943,9.3015,1263,2976.49
19574,0.759,2.0566,11.7472,1266,2976.49
19579,-3.1041,-1.8567,13.0735,1274,2976.49
19584,-3.7074,1.8459,9.3158,1268,2976.34
19589,1.9249,3.6655,9.2584,1267,2976.34
19594,1.0139,2.2027,11.6107,1269,2976.34
19599,-2.97,-1.8328,13.0652,1270,2976.34
19604,-3.9229,1.7226,9.4068,1271,2975.9
19609,1.9273,3.644,9.2644,1263,2975.9
19614,1.3312,2.3391,11.5269,1274,2975.9
19619,-2.8407,-1.7957,13.1262,1263,2975.9
19624,-4.118,1.5945,9.5828,1268,2975.6
19629,1.8591,3.5674,9.1279,1263,2975.6
19634,1.5862,2.46,11.3952,1273,2975.6
19639,-2.6121,-1.7442,13.1095,1267,2975.6
19644,-4.2832,1.4904,9.7157,1268,2975.16
19649,1.8483,3.4572,9.001,1269,2975.16
19654,1.8591,2.5774,11.3174,1271,2975.16
19659,-2.4612,-1.6783,13.1585,1259,2975.16
19664,-4.4772,1.4078,9.8474,1267,2975.16
19669,1.7753,3.4069,8.9579,1273,2975.6
19674,2.0147,2.7114,11.2156,1268,2975.6
19679,-2.3367,-1.5838,13.1561,1267,2975.6
19684,-4.6184,1.2318,9.9455,1269,2975.6
19689,1.7166,3.3483,8.8813,1272,2975.16
19694,2.144,2.8838,11.0696,1271,2975.16
19699,-2.2362,-1.4748,13.2806,1263,2975.16
19704,-4.7549,1.1301,10.1359,1276,2975.16
19709,1.5921,3.2753,8.8657,1267,2975.3
19714,2.2673,3.0047,10.9978,1269,2975.3
19719,-2.1057,-1.3036,13.2615,1263,2975.3
19724,-4.9081,1.0319,10.386,1277,2975.3
19729,1.5263,3.2298,8.7664,1262,2975.45
19734,2.3631,3.1807,10.9595,1269,2975.45
19739,-2.0722,-1.1588,13.2292,1267,2975.45
19744,-4.9404,0.9086,10.5249,1274,2975.45
19749,1.397,3.2058,8.7173,1269,2975.45
19754,2.5426,3.2789,10.8769,1267,2975.45
19759,-1.9585,-1.0331,13.3405,1263,2975.45
19764,-4.9955,0.7781,10.6698,1273,2975.45
19769,1.2833,3.1268,8.6095,1259,2975.3
19774,2.6336,3.3734,10.7164,1263,2975.3
19779,-1.7873,-0.8727,13.2196,1269,2975.3
19784,-4.9728,0.5578,10.8194,1273,2975.3
19789,1.1313,3.134,8.5545,1269,2975.45
19794,2.7174,3.4931,10.6003,1268,2975.45
19799,-1.6843,-0.6859,13.2375,1271,2975.45
19804,-5.0015,0.3831,10.9451,1269,2975.45
19809,1.0379,3.037,8.4671,1268,2975.75
19814,2.7378,3.5482,10.5285,1268,2975.75
19819,-1.6269,-0.5207,13.301,1267,2975.75
19824,-5.0194,0.1401,11.0528,1270,2975.75
19829,0.8787,2.9652,8.4503,1263,2976.19
19834,2.7318,3.638,10.4351,1267,2976.19
19839,-1.567,-0.3759,13.2172,1263,2976.19
19844,-5.0494,-0.0012,11.2659,1271,2976.19
19849,0.6883,2.8623,8.3761,1259,2976.34
19854,2.6983,3.6847,10.3813,1269,2976.34
19859,-1.5598,-0.255,13.1705,1269,2976.34
19864,-5.0015,-0.1305,11.388,1272,2976.34
19869,0.5088,2.8419,8.4001,1274,2976.19
19874,2.6588,3.8128,10.3513,1269,2976.19
19879,-1.5778,-0.0742,13.1166,1269,2976.19
19884,-4.9716,-0.2538,11.4539,1275,2976.19
19889,0.3017,2.7605,8.3354,1272,2976.49
19894,2.6157,3.8535,10.1921,1269,2976.49
19899,-1.4784,0.079,13.1011,1263,2976.49
19904,-4.9572,-0.4166,11.6765,1271,2976.49
19909,0.0838,2.7665,8.3366,1269,2976.49
19914,2.5905,3.9361,10.1538,1267,2976.49
19919,-1.4413,0.2478,13.0999,1267,2976.49
19924,-4.8399,-0.559,11.7986,1271,2976.49
19929,-0.0802,2.6755,8.2624,1272,2976.63
19934,2.5869,3.9373,10.076,1267,2976.63
19939,-1.4246,0.3843,12.9826,1263,2976.63
19944,-4.7369,-0.7015,11.8633,1267,2976.63
19949,-0.2969,2.6468,8.3474,1271,2976.19
19954,2.5833,3.9337,10.0365,1269,2976.19
19959,-1.2773,0.516,12.8617,1263,2976.19
19964,-4.6208,-0.8667,12.0093,1277,2976.19
19969,-0.5255,2.5594,8.2875,1263,2976.04
19974,2.569,3.9253,9.9395,1268,2976.04
19979,-1.2186,0.6189,12.7755,1262,2976.04
19984,-4.5071,-1.0523,12.1434,1272,2976.04
19989,-0.7566,2.5534,8.3761,1269,2976.04
19994,2.4876,3.9121,9.8174,1266,2976.04
19999,-1.1313,0.741,12.7707,1269,2976.04
20004,-4.4424,-1.1995,12.1901,1271,2976.04
20009,-1.0223,2.4301,8.3713,1263,2976.19
20014,2.3463,3.9349,9.7983,1262,2976.19
20019,-1.0546,0.8475,12.7264,1271,2976.19
20024,-4.4149,-1.2617,12.317,1267,2976.19
20029,-1.2869,2.4469,8.3977,1269,2976.63
20034,2.308,3.972,9.7671,1262,2976.63
20039,-0.9553,0.9816,12.6438,1269,2976.63
20044,-4.2521,-1.4174,12.4127,1267,2976.63
20049,-1.5526,2.3331,8.5054,1263,2977.08
20054,2.2853,3.9361,9.7133,1263,2977.08
20059,-0.832,1.0989,12.536,1269,2977.08
20064,-4.1384,-1.488,12.5588,1261,2977.08
20069,-1.7585,2.32,8.5126,1267,2977.37
20074,2.2541,3.9337,9.6702,1269,2977.37
20079,-0.7027,1.2007,12.402,1267,2977.37
20084,-4.0498,-1.6005,12.5923,1269,2977.37
20089,-1.9848,2.2541,8.5916,1267,2977.82
20094,2.2517,3.9337,9.5445,1271,2977.82
20099,-0.4884,1.3396,12.3565,1260,2977.82
20104,-3.8762,-1.6915,12.7096,1267,2977.82
20109,-2.2302,2.1967,8.6191,1267,2978.11
20114,2.2853,3.899,9.5074,1271,2978.11
20119,-0.3244,1.4365,12.2811,1269,2978.11
20124,-3.7781,-1.7502,12.7264,1265,2978.11
20129,-2.4349,2.156,8.6957,1271,2977.82
20134,2.241,3.8523,9.4727,1269,2977.82
20139,-0.1377,1.5718,12.2128,1270,2977.82
20144,-3.5997,-1.8471,12.7563,1269,2977.82
20149,-2.6528,2.083,8.7688,1271,2977.82
20154,2.1668,3.8092,9.4176,1269,2977.82
20159,0.067,1.6496,12.0632,1269,2977.82
20164,-3.48,-1.8735,12.8748,1271,2977.82
20169,-2.9365,1.974,8.8346,1269,2978.11
20174,2.1644,3.7876,9.3805,1273,2978.11
20179,0.2562,1.8016,11.9519,1268,2978.11
20184,-3.4153,-1.8603,12.949,1275,2978.11
20189,-3.1484,1.9561,8.9423,1269,2978.26
20194,2.0566,3.6955,9.2955,1272,2978.26
20199,0.4812,1.8902,11.9758,1267,2978.26
20204,-3.2872,-1.8926,13.0077,1272,2978.26
20209,-3.3914,1.889,9.1423,1268,2978.26
20214,1.9728,3.6631,9.2907,1272,2978.26
20219,0.6895,2.0039,11.8705,1269,2978.26
20224,-3.1999,-1.8639,13.0077,1271,2978.26
20229,-3.65,1.8459,9.1901,1271,2978.41
20234,1.9345,3.6332,9.1746,1261,2978.41
20239,0.9792,2.1524,11.789,1271,2978.41
20244,-3.055,-1.804,13.0544,1272,2978.41
20249,-3.8104,1.7478,9.2787,1271,2978.7
20254,1.9716,3.6164,9.1794,1259,2978.7
20259,1.2115,2.2374,11.6119,1277,2978.7
20264,-2.9257,-1.816,13.1286,1267,2978.7
20269,-3.9899,1.6688,9.3925,1269,2978.85
20274,1.9225,3.5781,9.1638,1268,2978.85
20279,1.4365,2.3942,11.5197,1274,2978.85
20284,-2.7414,-1.7238,13.1274,1263,2978.85
20289,-4.1659,1.5862,9.5553,1272,2978.85
20294,1.9297,3.5039,9.0621,1269,2978.85
20299,1.6951,2.4768,11.4132,1275,2978.85
20304,-2.6552,-1.7142,13.1406,1267,2978.85
20309,-4.306,1.4808,9.7109,1270,2978.85
20314,1.8986,3.4429,8.9519,1267,2978.85
20319,1.8603,2.6193,11.3856,1271,2978.85
20324,-2.5402,-1.6879,13.1466,1267,2978.85
20329,-4.4772,1.4305,9.8318,1271,2978.85
20334,1.8088,3.3938,8.8933,1273,2978.7
20339,2.0411,2.7043,11.303,1264,2978.7
20344,-2.4313,-1.585,13.2124,1261,2978.7
20349,-4.5825,1.3324,9.9587,1274,2978.7
20354,1.7238,3.3303,8.8681,1271,2978.41
20359,2.1344,2.8575,11.1414,1273,2978.41
20364,-2.3056,-1.5299,13.2627,1268,2978.41
20369,-4.7142,1.166,10.0892,1277,2978.41
20374,1.6544,3.3232,8.8071,1271,2978.55
20379,2.2948,2.9485,11.1055,1272,2978.55
20384,-2.2434,-1.4066,13.2962,1269,2978.55
20389,-4.8375,1.1001,10.2173,1277,2978.55
20394,1.5479,3.2561,8.7388,1267,2977.96
20399,2.3727,3.128,10.9882,1268,2977.96
20404,-2.1464,-1.2474,13.2543,1261,2977.96
20409,-4.9189,0.9218,10.4435,1276,2977.96
20414,1.4114,3.2082,8.6335,1267,2977.82
20419,2.4636,3.225,10.8793,1271,2977.82
20424,-2.0004,-1.0977,13.2483,1269,2977.82
20429,-4.9512,0.8571,10.55,1286,2977.82
20434,1.403,3.1699,8.6287,1270,2978.11
20439,2.6336,3.3459,10.7967,1269,2978.11
20444,-1.9297,-0.9577,13.2603,1272,2978.11
20449,-5.0194,0.7027,10.6901,1272,2978.11
20454,1.2881,3.0981,8.5868,1269,2978.55
20459,2.6983,3.4285,10.6686,1267,2978.55
20464,-1.8064,-0.8104,13.301,1271,2978.55
20469,-5.0123,0.5614,10.8338,1267,2978.55
20474,1.1636,3.0646,8.5078,1271,2979.15
20479,2.7342,3.5003,10.6446,1267,2979.15
20484,-1.7202,-0.668,13.277,1271,2979.15
20489,-5.0973,0.3519,10.89,1271,2979.15
20494,1.0702,3.0239,8.497,1268,2979.15
20499,2.7677,3.5267,10.5919,1269,2979.15
20504,-1.6676,-0.5878,13.2747,1267,2979.15
20509,-5.0673,0.2322,11.0732,1270,2979.15
20514,0.8859,2.9568,8.4611,1264,2979.0
20519,2.7701,3.6308,10.4698,1269,2979.0
20524,-1.5862,-0.4369,13.2316,1261,2979.0
20529,-5.0973,0.1006,11.248,1273,2979.0
20534,0.7338,2.8515,8.4384,1268,2979.0
20539,2.7426,3.6847,10.3932,1269,2979.0
20544,-1.5802,-0.3771,13.1968,1269,2979.0
20549,-5.0805,0.0024,11.2599,1271,2979.0
20554,0.5399,2.8479,8.4108,1277,2978.85
20559,2.7126,3.7685,10.3298,1273,2978.85
20564,-1.5957,-0.1772,13.1885,1269,2978.85
20569,-5.0506,-0.1437,11.4335,1271,2978.85
20574,0.4082,2.8192,8.3641,1273,2978.85
20579,2.7162,3.7745,10.1897,1269,2978.85
20584,-1.5526,-0.0108,13.1537,1271,2978.85
20589,-4.9752,-0.2765,11.558,1272,2978.85
20594,0.2382,2.8168,8.3629,1275,2979.0
20599,2.6875,3.8571,10.1119,1270,2979.0
20604,-1.4856,0.1341,13.0903,1268,2979.0
20609,-4.9261,-0.4118,11.6705,1271,2979.0
20614,0.0934,2.7569,8.3151,1273,2978.7
20619,2.6935,3.9157,10.0808,1273,2978.7
20624,-1.397,0.2298,13.0532,1267,2978.7
20629,-4.8088,-0.5758,11.7986,1275,2978.7
20634,-0.1317,2.7198,8.2612,1273,2977.96
20639,2.636,3.9205,10.0209,1273,2977.96
20644,-1.3587,0.3855,12.9622,1269,2977.96
20649,-4.7441,-0.7422,11.9327,1277,2977.96
20654,-0.316,2.636,8.2875,1269,2978.55
20659,2.5941,3.9397,9.9611,1263,2978.55
20664,-1.3384,0.4345,12.9275,1272,2978.55
20669,-4.6448,-0.8787,11.9997,1275,2978.55
20674,-0.5207,2.5917,8.2983,1269,2978.11
20679,2.5259,3.948,9.8773,1271,2978.11
20684,-1.2522,0.6045,12.9024,1271,2978.11
20689,-4.5957,-1.0451,12.0716,1279,2978.11
20694,-0.7051,2.5127,8.2456,1273,2978.41
20699,2.4756,3.9337,9.8402,1274,2978.41
20704,-1.2019,0.7518,12.8497,1286,2978.41
20709,-4.4963,-1.1588,12.1853,1277,2978.41
20714,-0.9685,2.4816,8.3438,1276,2978.41
20719,2.3643,3.9361,9.8198,1277,2978.41
20724,-1.1768,0.8499,12.7671,1277,2978.41
20729,-4.4317,-1.257,12.3218,1275,2978.41
20734,-1.2175,2.4289,8.3665,1275,2978.7
20739,2.3882,3.9983,9.7935,1279,2978.7
20744,-1.0558,0.9337,12.6641,1277,2978.7
20749,-4.3155,-1.3527,12.3661,1285,2978.7
20754,-1.4198,2.3739,8.3749,1275,2978.41
20759,2.3846,4.0079,9.7109,1269,2978.41
20764,-0.9433,1.081,12.6103,1273,2978.41
20769,-4.1994,-1.4413,12.5181,1270,2978.41
20774,-1.6305,2.3343,8.5425,1271,2977.82
20779,2.3236,3.9684,9.675,1271,2977.82
20784,-0.7901,1.2019,12.469,1269,2977.82
20789,-4.0462,-1.5562,12.5301,1271,2977.82
20794,-1.8364,2.2565,8.5281,1270,2977.67
20799,2.3164,3.9373,9.5828,1273,2977.67
20804,-0.6009,1.2977,12.4498,1269,2977.67
20809,-3.9289,-1.6269,12.6198,1263,2977.67
20814,-2.1105,2.1823,8.5856,1270,2977.67
20819,2.2936,3.8607,9.5577,1269,2977.67
20824,-0.4441,1.3779,12.3265,1267,2977.67
20829,-3.8104,-1.737,12.6833,1263,2977.67
20834,-2.3523,2.1368,8.6431,1271,2977.22
20839,2.1727,3.8666,9.5565,1269,2977.22
20844,-0.2263,1.5036,12.1769,1271,2977.22
20849,-3.7086,-1.7753,12.7431,1267,2977.22
20854,-2.6276,2.0614,8.7388,1269,2977.82
20859,2.1021,3.8008,9.4427,1273,2977.82
20864,0.0024,1.6352,12.0967,1269,2977.82
20869,-3.5877,-1.8663,12.8126,1273,2977.82
20874,-2.8276,2.0435,8.8526,1269,2977.82
20879,2.065,3.7553,9.3793,1269,2977.82
20884,0.182,1.7238,12.1039,1263,2977.82
20889,-3.48,-1.8459,12.8724,1275,2977.82
20894,-3.1137,1.9944,9.0094,1263,2978.26
20899,2.0566,3.7278,9.3075,1267,2978.26
20904,0.4178,1.8375,11.9854,1263,2978.26
20909,-3.4117,-1.8783,12.9227,1273,2978.26
20914,-3.3471,1.9752,9.0884,1267,2978.41
20919,2.0399,3.699,9.2943,1268,2978.41
20924,0.6452,1.9836,11.8669,1268,2978.41
20929,-3.2417,-1.8794,13.0412,1271,2978.41
20934,-3.5243,1.901,9.1363,1271,2978.55
20939,2.0794,3.6763,9.244,1263,2978.55
20944,0.8811,2.0865,11.7531,1271,2978.55
20949,-3.0526,-1.8507,13.0819,1263,2978.55
20954,-3.7014,1.8244,9.2787,1269,2978.41
20959,2.0363,3.6452,9.1949,1263,2978.41
20964,1.1349,2.247,11.6598,1267,2978.41
20969,-2.9233,-1.8471,13.0616,1266,2978.41
20974,-3.8966,1.664,9.3709,1269,2977.96
20979,1.9824,3.5602,9.0908,1267,2977.96
20984,1.3539,2.2901,11.5532,1271,2977.96
20989,-2.812,-1.8328,13.1262,1261,2977.96
20994,-4.0474,1.5909,9.5337,1267,2977.96
20999,1.9776,3.4955,8.989,1263,2977.96
21004,1.585,2.4732,11.4778,1273,2977.96
21009,-2.6707,-1.7968,13.1717,1270,2977.96
21014,-4.2497,1.4832,9.6534,1267,2977.96
21019,1.883,3.4153,8.9675,1271,2977.67
21024,1.7693,2.5869,11.3677,1263,2977.67
21029,-2.6001,-1.7142,13.2399,1269,2977.67
21034,-4.3981,1.3743,9.7935,1267,2977.67
21039,1.7933,3.4093,8.9711,1271,2977.22
21044,1.8842,2.733,11.3054,1268,2977.22
21049,-2.4744,-1.6161,13.1932,1263,2977.22
21054,-4.5933,1.2629,9.9383,1269,2977.22
21059,1.6963,3.3052,8.9555,1269,2977.52
21064,2.0494,2.879,11.1941,1272,2977.52
21069,-2.3607,-1.4736,13.2998,1262,2977.52
21074,-4.7106,1.1911,10.143,1275,2977.52
21079,1.664,3.3279,8.8035,1259,2977.37
21084,2.2362,3.0095,11.0828,1269,2977.37
21089,-2.2458,-1.3539,13.3034,1263,2977.37
21094,-4.798,1.1049,10.258,1271,2977.37
21099,1.5718,3.2561,8.7604,1263,2977.22
21104,2.4002,3.1472,11.0133,1266,2977.22
21109,-2.0877,-1.2067,13.295,1263,2977.22
21114,-4.8518,0.9601,10.4076,1273,2977.22
21119,1.5634,3.2561,8.6706,1269,2977.08
21124,2.5953,3.2034,10.8697,1263,2977.08
21129,-1.9417,-1.1121,13.2423,1269,2977.08
21134,-4.9213,0.7841,10.6171,1273,2977.08
21139,1.3767,3.1556,8.6682,1267,2976.93
21144,2.5833,3.2657,10.7715,1263,2976.93
21149,-1.7968,-0.9804,13.2747,1271,2976.93
21154,-5.0063,0.6764,10.647,1271,2976.93
21159,1.2474,3.1089,8.5688,1267,2977.08
21164,2.7114,3.3662,10.6817,1268,2977.08
21169,-1.7789,-0.8763,13.3225,1263,2977.08
21174,-5.0566,0.4764,10.8122,1263,2977.08
21179,1.1337,3.0095,8.5581,1264,2976.93
21184,2.6911,3.5027,10.5836,1268,2976.93
21189,-1.7059,-0.6859,13.2004,1263,2976.93
21194,-5.0781,0.3005,10.9786,1269,2976.93
21199,0.9601,2.9712,8.5126,1266,2976.93
21204,2.6743,3.5841,10.562,1271,2976.93
21209,-1.7083,-0.5375,13.2112,1269,2976.93
21214,-5.1128,0.2143,11.163,1269,2976.93
21219,0.8691,2.9413,8.4563,1271,2976.49
21224,2.6707,3.6895,10.4172,1271,2976.49
21229,-1.6747,-0.401,13.198,1272,2976.49
21234,-5.0482,0.0575,11.2587,1267,2976.49
21239,0.6524,2.9281,8.4144,1275,2976.19
21244,2.6624,3.7721,10.3908,1271,2976.19
21249,-1.6257,-0.1652,13.1909,1267,2976.19
21254,-5.0302,-0.0922,11.4431,1269,2976.19
21259,0.4848,2.8407,8.4132,1273,2976.04
21264,2.6923,3.8439,10.2568,1269,2976.04
21269,-1.5706,-0.0215,13.0807,1267,2976.04
21274,-4.95,-0.2514,11.5149,1269,2976.04
21279,0.3112,2.8419,8.4036,1271,2976.19
21284,2.7306,3.8978,10.2185,1269,2976.19
21289,-1.4688,0.1544,13.0628,1262,2976.19
21294,-4.8698,-0.4082,11.6765,1267,2976.19
21299,0.1508,2.7198,8.2815,1272,2976.19
21304,2.7019,3.9073,10.07,1271,2976.19
21309,-1.4042,0.2334,13.0304,1267,2976.19
21314,-4.7776,-0.6393,11.7902,1272,2976.19
21319,-0.0946,2.6635,8.3282,1266,2976.19
21324,2.6037,3.8666,10.0748,1271,2976.19
21329,-1.3396,0.3603,12.9347,1268,2976.19
21334,-4.7525,-0.7949,11.8752,1275,2976.19
21339,-0.3699,2.5726,8.2636,1263,2976.34
21344,2.4948,3.8918,9.9539,1269,2976.34
21349,-1.3204,0.4693,12.9239,1269,2976.34
21354,-4.6519,-0.9553,12.0153,1267,2976.34
21359,-0.6201,2.5534,8.3857,1268,2976.19
21364,2.4086,3.9337,9.8988,1262,2976.19
21369,-1.2689,0.6345,12.8042,1273,2976.19
21374,-4.6471,-1.0678,12.1697,1266,2976.19
21379,-0.8296,2.5127,8.406,1267,2976.19
21384,2.393,3.9947,9.9048,1267,2976.19
21389,-1.2378,0.8116,12.7683,1271,2976.19
21394,-4.5047,-1.142,12.202,1261,2976.19
21399,-1.0367,2.4756,8.3965,1263,2976.49
21404,2.381,4.0139,9.8677,1269,2976.49
21409,-1.1121,0.8583,12.6881,1270,2976.49
21414,-4.3682,-1.2414,12.3756,1263,2976.49
21419,-1.2989,2.4181,8.4288,1268,2976.63
21424,2.3978,4.0163,9.7288,1269,2976.63
21429,-0.9481,1.0175,12.5564,1269,2976.63
21434,-4.1994,-1.3659,12.4235,1269,2976.63
21439,-1.5215,2.3475,8.4731,1264,2976.49
21444,2.3858,3.9612,9.6319,1271,2976.49
21449,-0.7889,1.142,12.4929,1261,2976.49
21454,-4.0785,-1.5419,12.5049,1262,2976.49
21459,-1.8052,2.2781,8.5258,1270,2976.78
21464,2.308,3.8918,9.6127,1268,2976.78
21469,-0.6381,1.2318,12.4391,1271,2976.78
21474,-3.9636,-1.6412,12.5301,1264,2976.78
21479,-2.0638,2.1739,8.6251,1273,2976.63
21484,2.241,3.8104,9.5517,1267,2976.63
21489,-0.425,1.3336,12.3385,1272,2976.63
21494,-3.875,-1.7478,12.6725,1269,2976.63
21499,-2.3284,2.1608,8.7149,1271,2976.78
21504,2.1727,3.7972,9.5277,1271,2976.78
21509,-0.328,1.4485,12.1901,1267,2976.78
21514,-3.7541,-1.8292,12.7336,1269,2976.78
21519,-2.5941,2.1272,8.7161,1271,2976.93
21524,2.1117,3.8164,9.4858,1271,2976.93
21529,-0.1341,1.5874,12.1613,1269,2976.93
21534,-3.6847,-1.7861,12.8796,1277,2976.93
21539,-2.8204,2.0937,8.8478,1272,2976.93
21544,2.0722,3.7673,9.4044,1267,2976.93
21549,0.1137,1.7322,12.1099,1269,2976.93
21554,-3.559,-1.7801,12.8593,1273,2976.93
21559,-3.0754,2.0207,8.9651,1267,2976.04
21564,2.0542,3.7792,9.3673,1269,2976.04
21569,0.3699,1.8902,12.0129,1269,2976.04
21574,-3.4117,-1.8172,12.9191,1273,2976.04
21579,-3.3016,1.9836,9.092,1271,2975.75
21584,2.0949,3.7338,9.2656,1263,2975.75
21589,0.6656,2.0135,11.8501,1275,2975.75
21594,-3.2214,-1.883,12.9933,1269,2975.75
21599,-3.5099,1.8711,9.1973,1269,2976.04
21604,2.0626,3.6811,9.2464,1269,2976.04
21609,0.9553,2.1129,11.7495,1275,2976.04
21614,-2.988,-1.8495,13.0245,1263,2976.04
21619,-3.7122,1.7178,9.2859,1268,2975.45
21624,2.0423,3.5757,9.1937,1267,2975.45
21629,1.2234,2.2266,11.6095,1271,2975.45
21634,-2.8934,-1.8723,13.0604,1263,2975.45
21639,-3.9756,1.5993,9.4236,1259,2975.45
21644,1.9537,3.5231,9.1494,1269,2975.6
21649,1.3827,2.3643,11.5293,1270,2975.6
21654,-2.7282,-1.81,13.1346,1267,2975.6
21659,-4.197,1.4988,9.5792,1268,2975.6
21664,1.8459,3.4058,9.0345,1273,2975.9
21669,1.6197,2.5367,11.4072,1269,2975.9
21674,-2.6456,-1.7478,13.2088,1269,2975.9
21679,-4.3934,1.4401,9.748,1272,2975.9
21684,1.7693,3.3998,8.9926,1272,2976.04
21689,1.8375,2.7378,11.3126,1271,2976.04
21694,-2.5187,-1.6759,13.1693,1263,2976.04
21699,-4.561,1.385,9.9204,1275,2976.04
21704,1.731,3.383,8.9304,1268,2976.04
21709,2.0087,2.8311,11.2396,1269,2976.04
21714,-2.3415,-1.5598,13.2495,1263,2976.04
21719,-4.6807,1.2486,10.0329,1277,2976.04
21724,1.658,3.3639,8.8023,1267,2976.19
21729,2.2278,2.9712,11.0792,1267,2976.19
21734,-2.2374,-1.3994,13.2962,1263,2976.19
21739,-4.7968,1.1492,10.2185,1271,2976.19
21744,1.6113,3.31,8.746,1267,2976.04
21749,2.3906,3.0957,10.9463,1263,2976.04
21754,-2.1033,-1.251,13.2339,1263,2976.04
21759,-4.877,0.9301,10.3872,1272,2976.04
21764,1.5598,3.2382,8.6969,1271,2976.04
21769,2.563,3.1831,10.9092,1261,2976.04
21774,-1.98,-1.1073,13.2627,1269,2976.04
21779,-4.9452,0.8164,10.5405,1263,2976.04
21784,1.3635,3.158,8.6275,1269,2976.04
21789,2.6516,3.2453,10.7775,1263,2976.04
21794,-1.8938,-1.0355,13.1849,1268,2976.04
21799,-4.9943,0.6117,10.6135,1267,2976.04
21804,1.2582,3.1041,8.6263,1268,2975.6
21809,2.6647,3.4153,10.7284,1268,2975.6
21814,-1.816,-0.8607,13.2328,1263,2975.6
21819,-5.035,0.4441,10.7955,1271,2975.6
21824,1.0834,3.0035,8.5401,1267,2975.6
21829,2.648,3.474,10.6207,1269,2975.6
21834,-1.7154,-0.6907,13.2603,1263,2975.6
21839,-5.0781,0.3136,10.9271,1269,2975.6
21844,0.9254,2.9652,8.5114,1267,2976.19
21849,2.6647,3.5817,10.5848,1272,2976.19
21854,-1.737,-0.5088,13.1921,1267,2976.19
21859,-5.1056,0.2418,11.1414,1269,2976.19
21864,0.8368,2.9209,8.436,1273,2976.04
21869,2.6276,3.6966,10.4722,1270,2976.04
21874,-1.6424,-0.3675,13.1932,1271,2976.04
21879,-5.0434,0.103,11.2683,1267,2976.04
21884,0.6381,2.9173,8.3989,1275,2976.19
21889,2.6875,3.7984,10.3872,1263,2976.19
21894,-1.64,-0.1999,13.1609,1264,2976.19
21899,-5.0314,-0.0718,11.4287,1269,2976.19
21904,0.5076,2.8611,8.3773,1275,2975.6
21909,2.7102,3.8164,10.2879,1269,2975.6
21914,-1.5347,-0.0539,13.0915,1263,2975.6
21919,-4.9021,-0.237,11.5484,1262,2975.6
21924,0.2801,2.8072,8.3869,1289,2975.45
21929,2.6923,3.814,10.1646,1271,2975.45
21934,-1.3922,0.0886,13.0077,1263,2975.45
21939,-4.798,-0.5004,11.625,1276,2975.45
21944,0.0886,2.7354,8.3246,1269,2975.45
21949,2.6707,3.8774,10.076,1267,2975.45
21954,-1.3611,0.2155,12.9622,1264,2975.45
21959,-4.786,-0.6847,11.8022,1273,2975.45
21964,-0.1676,2.648,8.345,1267,2975.45
21969,2.5558,3.881,10.0078,1267,2975.45
21974,-1.3372,0.3879,12.8988,1269,2975.45
21979,-4.6926,-0.8056,11.9291,1271,2975.45
21984,-0.3711,2.5893,8.3007,1269,2975.45
21989,2.5031,3.9133,10.0317,1263,2975.45
21994,-1.324,0.4824,12.894,1273,2975.45
21999,-4.6723,-1.0008,12.0261,1267,2975.45
22004,-0.6572,2.5379,8.339,1267,2975.6
22009,2.4373,3.9935,9.8689,1259,2975.6
22014,-1.2821,0.6764,12.7922,1263,2975.6
22019,-4.5657,-1.0989,12.1757,1263,2975.6
22024,-0.9122,2.5223,8.3725,1269,2975.75
22029,2.3475,3.966,9.8414,1267,2975.75
22034,-1.1672,0.7901,12.7611,1269,2975.75
22039,-4.4436,-1.2055,12.2799,1267,2975.75
22044,-1.0977,2.4588,8.4013,1267,2976.34
22049,2.387,4.0079,9.7612,1267,2976.34
22054,-1.0714,0.9349,12.6414,1270,2976.34
22059,-4.3359,-1.3001,12.3457,1269,2976.34
22064,-1.3635,2.4529,8.4479,1267,2976.49
22069,2.3978,3.9732,9.7624,1272,2976.49
22074,-0.9445,1.0283,12.5456,1269,2976.49
22079,-4.1503,-1.4389,12.4355,1269,2976.49
22084,-1.6221,2.3403,8.4791,1269,2976.34
22089,2.3571,3.9732,9.6534,1261,2976.34
22094,-0.7745,1.1768,12.4463,1267,2976.34
22099,-4.0402,-1.5395,12.5684,1263,2976.34
22104,-1.8627,2.2146,8.5928,1271,2976.04
22109,2.2901,3.875,9.6486,1263,2976.04
22114,-0.6369,1.245,12.4032,1260,2976.04
22119,-3.9181,-1.6927,12.5947,1267,2976.04
22124,-2.077,2.1919,8.6036,1269,2975.75
22129,2.2266,3.8331,9.5181,1271,2975.75
22134,-0.4585,1.3934,12.3732,1269,2975.75
22139,-3.8331,-1.7825,12.7264,1270,2975.75
22144,-2.3739,2.162,8.7233,1270,2975.75
22149,2.1117,3.796,9.4906,1269,2975.75
22154,-0.2239,1.5311,12.2104,1262,2975.75
22159,-3.7146,-1.804,12.7383,1273,2975.75
22164,-2.6695,2.0806,8.7496,1270,2976.63
22169,2.0961,3.7828,9.5229,1267,2976.63
22174,-0.0215,1.6281,12.1099,1270,2976.63
22179,-3.5973,-1.8663,12.8569,1273,2976.63
22184,-2.9293,2.0554,8.849,1273,2975.45
22189,2.0387,3.7565,9.4583,1267,2975.45
22194,0.2059,1.7873,12.0057,1273,2975.45
22199,-3.4117,-1.8723,12.9155,1269,2975.45
22204,-3.1867,1.9812,8.9316,1267,2975.9
22209,2.077,3.7769,9.3625,1267,2975.9
22214,0.516,1.901,11.8728,1276,2975.9
22219,-3.2896,-1.8399,12.9371,1263,2975.9
22224,-3.389,1.8818,9.0956,1271,2975.16
22229,2.0662,3.7134,9.2763,1267,2975.16
22234,0.7805,2.0494,11.7831,1275,2975.16
22239,-3.0885,-1.8567,12.9921,1262,2975.16
22244,-3.6272,1.7957,9.244,1269,2976.19
22249,2.0004,3.6643,9.2081,1267,2976.19
22254,1.0271,2.1428,11.7531,1272,2976.19
22259,-2.9137,-1.8711,13.0747,1260,2976.19
22264,-3.8726,1.7095,9.3589,1269,2976.19
22269,1.998,3.5674,9.104,1271,2975.3
22274,1.2905,2.2901,11.5185,1269,2975.3
22279,-2.7785,-1.8747,13.1095,1263,2975.3
22284,-4.0642,1.5862,9.5146,1263,2975.3
22289,1.8926,3.5207,9.1099,1271,2975.75
22294,1.5467,2.4385,11.461,1263,2975.75
22299,-2.6755,-1.7502,13.1142,1262,2975.75
22304,-4.3048,1.4712,9.6522,1275,2975.75
22309,1.8759,3.4608,9.0585,1269,2975.3
22314,1.737,2.5917,11.3737,1268,2975.3
22319,-2.5821,-1.7286,13.2375,1259,2975.3
22324,-4.4688,1.3803,9.8593,1276,2975.3
22329,1.7669,3.4189,8.922,1271,2975.3
22334,1.9249,2.7258,11.2839,1258,2975.3
22339,-2.4409,-1.5933,13.2531,1260,2975.3
22344,-4.6076,1.2845,10.0137,1274,2975.3
22349,1.6783,3.3315,8.8394,1264,2975.75
22354,2.1069,2.8695,11.1438,1263,2975.75
22359,-2.3547,-1.4641,13.2435,1263,2975.75
22364,-4.7297,1.1468,10.1167,1273,2975.75
22369,1.6664,3.2908,8.7724,1267,2975.75
22374,2.2936,3.0275,11.0684,1261,2975.75
22379,-2.1883,-1.3312,13.2579,1267,2975.75
22384,-4.786,1.0379,10.2735,1274,2975.75
22389,1.5706,3.2717,8.7724,1267,2975.75
22394,2.4134,3.1496,10.908,1263,2975.75
22399,-2.0315,-1.1947,13.3225,1269,2975.75
22404,-4.8866,0.8356,10.4208,1254,2975.75
22409,1.4389,3.2094,8.6957,1269,2975.6
22414,2.5953,3.2417,10.7787,1267,2975.6
22419,-1.9285,-1.0247,13.2926,1263,2975.6
22424,-4.9919,0.7207,10.5991,1266,2975.6
22429,1.2965,3.1568,8.5952,1267,2975.16
22434,2.636,3.3603,10.7392,1271,2975.16
22439,-1.8172,-0.9026,13.2914,1262,2975.16
22444,-4.9763,0.5363,10.732,1272,2975.16
22449,1.154,3.0706,8.5329,1267,2975.6
22454,2.6863,3.4453,10.6482,1268,2975.6
22459,-1.7466,-0.7242,13.2328,1262,2975.6
22464,-5.0506,0.3867,10.9391,1272,2975.6
22469,0.9876,3.0023,8.5449,1272,2975.75
22474,2.6947,3.5338,10.5381,1271,2975.75
22479,-1.6652,-0.6117,13.1932,1263,2975.75
22484,-5.0613,0.2394,10.9786,1263,2975.75
22489,0.8607,2.9245,8.4731,1271,2976.19
22494,2.6791,3.6248,10.471,1267,2976.19
22499,-1.6388,-0.4202,13.2148,1269,2976.19
22504,-5.0925,0.1185,11.1941,1269,2976.19
22509,0.7063,2.9437,8.4324,1273,2976.49
22514,2.6576,3.7182,10.3394,1267,2976.49
22519,-1.5886,-0.3268,13.21,1266,2976.49
22524,-5.0254,-0.0682,11.327,1274,2976.49
22529,0.5004,2.8623,8.4276,1273,2976.63
22534,2.6875,3.7649,10.3094,1267,2976.63
22539,-1.5718,-0.1401,13.1106,1259,2976.63
22544,-4.9632,-0.2119,11.5257,1274,2976.63
22549,0.3723,2.8467,8.3749,1272,2976.63
22554,2.6923,3.9145,10.234,1269,2976.63
22559,-1.4736,0.0371,13.0807,1263,2976.63
22564,-4.8782,-0.3903,11.6071,1277,2976.63
22569,0.1676,2.7605,8.3426,1267,2977.08
22574,2.636,3.9073,10.0987,1271,2977.08
22579,-1.4186,0.146,13.0771,1263,2977.08
22584,-4.8147,-0.5148,11.7448,1269,2977.08
22589,-0.012,2.7438,8.345,1267,2976.63
22594,2.569,3.9133,9.991,1269,2976.63
22599,-1.3982,0.2969,13.0328,1267,2976.63
22604,-4.7525,-0.7542,11.8034,1273,2976.63
22609,-0.2274,2.654,8.2851,1267,2977.82
22614,2.5714,3.8822,9.9659,1263,2977.82
22619,-1.3072,0.4405,12.949,1273,2977.82
22624,-4.7262,-0.8559,11.9806,1269,2977.82
22629,-0.4393,2.5738,8.3199,1267,2977.52
22634,2.5151,3.9684,9.9323,1263,2977.52
22639,-1.3072,0.5207,12.8413,1267,2977.52
22644,-4.6136,-1.0415,12.0787,1263,2977.52
22649,-0.7398,2.5391,8.3366,1263,2977.08
22654,2.4325,3.948,9.9036,1266,2977.08
22659,-1.227,0.6776,12.8174,1270,2977.08
22664,-4.5418,-1.0642,12.1853,1268,2977.08
22669,-0.9086,2.4732,8.3881,1263,2976.93
22674,2.4098,3.9971,9.839,1268,2976.93
22679,-1.2067,0.8021,12.7922,1263,2976.93
22684,-4.464,-1.2306,12.3206,1267,2976.93
22689,-1.1791,2.4433,8.3677,1269,2976.63
22694,2.3499,3.978,9.8078,1273,2976.63
22699,-1.0953,0.9373,12.6905,1269,2976.63
22704,-4.3275,-1.2893,12.4056,1271,2976.63
22709,-1.4054,2.4553,8.4635,1271,2976.63
22714,2.3631,3.9863,9.6989,1271,2976.63
22719,-0.923,1.1037,12.6019,1269,2976.63
22724,-4.1396,-1.4593,12.4247,1268,2976.63
22729,-1.6508,2.2996,8.4958,1271,2976.19
22734,2.3595,3.948,9.6067,1267,2976.19
22739,-0.7829,1.16,12.5348,1269,2976.19
22744,-4.0235,-1.555,12.4834,1271,2976.19
22749,-1.883,2.2422,8.5437,1268,2975.16
22754,2.2901,3.966,9.6558,1269,2975.16
22759,-0.5818,1.2737,12.378,1267,2975.16
22764,-3.8295,-1.6484,12.5947,1269,2975.16
22769,-2.2003,2.1608,8.5665,1261,2974.71
22774,2.2242,3.8427,9.6175,1273,2974.71
22779,-0.3112,1.391,12.3158,1269,2974.71
22784,-3.7637,-1.7526,12.6797,1275,2974.71
22789,-2.4612,2.1021,8.7209,1271,2974.57
22794,2.1428,3.8164,9.4834,1267,2974.57
22799,-0.164,1.5287,12.1937,1269,2974.57
22804,-3.6093,-1.8399,12.7431,1275,2974.57
22809,-2.7414,2.0303,8.8478,1267,2973.98
22814,2.0411,3.7601,9.4607,1269,2973.98
22819,0.0551,1.6843,12.0752,1271,2973.98
22824,-3.4788,-1.8771,12.7611,1270,2973.98
22829,-2.9928,2.0387,8.9567,1267,2974.86
22834,2.0435,3.7553,9.4344,1268,2974.86
22839,0.3603,1.8184,11.9662,1273,2974.86
22844,-3.3734,-1.8591,12.8976,1267,2974.86
22849,-3.2944,1.9513,9.074,1263,2974.57
22854,2.0291,3.7338,9.3278,1269,2974.57
22859,0.577,1.9441,11.813,1273,2974.57
22864,-3.1939,-1.8208,13.0233,1263,2974.57
22869,-3.5578,1.913,9.1794,1269,2975.01
22874,2.0327,3.7122,9.2416,1267,2975.01
22879,0.8966,2.0889,11.6789,1272,2975.01
22884,-3.037,-1.8208,13.0448,1270,2975.01
22889,-3.7972,1.7669,9.3111,1263,2975.01
22894,2.0111,3.638,9.1363,1271,2975.9
22899,1.1875,2.211,11.6634,1261,2975.9
22904,-2.8371,-1.7992,13.0867,1259,2975.9
22909,-3.9708,1.6747,9.4571,1263,2975.9
22914,1.9788,3.5853,9.1183,1272,2976.19
22919,1.4772,2.3571,11.5029,1271,2976.19
22924,-2.7581,-1.8196,13.1083,1271,2976.19
22929,-4.1599,1.567,9.5648,1273,2976.19
22934,1.8986,3.5147,9.0034,1269,2976.04
22939,1.7358,2.4852,11.4024,1271,2976.04
22944,-2.6097,-1.7478,13.1753,1263,2976.04
22949,-4.361,1.4617,9.6929,1275,2976.04
22954,1.8435,3.4177,8.9759,1269,2976.34
22959,1.8783,2.6085,11.3042,1271,2976.34
22964,-2.4983,-1.7011,13.1741,1263,2976.34
22969,-4.5514,1.3527,9.8617,1273,2976.34
22974,1.7418,3.3555,8.9028,1267,2976.04
22979,2.0219,2.7869,11.2372,1263,2976.04
22984,-2.4181,-1.5455,13.2268,1268,2976.04
22989,-4.6615,1.2342,10.0054,1269,2976.04
22994,1.6472,3.3411,8.8825,1268,2976.34
22999,2.1524,2.9125,11.139,1261,2976.34
23004,-2.2913,-1.4257,13.1789,1271,2976.34
23009,-4.798,1.1624,10.1801,1271,2976.34
23014,1.573,3.2801,8.7724,1267,2976.34
23019,2.3403,3.0706,11.1163,1261,2976.34
23024,-2.1715,-1.2893,13.2495,1271,2976.34
23029,-4.8459,1.063,10.3585,1268,2976.34
23034,1.4856,3.2286,8.7436,1269,2976.49
23039,2.4732,3.1987,10.9487,1269,2976.49
23044,-2.0171,-1.1684,13.2567,1269,2976.49
23049,-4.9105,0.8523,10.4495,1267,2976.49
23054,1.4521,3.2202,8.6646,1267,2976.19
23059,2.5929,3.2777,10.8062,1270,2976.19
23064,-1.8854,-0.9924,13.2339,1267,2976.19
23069,-4.9476,0.7063,10.6147,1267,2976.19
23074,1.3204,3.128,8.6826,1267,2975.9
23079,2.6911,3.3471,10.726,1269,2975.9
23084,-1.7382,-0.8595,13.2591,1267,2975.9
23089,-4.9931,0.4776,10.7416,1269,2975.9
23094,1.1588,3.0347,8.5641,1267,2976.04
23099,2.7545,3.4536,10.6027,1277,2976.04
23104,-1.6604,-0.7446,13.2519,1269,2976.04
23109,-5.0326,0.34,10.9846,1271,2976.04
23114,1.0355,2.9904,8.5054,1275,2975.75
23119,2.6695,3.535,10.5333,1269,2975.75
23124,-1.6149,-0.6129,13.1525,1269,2975.75
23129,-5.0745,0.1867,11.0947,1269,2975.75
23134,0.8499,2.9078,8.4839,1273,2976.19
23139,2.6552,3.6416,10.4758,1269,2976.19
23144,-1.6269,-0.3926,13.204,1269,2976.19
23149,-5.053,0.0826,11.2312,1273,2976.19
23154,0.6883,2.891,8.4467,1273,2975.9
23159,2.6552,3.7565,10.3394,1269,2975.9
23164,-1.6328,-0.2538,13.2088,1267,2975.9
23169,-5.041,-0.1065,11.4287,1269,2975.9
23174,0.4549,2.8611,8.442,1270,2975.6
23179,2.6181,3.8235,10.2807,1269,2975.6
23184,-1.5514,-0.0012,13.1549,1267,2975.6
23189,-4.9644,-0.1891,11.5796,1271,2975.6
23194,0.334,2.788,8.3953,1263,2975.9
23199,2.6588,3.9025,10.1347,1271,2975.9
23204,-1.4988,0.073,13.0795,1269,2975.9
23209,-4.8782,-0.4202,11.655,1273,2975.9
23214,0.1233,2.7593,8.3199,1269,2975.16
23219,2.7102,3.9025,10.1718,1269,2975.16
23224,-1.4509,0.2682,12.9598,1270,2975.16
23229,-4.7513,-0.5531,11.7867,1271,2975.16
23234,-0.0766,2.6612,8.2959,1269,2976.19
23239,2.6217,3.9133,10.0317,1265,2976.19
23244,-1.4006,0.3484,12.9155,1272,2976.19
23249,-4.6878,-0.7745,11.892,1263,2976.19
23254,-0.3376,2.5857,8.3414,1269,2975.75
23259,2.569,3.9361,10.0137,1263,2975.75
23264,-1.2797,0.5136,12.9299,1271,2975.75
23269,-4.5885,-0.9481,12.0081,1263,2975.75
23274,-0.5686,2.5893,8.2995,1267,2976.19
23279,2.5079,3.9468,9.9108,1263,2976.19
23284,-1.2163,0.6117,12.8257,1269,2976.19
23289,-4.543,-1.0762,12.0704,1263,2976.19
23294,-0.8499,2.4876,8.3414,1263,2976.63
23299,2.3691,3.9337,9.8904,1266,2976.63
23304,-1.1959,0.7278,12.8269,1267,2976.63
23309,-4.4676,-1.1803,12.2523,1269,2976.63
23314,-1.0618,2.4565,8.3258,1268,2976.78
23319,2.3535,4.0342,9.8593,1269,2976.78
23324,-1.1229,0.8978,12.6797,1269,2976.78
23329,-4.3694,-1.2641,12.3421,1263,2976.78
23334,-1.3431,2.4002,8.4479,1269,2976.78
23339,2.375,4.0139,9.7983,1269,2976.78
23344,-0.9708,0.9972,12.6139,1269,2976.78
23349,-4.2294,-1.3779,12.4415,1263,2976.78
23354,-1.5586,2.3451,8.4862,1270,2977.08
23359,2.3547,4.0223,9.6474,1265,2977.08
23364,-0.8368,1.1372,12.5277,1269,2977.08
23369,-4.1096,-1.5119,12.5109,1267,2977.08
23374,-1.7633,2.3128,8.4743,1269,2976.78
23379,2.3104,3.9468,9.6103,1269,2976.78
23384,-0.6644,1.245,12.4247,1268,2976.78
23389,-3.978,-1.5874,12.5324,1267,2976.78
23394,-2.0327,2.2458,8.5593,1263,2976.93
23399,2.2553,3.8942,9.59,1269,2976.93
23404,-0.4094,1.3156,12.3457,1267,2976.93
23409,-3.8116,-1.7406,12.6629,1273,2976.93
23414,-2.2446,2.1703,8.6479,1270,2976.78
23419,2.2063,3.8487,9.5505,1261,2976.78
23424,-0.2442,1.4018,12.2224,1269,2976.78
23429,-3.6583,-1.7753,12.73,1269,2976.78
23434,-2.5594,2.0686,8.7436,1267,2976.63
23439,2.156,3.8056,9.4942,1269,2976.63
23444,-0.1089,1.5945,12.1051,1270,2976.63
23449,-3.5674,-1.8328,12.8042,1267,2976.63
23454,-2.8192,1.986,8.8669,1271,2976.63
23459,2.0913,3.7517,9.4344,1267,2976.63
23464,0.1221,1.6508,12.1566,1271,2976.63
23469,-3.5243,-1.8687,12.9071,1267,2976.63
23474,-3.0538,2.0207,8.9531,1269,2977.67
23479,2.047,3.7326,9.347,1269,2977.67
23484,0.2837,1.8328,11.9818,1273,2977.67
23489,-3.3758,-1.8699,12.9287,1263,2977.67
23494,-3.3004,1.9513,9.092,1269,2977.52
23499,2.0327,3.7158,9.2991,1269,2977.52
23504,0.5746,1.9585,11.91,1273,2977.52
23509,-3.2813,-1.8411,13.0197,1261,2977.52
23514,-3.5159,1.907,9.1243,1272,2977.52
23519,2.0423,3.711,9.2416,1267,2977.37
23524,0.8164,2.059,11.7483,1268,2977.37
23529,-3.073,-1.7765,13.0771,1262,2977.37
23534,-3.6907,1.7873,9.2584,1263,2977.37
23539,2.0387,3.6332,9.1842,1261,2977.52
23544,1.0894,2.1811,11.6801,1267,2977.52
23549,-2.9568,-1.798,13.1214,1264,2977.52
23554,-3.8595,1.7059,9.3422,1267,2977.52
23559,2.0123,3.5482,9.1195,1271,2977.67
23564,1.3874,2.3248,11.5676,1272,2977.67
23569,-2.0662,-1.1791,13.2555,1261,2977.67
23574,-4.956,0.826,10.4722,1275,2977.67
23579,1.4054,3.1591,8.6275,1268,2977.22
23584,2.551,3.2693,10.8601,1269,2977.22
23589,-1.9788,-1.0092,13.2986,1261,2977.22
23594,-5.0398,0.7027,10.6374,1275,2977.22
23599,1.2258,3.1053,8.6323,1257,2977.08
23604,2.5798,3.3854,10.7536,1269,2977.08
23609,-1.8842,-0.9122,13.2447,1263,2977.08
23614,-5.0769,0.5926,10.7835,1271,2977.08
23619,1.1325,3.0897,8.6024,1263,2976.63
23624,2.642,3.5314,10.6207,1268,2976.63
23629,-1.8747,-0.6991,13.2998,1261,2976.63
23634,-5.0422,0.4106,10.9379,1275,2976.63
23639,1.0523,3.0143,8.503,1267,2976.63
23644,2.7114,3.5267,10.5668,1267,2976.63
23649,-1.6831,-0.5531,13.2579,1267,2976.63
23654,-5.0398,0.316,11.1031,1273,2976.63
23659,0.8607,3.0011,8.509,1269,2976.78
23664,2.7857,3.6536,10.4627,1269,2976.78
23669,-1.6185,-0.4226,13.1897,1269,2976.78
23674,-5.0578,0.0982,11.2456,1267,2976.78
23679,0.7362,2.9173,8.3641,1270,2976.93
23684,2.7869,3.723,10.3657,1270,2976.93
23689,-1.5263,-0.3328,13.1645,1267,2976.93
23694,-4.9452,-0.0862,11.3318,1271,2976.93
23699,0.5363,2.8323,8.345,1269,2976.78
23704,2.7521,3.7517,10.2592,1268,2976.78
23709,-1.4724,-0.1077,13.143,1261,2976.78
23714,-4.9225,-0.2705,11.4311,1272,2976.78
23719,0.3388,2.7964,8.3809,1267,2977.08
23724,2.6671,3.802,10.2089,1267,2977.08
23729,-1.4425,0.0371,13.137,1266,2977.08
23734,-4.9416,-0.4262,11.6334,1269,2977.08
23739,0.17,2.7629,8.3522,1271,2977.37
23744,2.5905,3.8571,10.1023,1270,2977.37
23749,-1.4413,0.1784,13.0903,1269,2977.37
23754,-4.8806,-0.5614,11.7747,1273,2977.37
23759,-0.0323,2.6899,8.3677,1273,2977.52
23764,2.6073,3.8798,10.1011,1271,2977.52
23769,-1.4329,0.2861,13.034,1269,2977.52
23774,-4.8159,-0.7051,11.8573,1270,2977.52
23779,-0.2274,2.642,8.339,1272,2977.37
23784,2.6157,3.9552,9.9922,1267,2977.37
23789,-1.4186,0.4417,13.0005,1261,2977.37
23794,-4.6974,-0.8104,12.0129,1269,2977.37
23799,-0.4884,2.5821,8.3414,1271,2977.22
23804,2.4816,3.9816,9.9719,1275,2977.22
23809,-1.3467,0.5459,12.8988,1269,2977.22
23814,-4.61,-0.9385,12.0823,1273,2977.22
23819,-0.7039,2.5271,8.327,1271,2977.52
23824,2.5343,4.0007,9.845,1263,2977.52
23829,-1.2522,0.6632,12.8521,1266,2977.52
23834,-4.4664,-1.0953,12.1374,1273,2977.52
23839,-0.8787,2.4684,8.3905,1267,2977.22
23844,2.472,3.9768,9.8294,1272,2977.22
23849,-1.1624,0.8033,12.7431,1263,2977.22
23854,-4.3263,-1.2725,12.2368,1272,2977.22
23859,-1.1241,2.4193,8.3953,1264,2977.82
23864,2.405,3.9014,9.7252,1271,2977.82
23869,-1.0594,0.9182,12.7312,1263,2977.82
23874,-4.306,-1.3635,12.3433,1272,2977.82
23879,-1.3982,2.3679,8.4156,1268,2977.67
23884,2.3631,3.9073,9.7408,1271,2977.67
23889,-0.9074,1.0331,12.5887,1271,2977.67
23894,-4.1731,-1.47,12.4355,1271,2977.67
23899,-1.6017,2.2889,8.4479,1269,2977.52
23904,2.3331,3.9409,9.6917,1263,2977.52
23909,-0.8224,1.1205,12.5025,1272,2977.52
23914,-4.142,-1.5143,12.4834,1263,2977.52
23919,-1.8579,2.2793,8.5078,1264,2977.37
23924,2.2218,3.8894,9.5684,1267,2977.37
23929,-0.6081,1.2402,12.4487,1263,2977.37
23934,-4.0247,-1.6352,12.5648,1270,2977.37
23939,-2.1177,2.2733,8.6239,1263,2977.37
23944,2.1703,3.8966,9.6091,1264,2977.37
23949,-0.4429,1.3862,12.3553,1269,2977.37
23954,-3.8918,-1.6843,12.5863,1261,2977.37
23959,-2.3918,2.2278,8.7029,1263,2977.67
23964,2.1775,3.9241,9.5445,1263,2977.67
23969,-0.2358,1.4952,12.2368,1266,2977.67
23974,-3.7541,-1.7861,12.7671,1269,2977.67
23979,-2.5714,2.1153,8.8023,1267,2978.11
23984,2.1979,3.8547,9.4846,1270,2978.11
23989,-0.0024,1.579,12.1135,1267,2978.11
23994,-3.5638,-1.8256,12.8054,1267,2978.11
23999,-2.7773,2.071,8.8083,1269,2978.26
24004,2.1943,3.7912,9.4499,1269,2978.26
24009,0.1915,1.6891,12.0237,1267,2978.26
24014,-3.4393,-1.8375,12.9131,1261,2978.26
24019,-3.0562,1.9644,9.0022,1264,2978.41
24024,2.1727,3.7493,9.3302,1268,2978.41
24029,0.4274,1.8016,11.9902,1264,2978.41
24034,-3.3459,-1.9058,12.9466,1271,2978.41
24039,-3.2489,1.9201,9.0249,1267,2978.26
24044,2.1141,3.7074,9.2811,1267,2978.26
24049,0.5758,1.9525,11.88,1243,2978.26
24054,-3.2118,-1.9046,12.9766,1266,2978.26
24059,-3.4656,1.8364,9.0956,1267,2978.11
24064,2.0411,3.6547,9.1578,1272,2978.11
24069,0.838,2.083,11.7735,1261,2978.11
24074,-3.1292,-1.9261,13.0257,1270,2978.11
24079,-3.7026,1.8064,9.2907,1267,2977.96
24084,1.9872,3.6152,9.1854,1271,2977.96
24089,1.0331,2.2098,11.7795,1263,2977.96
24094,-2.9928,-1.8603,13.1011,1271,2977.96
24099,-3.8882,1.6831,9.4104,1267,2978.11
24104,1.9453,3.5733,9.1087,1262,2978.11
24109,1.2342,2.3248,11.5855,1267,2978.11
24114,-2.8683,-1.8208,13.1466,1270,2978.11
24119,-4.0618,1.6269,9.5612,1269,2977.37
24124,1.8854,3.5386,9.086,1269,2977.37
24129,1.5095,2.478,11.5317,1271,2977.37
24134,-2.7414,-1.7454,13.2064,1263,2977.37
24139,-4.2461,1.5107,9.6774,1267,2978.85
24144,1.8759,3.4369,8.989,1263,2978.85
24149,1.7609,2.5738,11.4467,1272,2978.85
24154,-2.6288,-1.6795,13.2004,1261,2978.85
24159,-4.379,1.4377,9.7959,1270,2977.96
24164,1.8052,3.3746,8.9603,1259,2977.96
24169,1.9357,2.7246,11.3078,1269,2977.96
24174,-2.4948,-1.6245,13.137,1262,2977.96
24179,-4.525,1.3575,9.8821,1269,2977.96
24184,1.8004,3.3531,8.9076,1267,2979.0
24189,2.1009,2.7857,11.2444,1271,2979.0
24194,-2.3367,-1.4988,13.2818,1263,2979.0
24199,-4.6771,1.2067,10.0509,1268,2979.0
24204,1.7394,3.3375,8.8442,1273,2978.55
24209,2.247,2.9018,11.0959,1267,2978.55
24214,-2.2517,-1.4353,13.2411,1263,2978.55
24219,-4.7621,1.0666,10.1789,1269,2978.55
24224,1.6747,3.2825,8.8143,1271,2978.85
24229,2.3762,3.0347,11.0002,1269,2978.85
24234,-2.2003,-1.3204,13.228,1263,2978.85
24239,-4.9009,1.0403,10.386,1273,2978.85
24244,1.5455,3.2537,8.691,1269,2978.7
24249,2.4972,3.1244,11.0253,1264,2978.7
24254,-2.0662,-1.221,13.2555,1263,2978.7
24259,-4.9584,0.9026,10.4938,1277,2978.7
24264,1.4425,3.1747,8.6838,1267,2979.29
24269,2.5762,3.2274,10.8888,1268,2979.29
24274,-2.0423,-1.0594,13.3046,1261,2979.29
24279,-5.0206,0.7925,10.6255,1277,2979.29
24284,1.3803,3.1304,8.6203,1263,2978.7
24289,2.642,3.3651,10.756,1267,2978.7
24294,-1.9201,-0.9529,13.3237,1261,2978.7
24299,-5.0374,0.6524,10.7595,1272,2978.7
24304,1.2486,3.0981,8.5545,1263,2977.96
24309,2.7102,3.4465,10.6901,1263,2977.96
24314,-1.8196,-0.7925,13.2591,1262,2977.96
24319,-5.0661,0.4968,10.9008,1275,2977.96
24324,1.1013,3.0107,8.5413,1259,2977.52
24329,2.7246,3.571,10.5548,1261,2977.52
24334,-1.7442,-0.6045,13.2854,1269,2977.52
24339,-5.0446,0.3136,11.0241,1269,2977.52
24344,0.9996,2.9844,8.4479,1269,2977.67
24349,2.7294,3.6512,10.4806,1261,2977.67
24354,-1.6688,-0.4693,13.2268,1267,2977.67
24359,-5.0135,0.164,11.2097,1271,2977.67
24364,0.8045,2.9113,8.3797,1269,2977.37
24369,2.7809,3.7158,10.41,1268,2977.37
24374,-1.6436,-0.3651,13.2172,1267,2977.37
24379,-5.0027,0.0144,11.321,1269,2977.37
24384,0.6393,2.8132,8.3941,1267,2977.67
24389,2.7222,3.7158,10.3669,1267,2977.67
24394,-1.5706,-0.1867,13.1849,1263,2977.67
24399,-4.9979,-0.1772,11.4024,1267,2977.67
24404,0.4872,2.806,8.339,1269,2977.67
24409,2.6803,3.8355,10.2615,1263,2977.67
24414,-1.5239,-0.0599,13.1334,1271,2977.67
24419,-4.9392,-0.3376,11.5197,1272,2977.67
24424,0.2598,2.7689,8.345,1271,2977.67
24429,2.6288,3.8259,10.137,1269,2977.67
24434,-1.5179,0.091,13.0783,1269,2977.67
24439,-4.9476,-0.4968,11.6634,1269,2977.67
24444,0.0814,2.7162,8.3019,1274,2977.82
24449,2.6552,3.9253,10.1347,1269,2977.82
24454,-1.482,0.2119,13.0352,1263,2977.82
24459,-4.8279,-0.5674,11.813,1271,2977.82
24464,-0.1077,2.6396,8.3139,1275,2978.11
24469,2.5857,3.9397,10.0712,1269,2978.11
24474,-1.4605,0.3855,12.949,1269,2978.11
24479,-4.7669,-0.6644,11.88,1275,2978.11
24484,-0.2897,2.636,8.2648,1271,2978.26
24489,2.5235,3.9911,9.9623,1268,2978.26
24494,-1.4054,0.4453,12.9239,1263,2978.26
24499,-4.6747,-0.844,11.9938,1271,2978.26
24504,-0.4884,2.5654,8.3498,1273,2977.96
24509,2.5582,3.972,9.9335,1271,2977.96
24514,-1.3012,0.5842,12.882,1264,2977.96
24519,-4.5657,-0.9565,12.0776,1271,2977.96
24524,-0.6835,2.5654,8.3187,1267,2977.52
24529,2.472,3.9588,9.8545,1270,2977.52
24534,-1.2306,0.735,12.7635,1267,2977.52
24539,-4.4185,-1.1349,12.1422,1274,2977.52
24544,-0.9493,2.5187,8.3689,1269,2977.37
24549,2.4289,3.9684,9.839,1269,2977.37
24554,-1.0953,0.7985,12.7563,1272,2977.37
24559,-4.3419,-1.2617,12.2643,1273,2977.37
24564,-1.1624,2.4253,8.3594,1267,2977.08
24569,2.3667,3.9588,9.7899,1261,2977.08
24574,-1.0606,0.9182,12.572,1267,2977.08
24579,-4.2353,-1.3946,12.4008,1262,2977.08
24584,-1.4353,2.332,8.3665,1267,2977.22
24589,2.3212,3.9468,9.7576,1263,2977.22
24594,-0.9409,1.0355,12.5732,1270,2977.22
24599,-4.1815,-1.5083,12.4546,1267,2977.22
24604,-1.6879,2.296,8.4767,1267,2977.96
24609,2.2649,3.9444,9.6331,1268,2977.96
24614,-0.7697,1.1528,12.4989,1268,2977.96
24619,-4.0977,-1.6281,12.5743,1271,2977.96
24624,-1.9465,2.3092,8.6107,1261,2978.41
24629,2.1751,3.9169,9.5852,1262,2978.41
24634,-0.6225,1.2773,12.4271,1270,2978.41
24639,-3.9828,-1.6281,12.6761,1261,2978.41
24644,-2.1763,2.241,8.5988,1263,2978.7
24649,2.2649,3.9313,9.5409,1267,2978.7
24654,-0.4549,1.3994,12.3421,1262,2978.7
24659,-3.8415,-1.6951,12.7156,1269,2978.7
24664,-2.375,2.1691,8.6526,1269,2978.55
24669,2.2122,3.8499,9.5421,1262,2978.55
24674,-0.2538,1.482,12.1829,1267,2978.55
24679,-3.6691,-1.7442,12.7479,1267,2978.55
24684,-2.6624,2.0973,8.7197,1271,2978.26
24689,2.1811,3.8511,9.4655,1271,2978.26
24694,0.0156,1.6149,12.1554,1267,2978.26
24699,-3.5853,-1.8411,12.8437,1260,2978.26
24704,-2.8299,2.0267,8.7999,1269,2978.41
24709,2.1763,3.796,9.3182,1267,2978.41
24714,0.1832,1.6712,12.0488,1264,2978.41
24719,-3.468,-1.8735,12.803,1267,2978.41
24724,-3.0861,1.9752,8.9627,1268,2978.26
24729,2.0734,3.6943,9.3398,1263,2978.26
24734,0.4417,1.8328,11.9842,1269,2978.26
24739,-3.3447,-1.9321,12.9191,1270,2978.26
24744,-3.2992,1.8962,9.0465,1264,2978.55
24749,2.0435,3.6488,9.2859,1271,2978.55
24754,0.6369,1.9465,11.9183,1263,2978.55
24759,-3.2214,-1.9106,13.0077,1275,2978.55
24764,-3.5614,1.8675,9.1327,1269,2978.85
24769,1.9884,3.6428,9.2871,1271,2978.85
24774,0.8559,2.0806,11.7376,1263,2978.85
24779,-3.1161,-1.8507,13.04,1268,2978.85
24784,-3.7613,1.7669,9.2644,1259,2978.7
24789,1.9668,3.5961,9.1961,1271,2978.7
24794,1.0439,2.2075,11.6598,1267,2978.7
24799,-2.9904,-1.8208,13.1214,1269,2978.7
24804,-3.9205,1.7418,9.4308,1269,2979.44
24809,1.9345,3.5757,9.159,1267,2979.44
24814,1.3228,2.3379,11.5724,1263,2979.44
24819,-2.8635,-1.8004,13.1573,1263,2979.44
24824,-4.118,1.6448,9.5708,1270,2978.85
24829,1.9812,3.5195,9.0728,1267,2978.85
24834,1.5826,2.46,11.491,1275,2978.85
24839,-2.6923,-1.7909,13.1968,1260,2978.85
24844,-4.2318,1.5658,9.6977,1267,2980.33
24849,1.9213,3.4824,9.0094,1261,2980.33
24854,1.8256,2.5534,11.3749,1272,2980.33
24859,-2.5438,-1.7047,13.1777,1263,2980.33
24864,-4.3922,1.4497,9.748,1271,2980.03
24869,1.9094,3.4381,8.9759,1267,2980.03
24874,1.9537,2.6635,11.3401,1273,2980.03
24879,-2.4792,-1.6161,13.2531,1263,2980.03
24884,-4.5023,1.3276,9.8857,1270,2980.03
24889,1.8375,3.3686,8.8741,1268,2980.03
24894,2.1117,2.7629,11.1414,1269,2980.03
24899,-2.4289,-1.585,13.2735,1263,2980.03
24904,-4.6304,1.2605,10.0149,1259,2980.03
24909,1.7071,3.2848,8.8226,1271,2980.18
24914,2.1931,2.909,11.1402,1267,2980.18
24919,-2.3619,-1.4796,13.2663,1269,2980.18
24924,-4.7381,1.1708,10.1646,1267,2980.18
24929,1.6532,3.2429,8.7592,1269,2980.33
24934,2.2936,3.037,11.0217,1269,2980.33
24939,-2.2242,-1.3946,13.2854,1261,2980.33
24944,-4.8411,1.0762,10.2508,1277,2980.33
24949,1.5467,3.2417,8.7484,1269,2979.89
24954,2.399,3.1831,10.9738,1266,2979.89
24959,-2.1584,-1.2833,13.3094,1259,2979.89
24964,-4.9548,0.972,10.4232,1275,2979.89
24969,1.4916,3.1867,8.7017,1263,2980.33
24974,2.4983,3.1831,10.8912,1267,2980.33
24979,-2.0375,-1.1013,13.3836,1261,2980.33
24984,-4.9823,0.8643,10.5058,1275,2980.33
24989,1.4174,3.1927,8.6467,1263,2980.18
24994,2.6372,3.2968,10.817,1262,2980.18
24999,-1.9585,-0.9732,13.3704,1263,2980.18
25004,-5.0015,0.7278,10.647,1273,2980.18
25009,1.3599,3.1448,8.5868,1263,2980.48
25014,2.7545,3.3818,10.7404,1262,2980.48
25019,-1.8627,-0.8368,13.2579,1263,2980.48
25024,-5.0218,0.595,10.8338,1272,2980.48
25029,1.2617,3.067,8.5258,1267,2979.74
25034,2.7892,3.4477,10.6722,1264,2979.74
25039,-1.7549,-0.723,13.2016,1267,2979.74
25044,-5.0374,0.3986,10.8912,1271,2979.74
25049,1.0965,3.0047,8.5258,1267,2979.59
25054,2.8216,3.5303,10.5812,1269,2979.59
25059,-1.6723,-0.6237,13.2675,1268,2979.59
25064,-5.0613,0.3017,10.987,1269,2979.59
25069,0.9397,2.9185,8.4839,1269,2979.59
25074,2.7785,3.5781,10.4387,1269,2979.59
25079,-1.7107,-0.504,13.2806,1263,2979.59
25084,-5.0781,0.1305,11.1498,1269,2979.59
25089,0.7985,2.8706,8.442,1267,2979.74
25094,2.6995,3.6943,10.4148,1269,2979.74
25099,-1.6855,-0.3448,13.2699,1263,2979.74
25104,-5.0817,0.0096,11.315,1268,2979.74
25109,0.6692,2.8671,8.4551,1263,2979.74
25114,2.6851,3.7505,10.3418,1269,2979.74
25119,-1.6149,-0.2131,13.1968,1262,2979.74
25124,-5.0805,-0.0946,11.4503,1271,2979.74
25129,0.4968,2.8311,8.412,1261,2980.18
25134,2.6695,3.869,10.3011,1268,2980.18
25139,-1.6448,-0.0682,13.1298,1271,2980.18
25144,-4.9931,-0.1808,11.5532,1272,2980.18
25149,0.346,2.8192,8.3749,1275,2980.33
25154,2.6851,3.9037,10.1634,1274,2980.33
25159,-1.5467,0.0575,13.149,1259,2980.33
25164,-4.9333,-0.3256,11.6346,1273,2980.33
25169,0.2143,2.7964,8.345,1273,2980.33
25174,2.7114,3.8942,10.1155,1263,2980.33
25179,-1.5239,0.146,13.1154,1263,2980.33
25184,-4.8064,-0.5016,11.7412,1271,2980.33
25189,0.0215,2.7174,8.3055,1271,2980.33
25194,2.6959,3.8726,10.058,1267,2980.33
25199,-1.421,0.3316,13.0975,1261,2980.33
25204,-4.7992,-0.6105,11.8214,1269,2980.33
25209,-0.1077,2.6647,8.278,1271,2980.18
25214,2.6671,3.9037,10.0137,1268,2980.18
25219,-1.3647,0.3484,12.9526,1259,2980.18
25224,-4.7034,-0.8068,11.9566,1271,2980.18
25229,-0.3543,2.5869,8.2995,1258,2980.33
25234,2.5223,3.9109,9.9707,1267,2980.33
25239,-1.312,0.4705,12.9407,1267,2980.33
25244,-4.7082,-0.9194,12.0225,1272,2980.33
25249,-0.5423,2.5678,8.2899,1263,2980.03
25254,2.5091,3.9935,9.9216,1272,2980.03
25259,-1.33,0.5974,12.864,1269,2980.03
25264,-4.6268,-1.0223,12.1661,1269,2980.03
25269,-0.7578,2.5103,8.3222,1267,2981.07
25274,2.4157,3.9576,9.8701,1271,2981.07
25279,-1.2366,0.6859,12.8581,1267,2981.07
25284,-4.5921,-1.1085,12.1865,1273,2981.07
25289,-0.9397,2.4768,8.3617,1267,2980.48
25294,2.4349,3.9708,9.7767,1270,2980.48
25299,-1.1612,0.8284,12.8066,1271,2980.48
25304,-4.4772,-1.1971,12.2846,1272,2980.48
25309,-1.1301,2.4636,8.3965,1264,2980.18
25314,2.4505,4.0211,9.8007,1263,2980.18
25319,-1.075,0.9038,12.7036,1273,2980.18
25324,-4.3515,-1.318,12.3325,1267,2980.18
25329,-1.306,2.4134,8.4228,1263,2980.03
25334,2.4493,3.9899,9.7169,1263,2980.03
25339,-0.9517,1.0415,12.5636,1269,2980.03
25344,-4.221,-1.4006,12.4546,1268,2980.03
25349,-1.5335,2.3248,8.4503,1262,2979.74
25354,2.3894,3.9301,9.7109,1267,2979.74
25359,-0.8308,1.0582,12.5253,1271,2979.74
25364,-4.0558,-1.5071,12.4834,1267,2979.74
25369,-1.7478,2.2877,8.4503,1263,2980.03
25374,2.3427,3.9421,9.6031,1269,2980.03
25379,-0.6273,1.2091,12.4726,1268,2980.03
25384,-4.0163,-1.6269,12.5743,1264,2980.03
25389,-2.0051,2.2386,8.5629,1267,2979.89
25394,2.2577,3.8295,9.584,1271,2979.89
25399,-0.5004,1.2797,12.3768,1267,2979.89
25404,-3.9109,-1.6532,12.572,1263,2979.89
25409,-2.2194,2.1871,8.661,1261,2979.89
25414,2.1464,3.8511,9.5457,1269,2979.89
25419,-0.3651,1.4102,12.3457,1264,2979.89
25424,-3.8379,-1.7442,12.7216,1269,2979.89
25429,-2.4576,2.1632,8.6933,1267,2979.89
25434,2.1452,3.8068,9.5026,1269,2979.89
25439,-0.2334,1.4497,12.232,1268,2979.89
25444,-3.79,-1.7765,12.7587,1253,2979.89
25449,-2.6743,2.0961,8.8083,1270,2979.74
25454,2.1261,3.8128,9.4607,1263,2979.74
25459,-0.0192,1.6185,12.1218,1267,2979.74
25464,-3.6452,-1.7717,12.8341,1267,2979.74
25469,-2.9221,2.0494,8.8573,1268,2979.29
25474,2.1153,3.7912,9.3841,1270,2979.29
25479,0.2179,1.737,12.0392,1268,2979.29
25484,-3.5195,-1.7789,12.9024,1269,2979.29
25489,-3.0466,2.077,8.9771,1269,2980.63
25494,2.1428,3.7493,9.2572,1271,2980.63
25499,0.4513,1.8328,11.9435,1263,2980.63
25504,-3.3579,-1.8531,12.9203,1271,2980.63
25509,-3.2609,1.9381,9.0573,1261,2980.18
25514,2.1644,3.6691,9.262,1271,2980.18
25519,0.6752,1.9046,11.9124,1263,2980.18
25524,-3.2202,-1.8507,12.985,1270,2980.18
25529,-3.4393,1.8998,9.0956,1264,2980.33
25534,2.1524,3.6787,9.2213,1271,2980.33
25539,0.917,2.0518,11.8142,1263,2980.33
25544,-3.1376,-1.8723,13.0125,1269,2980.33
25549,-3.6404,1.7729,9.1842,1267,2980.03
25554,2.0842,3.6093,9.1949,1267,2980.03
25559,1.0499,2.156,11.7232,1267,2980.03
25564,-3.0586,-1.8842,13.0855,1271,2980.03
25569,-3.7996,1.7035,9.3134,1269,2980.03
25574,2.0075,3.5602,9.1554,1261,2980.03
25579,1.2402,2.2625,11.6382,1275,2980.03
25584,-2.9329,-1.9106,13.1418,1267,2980.03
25589,-4.0175,1.6161,9.5098,1269,2979.0
25594,1.9525,3.486,9.0908,1261,2979.0
25599,1.4138,2.4325,11.5556,1272,2979.0
25604,-2.7988,-1.8459,13.1334,1263,2979.0
25609,-4.1755,1.5921,9.5948,1268,2980.18
25614,1.8747,3.4632,8.9938,1263,2980.18
25619,1.6173,2.5067,11.461,1272,2980.18
25624,-2.739,-1.7131,13.1968,1260,2980.18
25629,-4.3167,1.476,9.7755,1271,2980.18
25634,1.8471,3.4022,8.9723,1267,2979.74
25639,1.8411,2.6683,11.3557,1270,2979.74
25644,-2.5821,-1.6472,13.1813,1263,2979.74
25649,-4.4831,1.4054,9.8162,1260,2979.74
25654,1.8615,3.4512,8.9495,1272,2979.59
25659,2.0518,2.7677,11.2539,1267,2979.59
25664,-2.4301,-1.573,13.2758,1263,2979.59
25669,-4.5909,1.2821,9.9443,1267,2979.59
25674,1.7909,3.3806,8.8777,1272,2979.44
25679,2.2362,2.9113,11.1558,1270,2979.44
25684,-2.326,-1.4449,13.2483,1267,2979.44
25689,-4.7285,1.1791,10.1035,1275,2979.44
25694,1.6843,3.322,8.7724,1272,2979.89
25699,2.4038,2.9688,11.0935,1272,2979.89
25704,-2.2302,-1.3719,13.2603,1261,2979.89
25709,-4.7968,1.0918,10.2352,1275,2979.89
25714,1.634,3.2597,8.691,1263,2979.89
25719,2.4481,3.0155,10.9678,1271,2979.89
25724,-2.1572,-1.3036,13.2208,1260,2979.89
25729,-4.859,0.9756,10.3645,1275,2979.89
25734,1.5323,3.1783,8.6754,1261,2980.03
25739,2.5606,3.1591,10.8888,1267,2980.03
25744,-2.0973,-1.1911,13.2447,1263,2980.03
25749,-4.9692,0.8272,10.4303,1273,2980.03
25754,1.4329,3.1651,8.6179,1267,2980.18
25759,2.5654,3.2238,10.8158,1267,2980.18
25764,-1.9537,-1.063,13.2758,1263,2980.18
25769,-5.029,0.7661,10.5477,1271,2980.18
25774,1.33,3.1077,8.667,1267,2979.89
25779,2.5929,3.3483,10.7583,1263,2979.89
25784,-1.9812,-0.9194,13.2806,1269,2979.89
25789,-5.0362,0.6632,10.7787,1263,2979.89
25794,1.1947,3.0718,8.5473,1268,2979.74
25799,2.7378,3.4704,10.6913,1269,2979.74
25804,-1.8627,-0.7901,13.2651,1268,2979.74
25809,-5.0817,0.5303,10.8924,1263,2979.74
25814,1.1217,3.0574,8.5258,1269,2979.59
25819,2.7593,3.5207,10.5704,1268,2979.59
25824,-1.8016,-0.6476,13.2639,1269,2979.59
25829,-5.0338,0.3771,11.0002,1267,2979.59
25834,1.0116,2.9832,8.4491,1268,2979.44
25839,2.7845,3.6512,10.5165,1269,2979.44
25844,-1.7011,-0.498,13.2651,1263,2979.44
25849,-5.0458,0.1808,11.1139,1269,2979.44
25854,0.8715,2.9568,8.4252,1263,2979.74
25859,2.7892,3.6775,10.4315,1263,2979.74
25864,-1.6113,-0.3771,13.222,1262,2979.74
25869,-5.0745,0.0239,11.2156,1275,2979.74
25874,0.7159,2.9305,8.3677,1267,2979.89
25879,2.788,3.7421,10.4028,1268,2979.89
25884,-1.5682,-0.255,13.2495,1269,2979.89
25889,-5.0075,-0.1305,11.321,1273,2979.89
25894,0.5387,2.8683,8.3522,1274,2980.18
25899,2.7234,3.7876,10.2771,1271,2980.18
25904,-1.5514,-0.0898,13.2256,1267,2980.18
25909,-5.0302,-0.2334,11.4503,1271,2980.18
25914,0.3938,2.7773,8.3725,1273,2980.18
25919,2.7126,3.8391,10.1957,1271,2980.18
25924,-1.5371,-0.0395,13.1334,1269,2980.18
25929,-4.9644,-0.3639,11.5939,1266,2980.18
25934,0.2167,2.7234,8.2863,1273,2980.33
25939,2.6671,3.9037,10.1658,1270,2980.33
25944,-1.5299,0.1293,13.113,1267,2980.33
25949,-4.9225,-0.5004,11.7005,1271,2980.33
25954,0.0563,2.7019,8.3462,1273,2980.63
25959,2.6228,3.8978,10.1251,1269,2980.63
25964,-1.4796,0.2574,13.0795,1263,2980.63
25969,-4.8866,-0.595,11.8082,1271,2980.63
25974,-0.1125,2.6743,8.3582,1271,2980.48
25979,2.6384,3.9576,10.0126,1269,2980.48
25984,-1.4593,0.3843,13.0029,1263,2980.48
25989,-4.798,-0.6656,11.9124,1272,2980.48
25994,-0.2945,2.5941,8.3761,1267,2980.63
25999,2.5941,3.9636,9.9635,1267,2980.63
26004,-1.421,0.4812,12.9024,1269,2980.63
26009,-4.7046,-0.7889,12.0249,1269,2980.63
26014,-0.4369,2.5869,8.2911,1263,2980.63
26019,2.5929,3.9887,9.9276,1271,2980.63
26024,-1.342,0.5686,12.9251,1267,2980.63
26029,-4.616,-0.9313,12.1218,1273,2980.63
26034,-0.6464,2.5295,8.3222,1267,2980.63
26039,2.5235,3.9684,9.8485,1269,2980.63
26044,-1.2139,0.6847,12.7958,1263,2980.63
26049,-4.5454,-1.0726,12.1386,1271,2980.63
26054,-0.8547,2.5414,8.3055,1269,2980.48
26059,2.4445,3.9468,9.8354,1261,2980.48
26064,-1.16,0.7566,12.8221,1271,2980.48
26069,-4.4568,-1.1887,12.2451,1264,2980.48
26074,-1.008,2.4612,8.3953,1267,2980.48
26079,2.3691,3.9253,9.7336,1266,2980.48
26084,-1.1157,0.8847,12.7324,1269,2980.48
26089,-4.3826,-1.3288,12.3349,1267,2980.48
26094,-1.2653,2.4122,8.3917,1269,2980.48
26099,2.3296,3.9624,9.7456,1261,2980.48
26104,-0.9888,0.9768,12.6821,1269,2980.48
26109,-4.3491,-1.4114,12.39,1269,2980.48
26114,-1.5024,2.3762,8.3953,1261,2980.48
26119,2.3092,3.9899,9.7181,1267,2980.48
26124,-0.9565,1.0463,12.5851,1272,2980.48
26129,-4.2114,-1.5036,12.5205,1267,2980.48
26134,-1.7202,2.2913,8.4874,1259,2980.63
26139,2.296,3.9959,9.6618,1273,2980.63
26144,-0.7446,1.1648,12.5181,1267,2980.63
26149,-4.0797,-1.4856,12.5468,1269,2980.63
26154,-1.9465,2.3104,8.4958,1269,2980.77
26159,2.3176,3.9648,9.6187,1270,2980.77
26164,-0.6249,1.2534,12.475,1263,2980.77
26169,-4.0282,-1.6424,12.6198,1268,2980.77
26174,-2.0973,2.2601,8.5736,1268,2980.63
26179,2.2637,3.9456,9.5337,1268,2980.63
26184,-0.504,1.3827,12.4008,1262,2980.63
26189,-3.8463,-1.6915,12.6713,1267,2980.63
26194,-2.2637,2.1727,8.6107,1271,2980.63
26199,2.241,3.9253,9.517,1269,2980.63
26204,-0.2574,1.4234,12.311,1263,2980.63
26209,-3.7433,-1.7561,12.7479,1263,2980.63
26214,-2.5187,2.1021,8.7472,1271,2980.63
26219,2.2601,3.8427,9.4439,1269,2980.63
26224,-0.0874,1.5347,12.0764,1267,2980.63
26229,-3.6835,-1.81,12.803,1257,2980.63
26234,-2.7438,2.0626,8.7879,1263,2980.48
26239,2.2242,3.796,9.432,1269,2980.48
26244,0.067,1.6257,12.0919,1271,2980.48
26249,-3.5542,-1.8328,12.8856,1271,2980.48
26254,-2.9604,1.9956,8.9148,1269,2980.33
26259,2.132,3.705,9.3541,1271,2980.33
26264,0.3124,1.7346,12.0057,1262,2980.33
26269,-3.462,-1.8663,12.8521,1273,2980.33
26274,-3.1663,1.9453,8.9998,1258,2980.48
26279,2.0542,3.6667,9.3254,1271,2980.48
26284,0.4788,1.8842,11.9698,1269,2980.48
26289,-3.3674,-1.8615,12.9466,1270,2980.48
26294,-3.3579,1.8986,9.1255,1266,2980.63
26299,2.0063,3.65,9.2692,1271,2980.63
26304,0.6788,1.9716,11.8357,1287,2980.63
26309,-3.2717,-1.8854,13.0137,1270,2980.63
26314,-3.5398,1.9034,9.1626,1270,2981.22
26319,2.0207,3.638,9.2129,1271,2981.22
26324,0.9098,2.0506,11.7974,1271,2981.22
26329,-3.1149,-1.8387,13.0448,1268,2981.22
26334,-3.7373,1.8112,9.238,1271,2980.63
26339,2.0542,3.6416,9.1782,1263,2980.63
26344,1.1301,2.1931,11.6981,1275,2980.63
26349,-3.0179,-1.7885,13.1262,1263,2980.63
26354,-3.8427,1.7717,9.4176,1271,2980.77
26359,2.0063,3.5841,9.0836,1263,2980.77
26364,1.2785,2.3176,11.6394,1275,2980.77
26369,-2.8276,-1.7968,13.0867,1260,2980.77
26374,-4.0282,1.6592,9.4846,1269,2980.92
26379,1.9632,3.541,9.001,1267,2980.92
26384,1.5143,2.3786,11.558,1275,2980.92
26389,-2.7689,-1.749,13.1861,1261,2980.92
26394,-4.1396,1.5921,9.6175,1270,2980.92
26399,1.9369,3.4584,8.9771,1263,2981.51
26404,1.7573,2.496,11.4467,1273,2981.51
26409,-2.654,-1.7657,13.2136,1263,2981.51
26414,-4.3144,1.4808,9.7241,1267,2981.51
26419,1.8986,3.4105,8.9447,1273,2981.66
26424,1.8759,2.6372,11.3784,1267,2981.66
26429,-2.6264,-1.7466,13.2196,1263,2981.66
26434,-4.4652,1.3994,9.76,1287,2981.66
26439,1.8615,3.4189,8.9244,1271,2981.66
26444,2.0135,2.7306,11.2527,1269,2981.66
26449,-2.5079,-1.6197,13.2399,1263,2981.66
26454,-4.6052,1.3288,9.9659,1277,2981.66
26459,1.737,3.3698,8.8837,1269,2981.81
26464,2.1153,2.8467,11.2336,1271,2981.81
26469,-2.472,-1.549,13.2675,1260,2981.81
26474,-4.7537,1.2989,10.0592,1279,2981.81
26479,1.7142,3.3088,8.77,1269,2981.96
26484,2.2853,2.9772,11.0768,1271,2981.96
26489,-2.3679,-1.4605,13.2615,1261,2981.96
26494,-4.7896,1.1756,10.2101,1269,2981.96
26499,1.6496,3.2992,8.7915,1269,2981.96
26504,2.3966,3.1017,11.066,1271,2981.96
26509,-2.241,-1.2725,13.3225,1261,2981.96
26514,-4.8339,1.1145,10.3046,1275,2981.96
26519,1.5706,3.2513,8.7592,1263,2981.81
26524,2.5486,3.1125,10.9367,1261,2981.81
26529,-2.1045,-1.2019,13.313,1264,2981.81
26534,-4.9392,0.984,10.4004,1275,2981.81
26539,1.5083,3.2406,8.6778,1267,2981.66
26544,2.5953,3.237,10.8745,1267,2981.66
26549,-2.0411,-1.0546,13.2974,1267,2981.66
26554,-4.9644,0.8236,10.5297,1273,2981.66
26559,1.4138,3.1532,8.5988,1266,2981.66
26564,2.6863,3.2896,10.7835,1269,2981.66
26569,-1.913,-1.0092,13.2519,1269,2981.66
26574,-5.0218,0.7398,10.7021,1269,2981.66
26579,1.3048,3.0969,8.5964,1267,2981.81
26584,2.7138,3.3507,10.7176,1267,2981.81
26589,-1.883,-0.9409,13.2854,1268,2981.81
26594,-5.0889,0.5662,10.7679,1270,2981.81
26599,1.2594,3.0191,8.5473,1271,2981.96
26604,2.7306,3.4201,10.6267,1267,2981.96
26609,-1.8639,-0.826,13.2531,1266,2981.96
26614,-5.0841,0.4872,10.89,1269,2981.96
26619,1.0942,3.0179,8.5054,1267,2981.96
26624,2.7186,3.5123,10.5955,1269,2981.96
26629,-1.8411,-0.674,13.2998,1279,2981.96
26634,-5.1368,0.3579,11.0433,1271,2981.96
26639,1.0068,2.9868,8.4647,1267,2982.11
26644,2.721,3.5494,10.5189,1269,2982.11
26649,-1.7921,-0.5842,13.2878,1261,2982.11
26654,-5.1236,0.2538,11.0768,1271,2982.11
26659,0.8835,2.9796,8.3893,1267,2982.11
26664,2.7629,3.6739,10.5153,1269,2982.11
26669,-1.7861,-0.4202,13.2387,1270,2982.11
26674,-5.0985,0.1532,11.2899,1271,2982.11
26679,0.82,2.964,8.3629,1273,2982.11
26684,2.7485,3.7924,10.4004,1263,2982.11
26689,-1.6939,-0.3184,13.2256,1268,2982.11
26694,-5.0422,0.0563,11.3282,1270,2982.11
26699,0.656,2.9341,8.3498,1274,2981.66
26704,2.7928,3.7996,10.337,1271,2981.66
26709,-1.6305,-0.17,13.2399,1269,2981.66
26714,-5.0242,-0.1269,11.4646,1271,2981.66
26719,0.5435,2.8156,8.3258,1273,2981.66
26724,2.8,3.7852,10.2819,1269,2981.66
26729,-1.5335,-0.0886,13.1693,1261,2981.66
26734,-4.9536,-0.2705,11.4766,1272,2981.66
26739,0.3699,2.7857,8.3546,1275,2981.66
26744,2.7785,3.8128,10.1957,1270,2981.66
26749,-1.5263,0.0539,13.1741,1262,2981.66
26754,-4.9237,-0.425,11.6262,1272,2981.66
26759,0.1999,2.7318,8.2803,1271,2981.96
26764,2.6971,3.8475,10.1658,1270,2981.96
26769,-1.4712,0.1353,13.0604,1261,2981.96
26774,-4.8878,-0.5543,11.7208,1263,2981.96
26779,0.012,2.636,8.3091,1272,2981.96
26784,2.6612,3.9145,10.1215,1272,2981.96
26789,-1.415,0.2011,13.0424,1263,2981.96
26794,-4.8842,-0.644,11.8309,1273,2981.96
26799,-0.1257,2.6193,8.3582,1266,2981.96
26804,2.5965,3.9253,10.0556,1271,2981.96
26809,-1.4054,0.3256,13.0053,1269,2981.96
26814,-4.8554,-0.741,11.9207,1273,2981.96
26819,-0.3244,2.6348,8.3474,1269,2982.7
26824,2.5738,3.954,9.9826,1272,2982.7
26829,-1.4293,0.4764,13.0209,1263,2982.7
26834,-4.7585,-0.8056,12.0069,1273,2982.7
26839,-0.4908,2.5989,8.3007,1271,2982.7
26844,2.5438,4.0007,9.9024,1271,2982.7
26849,-1.3623,0.5267,12.9658,1263,2982.7
26854,-4.6926,-0.9122,12.0536,1273,2982.7
26859,-0.5974,2.5833,8.357,1271,2982.85
26864,2.5618,4.0031,9.8964,1267,2982.85
26869,-1.3084,0.7207,12.87,1269,2982.85
26874,-4.5981,-0.9589,12.1997,1272,2982.85
26879,-0.7554,2.5534,8.3019,1267,2983.0
26884,2.5702,4.0019,9.7767,1260,2983.0
26889,-1.2175,0.7362,12.8485,1268,2983.0
26894,-4.4963,-1.1468,12.2451,1269,2983.0
26899,-0.9337,2.4457,8.351,1267,2982.7
26904,2.5043,3.9444,9.7959,1269,2982.7
26909,-1.1301,0.7769,12.7443,1267,2982.7
26914,-4.4113,-1.2546,12.3457,1267,2982.7
26919,-1.1157,2.3834,8.3558,1267,2982.55
26924,2.4624,3.966,9.7157,1263,2982.55
26929,-1.0822,0.9002,12.7503,1271,2982.55
26934,-4.306,-1.3635,12.3708,1269,2982.55
26939,-1.324,2.3595,8.3677,1261,2982.7
26944,2.3667,3.9133,9.6582,1269,2982.7
26949,-0.9613,0.9182,12.6821,1270,2982.7
26954,-4.3036,-1.4748,12.4199,1271,2982.7
26959,-1.5251,2.3703,8.4779,1269,2983.15
26964,2.314,3.9301,9.6774,1270,2983.15
26969,-0.8823,1.0654,12.6426,1267,2983.15
26974,-4.2126,-1.4916,12.5444,1273,2983.15
26979,-1.725,2.2984,8.4587,1268,2983.59
26984,2.32,3.9564,9.657,1271,2983.59
26989,-0.753,1.1552,12.5253,1269,2983.59
26994,-4.1887,-1.5311,12.6174,1269,2983.59
26999,-1.8986,2.2853,8.5054,1271,2983.44
27004,2.2733,3.9863,9.6438,1271,2983.44
27009,-0.6812,1.2246,12.4355,1268,2983.44
27014,-4.0342,-1.5862,12.6294,1268,2983.44
27019,-2.0722,2.2242,8.5114,1279,2983.44
27024,2.2805,3.9756,9.5457,1267,2983.44
27029,-0.4681,1.3491,12.4068,1269,2983.44
27034,-3.9504,-1.6364,12.724,1267,2983.44
27039,-2.2206,2.2254,8.6311,1271,2983.44
27044,2.2805,3.9385,9.5086,1261,2983.44
27049,-0.3256,1.4078,12.3014,1263,2983.44
27054,-3.8535,-1.7418,12.6797,1267,2983.44
27059,-2.4205,2.1476,8.6455,1267,2983.44
27064,2.2673,3.8642,9.4284,1269,2983.44
27069,-0.158,1.5239,12.2547,1269,2983.44
27074,-3.7278,-1.8196,12.7838,1255,2983.44
27079,-2.5845,2.1141,8.7161,1267,2984.04
27084,2.2625,3.8044,9.3996,1273,2984.04
27089,0.0227,1.5395,12.1625,1264,2984.04
27094,-3.6667,-1.8495,12.8102,1273,2984.04
27099,-2.7689,2.0351,8.7903,1270,2983.74
27104,2.2015,3.7924,9.426,1267,2983.74
27109,0.1437,1.5874,12.129,1261,2983.74
27114,-3.6117,-1.8555,12.8617,1273,2983.74
27119,-2.9904,1.9992,8.8992,1262,2984.04
27124,2.1261,3.7397,9.3446,1271,2984.04
27129,0.2574,1.6963,12.0261,1263,2984.04
27134,-3.5135,-1.8962,12.9083,1272,2984.04
27139,-3.1208,1.9992,8.9495,1263,2984.04
27144,2.0375,3.7062,9.2919,1269,2984.04
27149,0.4501,1.822,12.0357,1267,2984.04
27154,-3.4776,-1.9118,12.9838,1272,2984.04
27159,-3.2944,1.9908,9.0429,1269,2983.74
27164,2.0554,3.6943,9.2404,1271,2983.74
27169,0.5602,1.9178,11.9471,1264,2983.74
27174,-3.3782,-1.8447,13.0484,1267,2983.74
27179,-3.4189,1.9381,9.1447,1267,2983.29
27184,2.0315,3.7421,9.2356,1269,2983.29
27189,0.7183,2.0446,11.8884,1272,2983.29
27194,-3.2154,-1.8375,13.0292,1269,2983.29
27199,-3.5889,1.9201,9.1901,1260,2983.29
27204,2.1057,3.6727,9.2009,1271,2983.29
27209,0.9637,2.0937,11.7615,1276,2983.29
27214,-3.1113,-1.8495,13.1286,1267,2983.29
27219,-3.7098,1.7753,9.2548,1273,2982.85
27224,2.0758,3.632,9.1075,1267,2982.85
27229,1.1756,2.1679,11.7041,1271,2982.85
27234,-2.97,-1.8735,13.1322,1263,2982.85
27239,-3.869,1.7107,9.426,1267,2983.15
27244,2.0458,3.5877,9.0585,1267,2983.15
27249,1.3803,2.2817,11.6167,1271,2983.15
27254,-2.9269,-1.8244,13.1454,1264,2983.15
27259,-4.039,1.6233,9.4511,1273,2983.15
27264,2.0039,3.4991,9.0908,1267,2982.7
27269,1.5359,2.3834,11.5389,1267,2982.7
27274,-2.8264,-1.81,13.1442,1267,2982.7
27279,-4.1803,1.5646,9.5553,1268,2982.7
27284,1.8998,3.4321,8.9986,1269,2981.51
27289,1.6652,2.4816,11.5161,1263,2981.51
27294,-2.6971,-1.7789,13.1813,1267,2981.51
27299,-4.306,1.4605,9.6666,1269,2981.51
27304,1.8806,3.4477,8.9376,1271,2980.63
27309,1.7897,2.6372,11.3533,1268,2980.63
27314,-2.6384,-1.6676,13.1932,1267,2980.63
27319,-4.4676,1.4186,9.8653,1273,2980.63
27324,1.8292,3.4261,8.9795,1261,2979.89
27329,1.919,2.727,11.2994,1270,2979.89
27334,-2.4995,-1.6173,13.2758,1263,2979.89
27339,-4.6005,1.336,9.9431,1274,2979.89
27344,1.7226,3.371,8.8585,1263,2979.59
27349,2.1165,2.8287,11.1462,1264,2979.59
27354,-2.4086,-1.5155,13.2639,1263,2979.59
27359,-4.6855,1.2725,10.1323,1273,2979.59
27364,1.6855,3.3399,8.8478,1263,2979.15
27369,2.3272,2.964,11.139,1263,2979.15
27374,-2.3032,-1.3958,13.2507,1263,2979.15
27379,-4.7896,1.093,10.234,1273,2979.15
27384,1.6723,3.2717,8.7281,1257,2978.7
27389,2.4828,3.0478,10.9918,1263,2978.7
27394,-2.1392,-1.2546,13.3166,1276,2978.7
27399,-4.8554,1.0008,10.3729,1271,2978.7
27404,1.5371,3.2585,8.752,1263,2978.7
27409,2.5809,3.1412,10.9092,1261,2978.7
27414,-2.0027,-1.1229,13.2986,1263,2978.7
27419,-4.9261,0.8188,10.4806,1263,2978.7
27424,1.4293,3.1352,8.655,1267,2978.7
27429,2.6492,3.2525,10.835,1263,2978.7
27434,-1.9872,-0.9948,13.2986,1266,2978.7
27439,-5.0039,0.6584,10.6638,1267,2978.7
27444,1.324,3.0945,8.5449,1257,2978.7
27449,2.66,3.3914,10.6973,1268,2978.7
27454,-1.8651,-0.9301,13.3213,1269,2978.7
27459,-5.0901,0.5543,10.8002,1269,2978.7
27464,1.1612,3.0526,8.5246,1264,2978.85
27469,2.7114,3.4764,10.665,1267,2978.85
27474,-1.8352,-0.7685,13.2567,1261,2978.85
27479,-5.0913,0.4405,10.9044,1271,2978.85
27484,1.0714,3.0251,8.5533,1265,2979.29
27489,2.6695,3.565,10.5489,1266,2979.29
27494,-1.8112,-0.6452,13.2567,1267,2979.29
27499,-5.1308,0.334,11.0325,1271,2979.29
27504,0.8918,2.9353,8.5246,1269,2979.15
27509,2.7043,3.6607,10.5153,1269,2979.15
27514,-1.725,-0.4334,13.2699,1271,2979.15
27519,-5.1356,0.2454,11.1606,1270,2979.15
27524,0.8164,2.982,8.442,1273,2979.44
27529,2.7892,3.7397,10.392,1268,2979.44
27534,-1.7011,-0.316,13.2914,1271,2979.44
27539,-5.0542,0.0766,11.2695,1269,2979.44
27544,0.662,2.9125,8.3989,1276,2979.74
27549,2.7725,3.7613,10.3597,1271,2979.74
27554,-1.6281,-0.2298,13.2148,1264,2979.74
27559,-4.9835,-0.0802,11.406,1269,2979.74
27564,0.5387,2.8742,8.321,1274,2980.18
27569,2.8204,3.8008,10.2615,1268,2980.18
27574,-1.5311,-0.1401,13.1609,1263,2980.18
27579,-4.9943,-0.2526,11.5029,1272,2980.18
27584,0.3819,2.8024,8.3522,1268,2980.03
27589,2.7581,3.8271,10.2508,1268,2980.03
27594,-1.4617,0.006,13.1442,1261,2980.03
27599,-4.8949,-0.4214,11.5975,1273,2980.03
27604,0.2047,2.7629,8.4144,1269,2979.74
27609,2.6755,3.8535,10.1335,1260,2979.74
27614,-1.4688,0.1425,13.1777,1268,2979.74
27619,-4.9009,-0.5447,11.6981,1271,2979.74
27624,0.0263,2.7138,8.3282,1260,2979.44
27629,2.5929,3.8714,10.0305,1268,2979.44
27634,-1.4688,0.2179,13.058,1263,2979.44
27639,-4.865,-0.6847,11.7902,1269,2979.44
27644,-0.2274,2.6767,8.3462,1267,2979.15
27649,2.5594,3.9708,10.0149,1269,2979.15
27654,-1.397,0.3891,13.0005,1269,2979.15
27659,-4.7525,-0.8296,11.9004,1272,2979.15
27664,-0.3938,2.6025,8.3115,1269,2979.89
27669,2.5438,3.9935,9.9934,1257,2979.89
27674,-1.3767,0.5243,12.8868,1271,2979.89
27679,-4.6795,-0.8966,12.0524,1267,2979.89
27684,-0.5519,2.5809,8.3689,1269,2979.74
27689,2.5355,4.0211,9.9024,1262,2979.74
27694,-1.3192,0.6057,12.8341,1269,2979.74
27699,-4.5933,-0.9673,12.0859,1268,2979.74
27704,-0.7949,2.5043,8.2851,1267,2980.03
27709,2.4864,4.0067,9.8366,1267,2980.03
27714,-1.2366,0.6979,12.8545,1267,2980.03
27719,-4.537,-1.1289,12.2487,1274,2980.03
27724,-0.9541,2.4936,8.406,1259,2980.33
27729,2.5055,3.9792,9.7779,1267,2980.33
27734,-1.0989,0.8332,12.7683,1271,2980.33
