timestamp_ms,ax,ay,az,acs_adc,rpm
11764,2.1129,3.9564,10.2424,1207,2919.57
11769,-1.4569,0.4166,12.4415,1207,2919.57
11774,-4.2365,-0.8667,11.8357,1209,2919.57
11779,-0.5411,2.4517,8.7556,1203,2919.99
11784,2.0135,4.051,10.1778,1205,2919.99
11789,-1.4629,0.8894,12.2499,1197,2919.99
11794,-3.8439,-1.2486,12.1877,1207,2919.99
11799,-1.2905,2.2865,8.7436,1203,2919.85
11804,1.9513,4.0701,10.0245,1197,2919.85
11809,-1.1923,1.3192,12.0799,1211,2919.85
11814,-3.4716,-1.5754,12.4906,1197,2919.85
11819,-2.0602,2.1153,8.9699,1205,2919.85
11824,1.8495,3.9552,9.9084,1213,2919.85
11829,-0.6177,1.6939,11.7663,1207,2919.85
11834,-2.9329,-1.7741,12.5073,1203,2919.85
11839,-2.824,1.8316,9.1087,1203,2920.13
11844,1.7645,3.7876,9.7528,1207,2920.13
11849,0.1137,2.071,11.4563,1198,2920.13
11854,-2.4864,-1.8603,12.7395,1203,2920.13
11859,-3.5219,1.5443,9.4595,1199,2919.71
11864,1.6496,3.5614,9.5325,1209,2919.71
11869,1.0116,2.4804,11.1282,1211,2919.71
11874,-2.0446,-1.6532,12.7479,1197,2919.71
11879,-4.1132,1.1875,9.9407,1197,2919.71
11884,1.4521,3.3722,9.4212,1203,2920.42
11889,1.6352,2.9209,10.8972,1197,2920.42
11894,-1.7047,-1.2522,12.8628,1195,2920.42
11899,-4.4688,0.7817,10.404,1209,2920.42
11904,1.2127,3.1999,9.1913,1215,2920.28
11909,2.0506,3.3519,10.7069,1199,2920.28
11914,-1.4521,-0.7278,12.7958,1195,2920.28
11919,-4.5789,0.2717,10.8721,1262,2920.28
11924,0.8212,2.9664,8.9818,1263,2920.13
11929,2.2374,3.7242,10.562,1269,2920.13
11934,-1.3958,-0.1712,12.6725,1263,2920.13
11939,-4.4831,-0.243,11.3485,1271,2920.13
11944,0.2825,2.7677,8.7472,1271,2920.13
11949,2.1871,3.9109,10.258,1273,2920.13
11954,-1.4066,0.3208,12.4929,1268,2920.13
11959,-4.2533,-0.7925,11.7184,1274,2920.13
11964,-0.4262,2.5546,8.7556,1285,2920.42
11969,2.0351,3.9923,10.1778,1274,2920.42
11974,-1.4365,0.7673,12.3493,1271,2920.42
11979,-3.9325,-1.221,12.0309,1279,2920.42
11984,-1.1133,2.3834,8.77,1273,2920.42
11989,1.9417,4.0247,9.9946,1271,2920.42
11994,-1.2761,1.1684,12.1123,1277,2920.42
11999,-3.5793,-1.5742,12.3804,1273,2920.42
12004,-1.8998,2.1907,8.8681,1271,2920.42
12009,1.8615,3.9983,9.8821,1277,2920.42
12014,-0.7769,1.5957,11.795,1271,2920.42
12019,-3.0706,-1.7214,12.5636,1271,2920.42
12024,-2.7043,1.9357,9.0896,1273,2919.71
12029,1.8256,3.8427,9.7528,1277,2919.71
12034,-0.0371,1.9776,11.5879,1273,2919.71
12039,-2.5678,-1.8208,12.7192,1286,2919.71
12044,-3.3842,1.6185,9.3733,1273,2921.13
12049,1.7502,3.644,9.5852,1273,2921.13
12054,0.814,2.3918,11.2575,1279,2921.13
12059,-2.132,-1.6963,12.8269,1269,2921.13
12064,-4.0043,1.2486,9.8114,1275,2920.13
12069,1.5479,3.4058,9.3996,1273,2920.13
12074,1.5239,2.8264,11.0588,1276,2920.13
12079,-1.7897,-1.4162,12.8102,1271,2920.13
12084,-4.4185,0.8116,10.2448,1285,2920.13
12089,1.251,3.1927,9.1877,1271,2920.13
12094,2.0147,3.3124,10.8613,1274,2920.13
12099,-1.5,-0.905,12.8114,1273,2920.13
12104,-4.5957,0.395,10.8278,1285,2920.13
12109,0.8882,3.0167,9.019,1272,2920.28
12114,2.1955,3.632,10.556,1273,2920.28
12119,-1.4401,-0.328,12.7216,1269,2920.28
12124,-4.5681,-0.079,11.2719,1275,2920.28
12129,0.4034,2.8395,8.8226,1269,2920.28
12134,2.2075,3.8702,10.3501,1273,2920.28
12139,-1.415,0.2634,12.5887,1271,2920.28
12144,-4.3299,-0.6404,11.6083,1273,2920.28
12149,-0.1927,2.6097,8.7472,1253,2920.28
12154,2.0925,4.0043,10.1885,1243,2920.28
12159,-1.4509,0.6656,12.3577,1273,2920.28
12164,-4.0151,-1.1732,12.0213,1279,2920.28
12169,-0.9182,2.4002,8.7089,1275,2920.28
12174,1.9537,4.0426,10.0652,1269,2920.28
12179,-1.3443,1.0762,12.1015,1275,2920.28
12184,-3.6392,-1.5227,12.3194,1268,2920.28
12189,-1.7286,2.1608,8.8274,1263,2920.13
12194,1.8016,4.0151,9.979,1266,2920.13
12199,-0.929,1.476,11.8393,1263,2920.13
12204,-3.1771,-1.7418,12.548,1262,2920.13
12209,-2.5211,1.9609,9.0393,1253,2920.13
12214,1.8112,3.9205,9.8474,1261,2920.13
12219,-0.2442,1.9034,11.5855,1263,2920.13
12224,-2.727,-1.7813,12.7276,1272,2920.13
12229,-3.2585,1.7023,9.335,1259,2920.28
12234,1.7693,3.7254,9.6367,1267,2920.28
12239,0.6357,2.2817,11.2994,1267,2920.28
12244,-2.2637,-1.7178,12.7551,1267,2920.28
12249,-3.8535,1.3994,9.7336,1269,2920.85
12254,1.6077,3.5015,9.4954,1260,2920.85
12259,1.4234,2.7785,11.078,1268,2920.85
12264,-1.8244,-1.494,12.7838,1260,2920.85
12269,-4.3036,0.9218,10.1394,1270,2920.85
12274,1.3659,3.2214,9.2237,1262,2921.13
12279,1.9501,3.0993,10.8098,1269,2921.13
12284,-1.5395,-1.0714,12.8174,1259,2921.13
12289,-4.6148,0.51,10.6362,1269,2921.13
12294,0.9948,3.061,9.104,1253,2921.41
12299,2.1392,3.5171,10.6195,1259,2921.41
12304,-1.4904,-0.4776,12.7156,1260,2921.41
12309,-4.5574,0.0383,11.0864,1259,2921.41
12314,0.5746,2.9066,8.9292,1253,2921.27
12319,2.1895,3.808,10.4579,1260,2921.27
12324,-1.4329,0.1245,12.6641,1257,2921.27
12329,-4.3886,-0.4381,11.497,1255,2921.27
12334,0.0,2.6815,8.7819,1260,2920.85
12339,2.1691,3.9588,10.2005,1253,2920.85
12344,-1.4724,0.5782,12.4331,1253,2920.85
12349,-4.0749,-0.9852,11.9028,1257,2920.85
12354,-0.6452,2.49,8.7113,1245,2921.13
12359,2.0231,4.027,10.1239,1258,2921.13
12364,-1.4126,0.996,12.1925,1267,2921.13
12369,-3.735,-1.409,12.202,1257,2921.13
12374,-1.4365,2.2039,8.7963,1255,2921.41
12379,1.9632,3.9875,9.9623,1257,2921.41
12384,-1.1037,1.3048,11.9411,1258,2921.41
12389,-3.3567,-1.7047,12.4822,1256,2921.41
12394,-2.2853,2.0159,8.9651,1252,2921.84
12399,1.8352,3.9049,9.9048,1258,2921.84
12404,-0.4932,1.7693,11.7448,1257,2921.84
12409,-2.9341,-1.7729,12.6007,1260,2921.84
12414,-3.0203,1.8651,9.25,1257,2922.41
12419,1.7992,3.796,9.7109,1261,2922.41
12424,0.3029,2.1117,11.5149,1261,2922.41
12429,-2.4157,-1.7502,12.7826,1273,2922.41
12434,-3.6524,1.5083,9.5876,1269,2922.55
12439,1.6999,3.565,9.4727,1268,2922.55
12444,1.2067,2.5558,11.218,1273,2922.55
12449,-1.9704,-1.5538,12.7599,1263,2922.55
12454,-4.1396,1.154,9.9635,1263,2922.55
12459,1.5012,3.3531,9.3015,1278,2922.27
12464,1.81,2.9916,10.9571,1291,2922.27
12469,-1.6508,-1.1971,12.803,1277,2922.27
12474,-4.4891,0.7003,10.4088,1291,2922.27
12479,1.1672,3.0837,9.165,1285,2922.84
12484,2.1308,3.3279,10.7093,1287,2922.84
12489,-1.5179,-0.7183,12.7156,1279,2922.84
12494,-4.6208,0.2191,10.8948,1287,2922.84
12499,0.7697,2.9221,8.9411,1279,2922.55
12504,2.1907,3.6978,10.5381,1278,2922.55
12509,-1.4605,-0.1604,12.7144,1279,2922.55
12514,-4.5382,-0.2574,11.376,1289,2922.55
12519,0.2813,2.7461,8.758,1295,2922.84
12524,2.2134,3.9444,10.3382,1293,2922.84
12529,-1.4988,0.3807,12.5025,1291,2922.84
12534,-4.288,-0.7063,11.8166,1289,2922.84
12539,-0.3316,2.5809,8.7293,1291,2922.98
12544,2.1548,4.0881,10.2244,1294,2922.98
12549,-1.506,0.8045,12.3146,1289,2922.98
12554,-3.9325,-1.1863,12.0883,1297,2922.98
12559,-1.0008,2.3858,8.6658,1288,2922.98
12564,2.0506,4.045,10.0772,1285,2922.98
12569,-1.2869,1.1672,12.0883,1292,2922.98
12574,-3.5733,-1.5371,12.3613,1289,2922.98
12579,-1.8148,2.1225,8.8394,1288,2922.98
12584,1.9142,3.954,9.9407,1295,2922.98
12589,-0.8667,1.5251,11.8357,1288,2922.98
12594,-3.1412,-1.7801,12.5037,1289,2922.98
12599,-2.6121,1.9345,9.0106,1291,2922.69
12604,1.7909,3.8199,9.8306,1297,2922.69
12609,-0.1257,1.9525,11.6382,1291,2922.69
12614,-2.7306,-1.8352,12.6222,1301,2922.69
12619,-3.3459,1.6867,9.3948,1289,2922.98
12624,1.7885,3.6931,9.7013,1289,2922.98
12629,0.7027,2.3619,11.3174,1299,2922.98
12634,-2.2039,-1.6999,12.7982,1288,2922.98
12639,-3.9073,1.3551,9.7588,1292,2922.98
12644,1.6412,3.4931,9.4511,1291,2922.98
12649,1.4629,2.7521,11.078,1293,2922.98
12654,-1.8016,-1.4138,12.8006,1291,2922.98
12659,-4.3179,0.9278,10.1957,1299,2922.98
12664,1.4174,3.2741,9.2512,1288,2922.69
12669,2.0339,3.1376,10.7955,1294,2922.69
12674,-1.5634,-1.0235,12.7802,1288,2922.69
12679,-4.5562,0.4465,10.6267,1297,2922.69
12684,1.0163,3.0155,9.0237,1293,2922.55
12689,2.1847,3.4788,10.6231,1291,2922.55
12694,-1.4868,-0.4812,12.6893,1292,2922.55
12699,-4.6412,-0.0275,11.1007,1294,2922.55
12704,0.565,2.8383,8.9196,1291,2921.84
12709,2.241,3.8152,10.4663,1289,2921.84
12714,-1.4748,0.0706,12.5875,1293,2921.84
12719,-4.4592,-0.4908,11.6179,1292,2921.84
12724,-0.0275,2.6612,8.7628,1301,2921.84
12729,2.1644,4.0139,10.234,1295,2921.84
12734,-1.549,0.5974,12.4163,1290,2921.84
12739,-4.1396,-0.9182,11.9255,1295,2921.84
12744,-0.6919,2.5151,8.7771,1292,2921.84
12749,2.0925,4.0618,10.0628,1297,2921.84
12754,-1.4341,1.0487,12.1853,1299,2921.84
12759,-3.7397,-1.3611,12.1458,1293,2921.84
12764,-1.3898,2.2338,8.7927,1291,2922.27
12769,1.9573,3.9875,9.9491,1299,2922.27
12774,-1.1444,1.3527,11.9542,1295,2922.27
12779,-3.3519,-1.6783,12.378,1295,2922.27
12784,-2.1967,2.0267,8.9747,1295,2922.41
12789,1.8328,3.8906,9.9479,1299,2922.41
12794,-0.516,1.7154,11.7519,1299,2922.41
12799,-2.9497,-1.8639,12.5803,1303,2922.41
12804,-2.9832,1.7741,9.1866,1299,2922.69
12809,1.7681,3.7589,9.7348,1299,2922.69
12814,0.3017,2.1105,11.4563,1319,2922.69
12819,-2.4744,-1.7705,12.7515,1297,2922.69
12824,-3.6703,1.4964,9.5864,1297,2922.41
12829,1.6903,3.6284,9.6067,1293,2922.41
12834,1.1277,2.563,11.1845,1304,2922.41
12839,-2.0255,-1.5993,12.7659,1291,2922.41
12844,-4.1563,1.1432,9.9539,1293,2922.41
12849,1.5203,3.3794,9.3601,1297,2922.27
12854,1.8711,2.9712,10.9607,1291,2922.27
12859,-1.6783,-1.2055,12.7647,1291,2922.27
12864,-4.5023,0.7003,10.4256,1303,2922.27
12869,1.221,3.1915,9.183,1294,2922.55
12874,2.1679,3.3603,10.6434,1291,2922.55
12879,-1.4844,-0.7554,12.6641,1297,2922.55
12884,-4.5957,0.1724,10.9152,1295,2922.55
12889,0.7386,2.9592,8.9842,1291,2922.55
12894,2.2242,3.6416,10.5453,1293,2922.55
12899,-1.4545,-0.2801,12.6091,1293,2922.55
12904,-4.5705,-0.2789,11.3796,1295,2922.55
12909,0.261,2.7605,8.8813,1302,2922.69
12914,2.1787,3.9361,10.331,1295,2922.69
12919,-1.5419,0.2981,12.4498,1293,2922.69
12924,-4.3527,-0.7314,11.8046,1297,2922.69
12929,-0.3472,2.5762,8.8214,1294,2922.84
12934,2.1057,4.0618,10.1323,1301,2922.84
12939,-1.5311,0.8176,12.3014,1293,2922.84
12944,-4.0151,-1.136,12.0787,1299,2922.84
12949,-1.0439,2.4098,8.7712,1293,2922.84
12954,2.1069,4.0845,10.0281,1292,2922.84
12959,-1.3168,1.1744,12.0081,1299,2922.84
12964,-3.5422,-1.5275,12.3373,1299,2922.84
12969,-1.7968,2.1859,8.9352,1299,2922.55
12974,1.9501,3.9612,9.9216,1301,2922.55
12979,-0.8009,1.5,11.728,1288,2922.55
12984,-3.14,-1.7633,12.4726,1294,2922.55
12989,-2.5809,1.895,9.0345,1295,2922.27
12994,1.8447,3.8008,9.8366,1300,2922.27
12999,-0.0754,1.8615,11.5089,1293,2922.27
13004,-2.7282,-1.9022,12.706,1303,2922.27
13009,-3.3495,1.6161,9.3889,1297,2922.69
13014,1.6819,3.711,9.6558,1293,2922.69
13019,0.6919,2.3188,11.2923,1309,2922.69
13024,-2.2733,-1.7442,12.7551,1291,2922.69
13029,-3.9397,1.3276,9.7947,1301,2922.69
13034,1.6352,3.5171,9.4906,1300,2922.98
13039,1.4413,2.7461,11.0648,1295,2922.98
13044,-1.8771,-1.3623,12.8042,1293,2922.98
13049,-4.3503,0.9864,10.2484,1305,2922.98
13054,1.3168,3.3279,9.2727,1289,2923.41
13059,2.0435,3.158,10.8362,1295,2923.41
13064,-1.5682,-1.0008,12.7707,1295,2923.41
13069,-4.5382,0.504,10.7045,1299,2923.41
13074,1.0762,3.0478,9.1339,1295,2923.12
13079,2.2458,3.5003,10.5896,1304,2923.12
13084,-1.3982,-0.5255,12.7,1291,2923.12
13089,-4.5849,0.006,11.1115,1295,2923.12
13094,0.595,2.9018,8.8705,1295,2923.26
13099,2.2278,3.7553,10.3358,1289,2923.26
13104,-1.4102,0.0395,12.5815,1301,2923.26
13109,-4.4712,-0.5543,11.5317,1295,2923.26
13114,-0.0563,2.6911,8.8394,1300,2923.41
13119,2.1189,3.9576,10.2005,1297,2923.41
13124,-1.4952,0.5447,12.384,1294,2923.41
13129,-4.2246,-0.9349,11.88,1303,2923.41
13134,-0.6812,2.5151,8.8765,1293,2923.55
13139,2.0255,4.0689,10.1107,1291,2923.55
13144,-1.4641,0.9972,12.1757,1301,2923.55
13149,-3.8355,-1.2989,12.2739,1297,2923.55
13154,-1.3898,2.326,8.8957,1295,2923.41
13159,1.9728,4.0594,10.009,1273,2923.41
13164,-1.1001,1.2689,11.8657,1299,2923.41
13169,-3.3543,-1.6472,12.4678,1297,2923.41
13174,-2.1512,2.0494,8.9411,1299,2922.55
13179,1.9297,3.9181,9.8509,1300,2922.55
13184,-0.5255,1.6723,11.6586,1301,2922.55
13189,-2.8647,-1.8196,12.6067,1305,2922.55
13194,-2.8838,1.8088,9.2141,1300,2922.41
13199,1.798,3.7517,9.7779,1302,2922.41
13204,0.2382,2.0686,11.4108,1307,2922.41
13209,-2.5127,-1.8531,12.6929,1303,2922.41
13214,-3.5949,1.5095,9.5828,1303,2921.98
13219,1.6293,3.5662,9.5912,1301,2921.98
13224,1.0894,2.5007,11.2264,1305,2921.98
13229,-2.1033,-1.5945,12.7491,1291,2921.98
13234,-4.1216,1.2127,10.0102,1299,2921.98
13239,1.4808,3.3387,9.4152,1301,2922.69
13244,1.7406,2.9616,10.92,1303,2922.69
13249,-1.7202,-1.2294,12.821,1295,2922.69
13254,-4.4736,0.7614,10.4339,1293,2922.69
13259,1.2222,3.2142,9.2141,1297,2921.98
13264,2.1608,3.3555,10.6901,1297,2921.98
13269,-1.4928,-0.7314,12.7407,1299,2921.98
13274,-4.5502,0.2729,10.8278,1300,2921.98
13279,0.8284,2.9772,8.9962,1293,2921.98
13284,2.2553,3.6392,10.4256,1299,2921.98
13289,-1.4413,-0.2203,12.6462,1301,2921.98
13294,-4.5179,-0.2693,11.3497,1295,2921.98
13299,0.267,2.7629,8.8526,1303,2921.98
13304,2.1811,3.8954,10.3406,1303,2921.98
13309,-1.5083,0.2574,12.4726,1293,2921.98
13314,-4.3299,-0.7709,11.7184,1301,2921.98
13319,-0.3484,2.5917,8.7257,1295,2921.7
13324,2.0734,4.027,10.2161,1304,2921.7
13329,-1.5071,0.7434,12.2846,1304,2921.7
13334,-3.9971,-1.1301,12.1171,1301,2921.7
13339,-1.0678,2.3822,8.7807,1301,2921.27
13344,2.0087,4.1073,10.1059,1307,2921.27
13349,-1.33,1.1384,12.0093,1301,2921.27
13354,-3.571,-1.4341,12.3529,1303,2921.27
13359,-1.8136,2.1799,8.9411,1305,2921.41
13364,1.9381,3.9899,9.9383,1306,2921.41
13369,-0.8272,1.5107,11.7747,1303,2921.41
13374,-3.1268,-1.7597,12.56,1301,2921.41
13379,-2.5774,1.9573,9.092,1299,2921.7
13384,1.889,3.7948,9.833,1302,2921.7
13389,-0.0539,1.9118,11.4575,1301,2921.7
13394,-2.6899,-1.8818,12.6246,1307,2921.7
13399,-3.2956,1.6556,9.4559,1303,2921.7
13404,1.7573,3.6176,9.6881,1291,2921.7
13409,0.7482,2.2745,11.2396,1311,2921.7
13414,-2.2709,-1.7645,12.73,1299,2921.7
13419,-3.9612,1.3288,9.821,1295,2921.7
13424,1.5778,3.4644,9.4667,1302,2922.27
13429,1.5275,2.7366,10.9786,1299,2922.27
13434,-1.8771,-1.4772,12.8245,1292,2922.27
13439,-4.4065,0.9649,10.246,1306,2922.27
13444,1.3551,3.3291,9.2931,1304,2922.98
13449,2.0207,3.1137,10.7871,1299,2922.98
13454,-1.6041,-0.9852,12.8198,1299,2922.98
13459,-4.561,0.4872,10.6829,1299,2922.98
13464,1.0642,3.0801,9.1267,1299,2922.98
13469,2.2697,3.553,10.5668,1298,2922.98
13474,-1.4892,-0.4381,12.7551,1293,2922.98
13479,-4.5885,-0.0048,11.157,1301,2922.98
13484,0.5854,2.8635,8.8621,1306,2923.12
13489,2.2601,3.8008,10.3753,1304,2923.12
13494,-1.4868,0.0287,12.5049,1301,2923.12
13499,-4.4125,-0.5495,11.5843,1301,2923.12
13504,0.0012,2.6504,8.8322,1301,2922.69
13509,2.156,3.9397,10.2364,1301,2922.69
13514,-1.5048,0.5255,12.3493,1295,2922.69
13519,-4.1312,-0.9397,11.9602,1303,2922.69
13524,-0.7242,2.4912,8.7736,1303,2922.41
13529,1.9764,4.0558,10.0975,1299,2922.41
13534,-1.4281,0.9182,12.1709,1304,2922.41
13539,-3.8271,-1.3527,12.2823,1303,2922.41
13544,-1.4509,2.3116,8.8873,1301,2922.13
13549,1.9417,4.0618,10.0018,1307,2922.13
13554,-1.1301,1.3132,11.91,1303,2922.13
13559,-3.3818,-1.5945,12.4103,1295,2922.13
13564,-2.2194,2.1249,9.0178,1304,2922.13
13569,1.9333,3.9516,9.9036,1303,2922.13
13574,-0.4393,1.6999,11.6227,1301,2922.13
13579,-2.9161,-1.7753,12.6222,1310,2922.13
13584,-2.97,1.8148,9.2703,1301,2922.13
13589,1.8543,3.7409,9.7396,1301,2922.13
13594,0.3567,2.0686,11.3497,1311,2922.13
13599,-2.4169,-1.8148,12.6354,1303,2922.13
13604,-3.6607,1.4748,9.584,1301,2921.84
13609,1.6927,3.5721,9.5481,1301,2921.84
13614,1.1851,2.4792,11.0935,1301,2921.84
13619,-2.0339,-1.6221,12.7874,1294,2921.84
13624,-4.1911,1.1169,10.0245,1303,2921.84
13629,1.488,3.3555,9.4463,1297,2922.13
13634,1.7933,2.9317,10.8864,1305,2922.13
13639,-1.7801,-1.227,12.7994,1299,2922.13
13644,-4.5023,0.7087,10.4567,1307,2922.13
13649,1.2139,3.1723,9.1985,1301,2922.69
13654,2.1703,3.3806,10.7081,1299,2922.69
13659,-1.6017,-0.7398,12.7503,1299,2922.69
13664,-4.5885,0.2634,10.9355,1300,2922.69
13669,0.8547,2.9939,9.0154,1294,2922.27
13674,2.3331,3.7038,10.5082,1301,2922.27
13679,-1.5526,-0.2023,12.6127,1301,2922.27
13684,-4.5167,-0.2322,11.4203,1301,2922.27
13689,0.2825,2.7976,8.9184,1303,2922.55
13694,2.2338,3.9313,10.3262,1301,2922.55
13699,-1.5371,0.3268,12.4295,1295,2922.55
13704,-4.2772,-0.7614,11.7519,1301,2922.55
13709,-0.3496,2.5929,8.8047,1297,2922.41
13714,2.1081,3.9899,10.1718,1305,2922.41
13719,-1.5131,0.7195,12.2727,1307,2922.41
13724,-4.0067,-1.2043,12.0859,1299,2922.41
13729,-1.0403,2.4038,8.7891,1294,2922.27
13734,1.9273,3.9995,10.0688,1303,2922.27
13739,-1.3563,1.1516,12.0093,1300,2922.27
13744,-3.62,-1.5119,12.317,1301,2922.27
13749,-1.8687,2.211,8.8657,1301,2921.84
13754,1.9501,4.0235,9.9934,1303,2921.84
13759,-0.832,1.494,11.7639,1300,2921.84
13764,-3.1196,-1.7394,12.554,1306,2921.84
13769,-2.6348,1.9537,9.068,1301,2921.7
13774,1.8938,3.8918,9.8701,1305,2921.7
13779,-0.0862,1.822,11.4575,1304,2921.7
13784,-2.6528,-1.7585,12.7036,1307,2921.7
13789,-3.3651,1.6759,9.4559,1305,2921.84
13794,1.8052,3.6907,9.6678,1289,2921.84
13799,0.7973,2.3056,11.2516,1309,2921.84
13804,-2.2134,-1.7154,12.7946,1294,2921.84
13809,-3.972,1.2953,9.821,1299,2921.84
13814,1.6364,3.4357,9.5098,1304,2921.56
13819,1.5395,2.7222,11.0049,1305,2921.56
13824,-1.8998,-1.47,12.7743,1294,2921.56
13829,-4.4065,0.9266,10.2771,1307,2921.56
13834,1.3659,3.2501,9.2787,1293,2922.13
13839,2.0255,3.1747,10.7955,1298,2922.13
13844,-1.6293,-1.0187,12.7204,1295,2922.13
13849,-4.6005,0.4549,10.6961,1301,2922.13
13854,1.002,3.0574,9.0585,1289,2921.84
13859,2.2529,3.5303,10.5441,1298,2921.84
13864,-1.5407,-0.4202,12.7,1292,2921.84
13869,-4.5657,0.0323,11.1522,1299,2921.84
13874,0.5315,2.8754,8.9148,1305,2921.56
13879,2.2134,3.7912,10.3705,1301,2921.56
13884,-1.5407,0.1233,12.5336,1297,2921.56
13889,-4.3539,-0.504,11.5424,1301,2921.56
13894,-0.0443,2.6923,8.77,1300,2920.85
13899,2.1691,3.9337,10.246,1301,2920.85
13904,-1.5143,0.559,12.3325,1300,2920.85
13909,-4.0749,-0.9984,11.9303,1290,2920.85
13914,-0.7314,2.5139,8.7664,1299,2921.84
13919,1.998,3.9648,10.0676,1301,2921.84
13924,-1.415,0.9601,12.0823,1303,2921.84
13929,-3.7709,-1.4054,12.2248,1303,2921.84
13934,-1.561,2.2865,8.843,1300,2921.41
13939,1.8974,4.0007,9.9742,1307,2921.41
13944,-1.087,1.3491,11.874,1299,2921.41
13949,-3.3591,-1.6532,12.4451,1299,2921.41
13954,-2.3236,2.0985,8.9878,1291,2921.27
13959,1.8878,3.9109,9.8976,1306,2921.27
13964,-0.4022,1.7346,11.5628,1299,2921.27
13969,-2.8683,-1.7633,12.6366,1304,2921.27
13974,-3.0897,1.816,9.3793,1302,2921.56
13979,1.8543,3.7936,9.7109,1297,2921.56
13984,0.4573,2.1368,11.3449,1303,2921.56
13989,-2.4169,-1.7095,12.7096,1293,2921.56
13994,-3.7074,1.4964,9.645,1299,2921.56
13999,1.7178,3.5374,9.56,1304,2921.13
14004,1.3336,2.5774,11.1103,1301,2921.13
14009,-2.0004,-1.5431,12.7407,1293,2921.13
14014,-4.2306,1.057,10.1275,1309,2921.13
14019,1.4952,3.2992,9.3362,1294,2920.99
14024,1.8878,2.9676,10.8541,1301,2920.99
14029,-1.6712,-1.1612,12.7096,1293,2920.99
14034,-4.5262,0.6524,10.5979,1301,2920.99
14039,1.1372,3.1077,9.1925,1295,2920.99
14044,2.1919,3.3627,10.6446,1299,2920.99
14049,-1.5155,-0.6548,12.7192,1298,2920.99
14054,-4.6364,0.1377,11.0181,1299,2920.99
14059,0.7266,2.9221,8.9974,1301,2921.13
14064,2.235,3.7158,10.4327,1305,2921.13
14069,-1.5347,-0.0611,12.5612,1297,2921.13
14074,-4.4819,-0.3436,11.4335,1301,2921.13
14079,0.152,2.8072,8.8909,1301,2920.99
14084,2.2027,3.9732,10.2711,1295,2920.99
14089,-1.5502,0.4561,12.3637,1293,2920.99
14094,-4.2234,-0.8284,11.8214,1303,2920.99
14099,-0.4681,2.5666,8.7293,1303,2921.13
14104,2.1225,4.0139,10.1382,1301,2921.13
14109,-1.476,0.8631,12.1518,1303,2921.13
14114,-3.8834,-1.2689,12.1099,1303,2921.13
14119,-1.1875,2.3284,8.8071,1299,2921.13
14124,2.0004,3.9828,10.143,1305,2921.13
14129,-1.2366,1.2366,11.8609,1299,2921.13
14134,-3.4405,-1.6269,12.39,1301,2921.13
14139,-2.0183,2.1021,8.9088,1303,2920.56
14144,1.8639,3.9193,10.0006,1311,2920.56
14149,-0.656,1.5826,11.6334,1301,2920.56
14154,-3.0167,-1.7334,12.5875,1309,2920.56
14159,-2.8347,1.8783,9.1901,1301,2921.41
14164,1.8076,3.8307,9.8557,1301,2921.41
14169,0.158,2.0171,11.3904,1309,2921.41
14174,-2.5582,-1.7262,12.6641,1300,2921.41
14179,-3.535,1.6005,9.5385,1303,2921.27
14184,1.7837,3.6236,9.6606,1301,2921.27
14189,1.0558,2.4301,11.2037,1300,2921.27
14194,-2.1021,-1.5562,12.7407,1299,2921.27
14199,-4.0761,1.2366,9.9874,1307,2921.27
14204,1.5658,3.3974,9.4344,1299,2921.27
14209,1.7813,2.8491,10.8649,1303,2921.27
14214,-1.7418,-1.2905,12.724,1299,2921.27
14219,-4.4317,0.7673,10.3908,1305,2921.27
14224,1.2905,3.1735,9.2296,1299,2921.56
14229,2.1392,3.231,10.7236,1301,2921.56
14234,-1.5299,-0.838,12.7527,1298,2921.56
14239,-4.6052,0.334,10.7883,1299,2921.56
14244,0.8763,2.9963,9.0525,1298,2921.13
14249,2.2146,3.5745,10.4782,1303,2921.13
14254,-1.4928,-0.2873,12.6103,1299,2921.13
14259,-4.5837,-0.2239,11.297,1299,2921.13
14264,0.3543,2.8718,8.9423,1304,2921.56
14269,2.2051,3.9085,10.4315,1303,2921.56
14274,-1.5862,0.2442,12.475,1295,2921.56
14279,-4.3311,-0.6321,11.7687,1305,2921.56
14284,-0.2801,2.6707,8.7736,1300,2921.84
14289,2.1296,4.0677,10.1778,1301,2921.84
14294,-1.5443,0.7338,12.2547,1305,2921.84
14299,-3.9804,-1.0379,12.0668,1302,2921.84
14304,-0.9637,2.399,8.7927,1295,2921.84
14309,2.0411,4.0151,10.076,1303,2921.84
14314,-1.3372,1.1217,11.9961,1301,2921.84
14319,-3.5925,-1.4712,12.299,1303,2921.84
14324,-1.6963,2.1883,8.9244,1303,2922.13
14329,1.9573,3.9325,9.9754,1301,2922.13
14334,-0.8763,1.4772,11.807,1300,2922.13
14339,-3.2094,-1.7454,12.5001,1308,2922.13
14344,-2.5391,1.9094,9.0549,1303,2922.13
14349,1.8387,3.814,9.8174,1302,2922.13
14354,-0.1448,1.8172,11.5975,1305,2922.13
14359,-2.7701,-1.8016,12.6713,1307,2922.13
14364,-3.2765,1.7382,9.4128,1305,2921.98
14369,1.7262,3.6715,9.7085,1294,2921.98
14374,0.6129,2.2984,11.3162,1309,2921.98
14379,-2.3296,-1.6987,12.7383,1298,2921.98
14384,-3.9289,1.4102,9.7324,1293,2921.98
14389,1.6352,3.486,9.56,1303,2921.84
14394,1.4569,2.733,11.0061,1307,2921.84
14399,-1.8771,-1.3767,12.7707,1298,2921.84
14404,-4.3395,0.9876,10.2077,1311,2921.84
14409,1.4114,3.3004,9.2883,1301,2921.7
14414,2.0267,3.0921,10.7655,1303,2921.7
14419,-1.5874,-1.0127,12.7216,1301,2921.7
14424,-4.5394,0.5016,10.6458,1300,2921.7
14429,1.0642,3.0466,9.0848,1299,2921.84
14434,2.211,3.5075,10.5896,1302,2921.84
14439,-1.494,-0.5471,12.6103,1305,2921.84
14444,-4.5777,-0.0108,11.1761,1303,2921.84
14449,0.589,2.8778,8.9615,1309,2921.7
14454,2.2266,3.7577,10.4758,1303,2921.7
14459,-1.5502,0.006,12.475,1295,2921.7
14464,-4.4664,-0.4573,11.5305,1304,2921.7
14469,0.0024,2.709,8.8705,1297,2921.84
14474,2.1548,4.0199,10.2771,1307,2921.84
14479,-1.6352,0.5351,12.3876,1302,2921.84
14484,-4.215,-0.8942,12.0129,1303,2921.84
14489,-0.6668,2.5498,8.849,1304,2921.98
14494,2.0937,4.0725,10.1335,1305,2921.98
14499,-1.482,0.9936,12.0931,1303,2921.98
14504,-3.7457,-1.2761,12.1625,1303,2921.98
14509,-1.4461,2.2625,8.8825,1303,2921.7
14514,1.986,4.0294,10.0341,1308,2921.7
14519,-1.1181,1.3443,11.9171,1303,2921.7
14524,-3.3339,-1.664,12.4439,1303,2921.7
14529,-2.1775,2.0243,8.9172,1303,2921.7
14534,1.8794,3.8307,9.8785,1305,2921.7
14539,-0.4848,1.6101,11.6358,1303,2921.7
14544,-2.9473,-1.8411,12.5372,1308,2921.7
14549,-2.964,1.8268,9.2129,1303,2921.27
14554,1.7873,3.7529,9.7851,1299,2921.27
14559,0.328,2.053,11.3437,1311,2921.27
14564,-2.5175,-1.7789,12.7216,1301,2921.27
14569,-3.6512,1.5,9.5792,1301,2921.27
14574,1.6712,3.5961,9.6642,1306,2921.41
14579,1.1265,2.563,11.0983,1305,2921.41
14584,-2.0662,-1.5251,12.7743,1299,2921.41
14589,-4.2174,1.1779,10.07,1307,2921.41
14594,1.4916,3.4093,9.4248,1293,2921.27
14599,1.8375,2.9975,10.9523,1300,2921.27
14604,-1.7047,-1.1265,12.7407,1297,2921.27
14609,-4.5095,0.7063,10.4806,1301,2921.27
14614,1.2198,3.146,9.1662,1300,2920.99
14619,2.2087,3.3531,10.6937,1301,2920.99
14624,-1.4808,-0.6812,12.6055,1292,2920.99
14629,-4.5681,0.1652,10.9583,1303,2920.99
14634,0.741,2.9317,9.0202,1307,2921.13
14639,2.2901,3.6464,10.4998,1303,2921.13
14644,-1.5024,-0.1448,12.5743,1301,2921.13
14649,-4.5131,-0.3519,11.4227,1302,2921.13
14654,0.1544,2.7114,8.9028,1293,2920.99
14659,2.1428,3.8535,10.2807,1302,2920.99
14664,-1.573,0.3376,12.4678,1300,2920.99
14669,-4.3251,-0.753,11.7974,1308,2920.99
14674,-0.492,2.5762,8.7999,1303,2920.99
14679,2.0566,4.0318,10.1574,1303,2920.99
14684,-1.5227,0.8152,12.2451,1305,2920.99
14689,-3.9325,-1.1672,12.1206,1304,2920.99
14694,-1.1265,2.4181,8.8897,1289,2920.99
14699,1.998,4.0342,10.1155,1309,2920.99
14704,-1.3036,1.1947,11.9578,1303,2920.99
14709,-3.5015,-1.4772,12.3852,1301,2920.99
14714,-1.9716,2.1584,8.9699,1303,2920.85
14719,1.9357,3.9361,9.9108,1307,2920.85
14724,-0.7063,1.5634,11.6753,1303,2920.85
14729,-3.0299,-1.7945,12.5995,1309,2920.85
14734,-2.7222,1.8806,9.1842,1303,2920.99
14739,1.8639,3.7721,9.8114,1299,2920.99
14744,0.097,1.9118,11.3964,1311,2920.99
14749,-2.5893,-1.8495,12.6534,1297,2920.99
14754,-3.4465,1.5634,9.4523,1299,2921.13
14759,1.7717,3.5961,9.6558,1307,2921.13
14764,0.899,2.393,11.1678,1303,2921.13
14769,-2.235,-1.6029,12.7731,1301,2921.13
14774,-4.0474,1.2941,9.912,1309,2921.13
14779,1.5874,3.4165,9.4499,1297,2920.99
14784,1.6209,2.8635,10.9619,1301,2920.99
14789,-1.8292,-1.2905,12.7096,1295,2920.99
14794,-4.3946,0.8523,10.3358,1307,2920.99
14799,1.3491,3.2382,9.262,1293,2920.99
14804,2.1165,3.225,10.7248,1299,2920.99
14809,-1.5479,-0.8284,12.7204,1300,2920.99
14814,-4.5442,0.4034,10.8433,1301,2920.99
14819,0.9194,3.0251,9.0297,1301,2920.85
14824,2.3164,3.5829,10.483,1304,2920.85
14829,-1.4497,-0.3364,12.6067,1303,2920.85
14834,-4.4784,-0.1951,11.2827,1303,2920.85
14839,0.401,2.8132,8.8765,1305,2920.7
14844,2.1596,3.7888,10.331,1305,2920.7
14849,-1.5048,0.2179,12.4463,1299,2920.7
14854,-4.3694,-0.6692,11.6274,1303,2920.7
14859,-0.2107,2.6276,8.7999,1303,2920.7
14864,2.0746,3.9696,10.228,1303,2920.7
14869,-1.5945,0.6895,12.2679,1305,2920.7
14874,-4.0582,-1.0463,12.038,1303,2920.7
14879,-0.9218,2.4493,8.837,1289,2920.7
14884,2.0051,4.0761,10.1071,1301,2920.7
14889,-1.4018,1.1025,11.9902,1301,2920.7
14894,-3.6224,-1.3827,12.3182,1293,2920.7
14899,-1.6987,2.2386,8.8502,1303,2920.85
14904,2.0075,4.0318,9.9802,1304,2920.85
14909,-0.8607,1.3994,11.7196,1299,2920.85
14914,-3.1532,-1.6496,12.542,1311,2920.85
14919,-2.5031,1.9429,9.0752,1301,2920.42
14924,1.9429,3.8571,9.9072,1304,2920.42
14929,-0.1341,1.7861,11.4682,1309,2920.42
14934,-2.6851,-1.8088,12.6366,1301,2920.42
14939,-3.2645,1.6759,9.4176,1297,2921.27
14944,1.8004,3.6224,9.6989,1303,2921.27
14949,0.6895,2.2075,11.2659,1309,2921.27
14954,-2.2553,-1.7753,12.7144,1301,2921.27
14959,-3.8762,1.3503,9.7719,1306,2921.27
14964,1.6556,3.4309,9.4571,1299,2920.7
14969,1.4605,2.7138,11.0038,1303,2920.7
14974,-1.9058,-1.4748,12.7407,1299,2920.7
14979,-4.3431,0.9936,10.2843,1307,2920.7
14984,1.3719,3.2836,9.3673,1301,2920.56
14989,1.992,3.1651,10.7895,1300,2920.56
14994,-1.6436,-0.9541,12.7791,1299,2920.56
14999,-4.5406,0.5471,10.6877,1302,2920.56
15004,1.1061,3.1041,9.1159,1299,2920.7
15009,2.2853,3.4931,10.5441,1301,2920.7
15014,-1.5119,-0.4513,12.6462,1302,2920.7
15019,-4.5071,0.0108,11.157,1301,2920.7
15024,0.6045,2.873,8.9423,1305,2920.85
15029,2.2853,3.7541,10.3669,1301,2920.85
15034,-1.4796,0.0742,12.4714,1297,2920.85
15039,-4.3934,-0.5602,11.5245,1304,2920.85
15044,-0.0048,2.6911,8.8478,1301,2920.13
15049,2.1871,3.9097,10.2149,1303,2920.13
15054,-1.5754,0.5219,12.3158,1309,2920.13
15059,-4.1408,-1.0056,11.8776,1299,2920.13
15064,-0.7506,2.4948,8.7436,1303,2920.85
15069,2.0075,4.0522,10.1574,1289,2920.85
15074,-1.5143,0.984,12.0225,1303,2920.85
15079,-3.808,-1.3192,12.2918,1294,2920.85
15084,-1.5107,2.2781,8.8478,1301,2920.28
15089,1.9573,4.0426,10.0473,1305,2920.28
15094,-1.0882,1.3587,11.8333,1303,2920.28
15099,-3.3471,-1.5778,12.4451,1311,2920.28
15104,-2.2577,2.0435,9.0118,1303,2920.42
15109,1.9273,3.9421,9.8821,1308,2920.42
15114,-0.3651,1.743,11.6107,1311,2920.42
15119,-2.8611,-1.7897,12.548,1304,2920.42
15124,-3.061,1.7813,9.2943,1306,2920.7
15129,1.8316,3.7242,9.7863,1304,2920.7
15134,0.4705,2.1428,11.3701,1311,2920.7
15139,-2.3798,-1.7933,12.6797,1303,2920.7
15144,-3.7314,1.4365,9.6175,1303,2920.7
15149,1.6628,3.48,9.6115,1305,2920.28
15154,1.2797,2.5606,11.0492,1305,2920.28
15159,-2.0159,-1.5897,12.706,1295,2920.28
15164,-4.2437,1.0534,10.1311,1318,2920.28
15169,1.476,3.3088,9.4248,1303,2920.99
15174,1.8375,3.0646,10.8589,1308,2920.99
15179,-1.7561,-1.1229,12.7156,1301,2920.99
15184,-4.5286,0.6333,10.5309,1305,2920.99
15189,1.1696,3.146,9.1854,1301,2920.7
15194,2.2218,3.3974,10.6147,1302,2920.7
15199,-1.5131,-0.5854,12.718,1301,2920.7
15204,-4.5885,0.1448,11.0816,1303,2920.7
15209,0.7602,2.9939,9.001,1306,2920.7
15214,2.2877,3.7218,10.404,1303,2920.7
15219,-1.5083,-0.0323,12.4822,1297,2920.7
15224,-4.4508,-0.3938,11.4922,1305,2920.7
15229,0.2023,2.7174,8.7987,1301,2919.99
15234,2.2302,3.8882,10.2963,1309,2919.99
15239,-1.5921,0.4405,12.3505,1303,2919.99
15244,-4.2126,-0.8715,11.904,1303,2919.99
15249,-0.5267,2.545,8.752,1301,2920.99
15254,2.0327,4.0414,10.1598,1307,2920.99
15259,-1.5598,0.8308,12.123,1303,2920.99
15264,-3.8666,-1.2498,12.1745,1305,2920.99
15269,-1.2845,2.3439,8.8322,1305,2920.28
15274,1.9573,4.0259,10.1466,1307,2920.28
15279,-1.2821,1.2486,11.8716,1301,2920.28
15284,-3.4836,-1.5479,12.3756,1305,2920.28
15289,-2.0997,2.1799,8.9639,1303,2920.28
15294,1.8866,3.9385,9.9575,1307,2920.28
15299,-0.6285,1.652,11.6813,1301,2920.28
15304,-2.9473,-1.7406,12.5696,1305,2920.28
15309,-2.8467,1.8579,9.2129,1304,2920.85
15314,1.8292,3.7637,9.8126,1303,2920.85
15319,0.2478,2.047,11.406,1309,2920.85
15324,-2.5151,-1.7466,12.627,1299,2920.85
15329,-3.5506,1.5778,9.5385,1301,2920.85
15334,1.7406,3.6009,9.6331,1310,2920.56
15339,1.0894,2.4696,11.1223,1319,2920.56
15344,-2.0566,-1.5945,12.724,1301,2920.56
15349,-4.1348,1.1432,9.9216,1309,2920.56
15354,1.5502,3.3459,9.4739,1298,2920.85
15359,1.7322,2.8946,10.8673,1303,2920.85
15364,-1.7633,-1.2294,12.7527,1300,2920.85
15369,-4.531,0.7458,10.3932,1303,2920.85
15374,1.2378,3.2058,9.2751,1302,2920.99
15379,2.1308,3.3028,10.6877,1304,2920.99
15384,-1.5742,-0.7386,12.7288,1293,2920.99
15389,-4.6124,0.2753,10.8876,1303,2920.99
15394,0.8452,2.9473,8.995,1307,2920.85
15399,2.2913,3.626,10.507,1301,2920.85
15404,-1.506,-0.1592,12.5911,1302,2920.85
15409,-4.5143,-0.2071,11.3988,1303,2920.85
15414,0.2682,2.8264,8.8849,1291,2920.56
15419,2.2398,3.8774,10.3705,1303,2920.56
15424,-1.5526,0.3783,12.4343,1305,2920.56
15429,-4.2461,-0.7374,11.7124,1307,2920.56
15434,-0.3328,2.5833,8.7652,1305,2920.7
15439,2.162,3.9887,10.1586,1304,2920.7
15444,-1.5574,0.7865,12.2368,1299,2920.7
15449,-3.9564,-1.1612,12.1302,1303,2920.7
15454,-1.0774,2.3667,8.7915,1303,2920.7
15459,2.0135,3.984,10.0485,1307,2920.7
15464,-1.3874,1.1911,12.0512,1304,2920.7
15469,-3.5686,-1.5179,12.3397,1301,2920.7
15474,-1.8711,2.1644,8.9064,1304,2920.85
15479,1.8986,3.9409,9.9599,1306,2920.85
15484,-0.8416,1.5419,11.8489,1303,2920.85
15489,-3.1795,-1.7178,12.5468,1309,2920.85
15494,-2.6755,1.9477,9.1255,1306,2920.99
15499,1.8854,3.8104,9.8881,1302,2920.99
15504,-0.0419,1.9345,11.5317,1309,2920.99
15509,-2.63,-1.7322,12.6426,1299,2920.99
15514,-3.3938,1.6137,9.4523,1303,2920.99
15519,1.798,3.6009,9.7145,1306,2920.56
15524,0.8475,2.3331,11.297,1303,2920.56
15529,-2.1991,-1.652,12.7587,1299,2920.56
15534,-3.9684,1.2905,9.8078,1310,2920.56
15539,1.585,3.4572,9.4631,1301,2920.85
15544,1.5706,2.8012,10.963,1303,2920.85
15549,-1.804,-1.3707,12.7527,1301,2920.85
15554,-4.3586,0.8499,10.2388,1305,2920.85
15559,1.3611,3.1927,9.2045,1301,2920.85
15564,2.0518,3.1975,10.8074,1311,2920.85
15569,-1.573,-0.8918,12.6893,1301,2920.85
15574,-4.6005,0.3962,10.7823,1302,2920.85
15579,0.9529,3.0167,8.983,1308,2921.13
15584,2.2601,3.614,10.6231,1303,2921.13
15589,-1.5215,-0.3352,12.5803,1301,2921.13
15594,-4.5705,-0.073,11.2803,1303,2921.13
15599,0.4345,2.7952,8.8909,1301,2921.41
15604,2.2625,3.8188,10.4327,1304,2921.41
15609,-1.5371,0.2083,12.5468,1301,2921.41
15614,-4.3562,-0.5363,11.6502,1304,2921.41
15619,-0.1401,2.6564,8.8011,1305,2921.41
15624,2.1835,3.9995,10.2161,1303,2921.41
15629,-1.5838,0.7183,12.384,1304,2921.41
15634,-4.0378,-1.0307,11.9914,1305,2921.41
15639,-0.8368,2.4038,8.7544,1294,2921.84
15644,2.0219,4.0019,10.0772,1308,2921.84
15649,-1.4712,1.0834,12.1386,1305,2921.84
15654,-3.6871,-1.4186,12.2439,1303,2921.84
15659,-1.5921,2.1979,8.7915,1303,2921.7
15664,2.0219,3.9241,9.973,1309,2921.7
15669,-1.0223,1.4317,11.9135,1305,2921.7
15674,-3.1975,-1.6999,12.487,1314,2921.7
15679,-2.3703,1.9513,9.0261,1305,2921.84
15684,1.8974,3.8092,9.9024,1303,2921.84
15689,-0.3448,1.7945,11.6502,1311,2921.84
15694,-2.8635,-1.8208,12.633,1303,2921.84
15699,-3.1532,1.7131,9.2404,1294,2921.7
15704,1.8028,3.6966,9.7276,1301,2921.7
15709,0.4992,2.2027,11.3964,1305,2921.7
15714,-2.3475,-1.7226,12.7228,1303,2921.7
15719,-3.7433,1.3815,9.6115,1309,2921.7
15724,1.6628,3.5003,9.5014,1304,2921.41
15729,1.3156,2.6755,11.1474,1304,2921.41
15734,-1.9309,-1.4174,12.7587,1301,2921.41
15739,-4.2186,1.0355,10.0999,1306,2921.41
15744,1.4581,3.2633,9.3649,1291,2921.7
15749,1.9261,3.0718,10.9547,1299,2921.7
15754,-1.6424,-1.0499,12.6821,1301,2921.7
15759,-4.4927,0.583,10.4938,1299,2921.7
15764,1.1253,3.0083,9.0357,1302,2921.7
15769,2.2242,3.4177,10.671,1305,2921.7
15774,-1.5048,-0.5543,12.7132,1305,2921.7
15779,-4.5861,0.079,11.0588,1301,2921.7
15784,0.6452,2.8611,8.9411,1306,2921.56
15789,2.2649,3.7098,10.4567,1305,2921.56
15794,-1.5095,0.0,12.6282,1301,2921.56
15799,-4.4604,-0.3867,11.4646,1306,2921.56
15804,0.0802,2.7174,8.8633,1304,2921.7
15809,2.1727,3.9133,10.3262,1303,2921.7
15814,-1.6245,0.5267,12.4642,1309,2921.7
15819,-4.2449,-0.8212,11.8441,1304,2921.7
15824,-0.5531,2.5283,8.7819,1303,2921.41
15829,2.1081,3.9899,10.1251,1304,2921.41
15834,-1.5718,0.9517,12.2224,1304,2921.41
15839,-3.8331,-1.2833,12.1338,1304,2921.41
15844,-1.2605,2.2793,8.7616,1304,2921.27
15849,2.0818,4.0115,10.0221,1305,2921.27
15854,-1.251,1.3491,12.0225,1303,2921.27
15859,-3.383,-1.6125,12.4068,1311,2921.27
15864,-2.0973,2.0183,8.8669,1307,2920.99
15869,1.9812,3.8487,9.8904,1304,2920.99
15874,-0.6285,1.6783,11.6945,1317,2920.99
15879,-2.9951,-1.7645,12.5588,1305,2920.99
15884,-2.8623,1.8136,9.1937,1309,2921.27
15889,1.8184,3.723,9.7612,1299,2921.27
15894,0.152,2.0937,11.5281,1315,2921.27
15899,-2.5606,-1.7681,12.7288,1303,2921.27
15904,-3.5554,1.5012,9.505,1303,2921.27
15909,1.743,3.5243,9.5948,1304,2921.41
15914,1.0104,2.5271,11.2923,1307,2921.41
15919,-2.1787,-1.5814,12.7431,1297,2921.41
15924,-4.1073,1.1492,9.9838,1311,2921.41
15929,1.5706,3.3495,9.3781,1303,2921.98
15934,1.7322,2.9401,11.0169,1302,2921.98
15939,-1.7897,-1.1863,12.7683,1301,2921.98
15944,-4.4041,0.759,10.3884,1304,2921.98
15949,1.2582,3.1496,9.1375,1292,2921.7
15954,2.144,3.3387,10.7452,1301,2921.7
15959,-1.5514,-0.7195,12.6976,1315,2921.7
15964,-4.5645,0.2753,10.8637,1301,2921.7
15969,0.8643,2.9724,9.0166,1309,2921.56
15974,2.2673,3.6105,10.5596,1303,2921.56
15979,-1.4653,-0.1844,12.6318,1299,2921.56
15984,-4.5298,-0.2873,11.2324,1304,2921.56
15989,0.2897,2.7414,8.855,1303,2921.56
15994,2.2182,3.8571,10.3825,1308,2921.56
15999,-1.5969,0.2885,12.5241,1305,2921.56
16004,-4.3323,-0.7242,11.6717,1304,2921.56
16009,-0.3364,2.5941,8.7209,1307,2921.27
16014,2.144,4.033,10.2208,1309,2921.27
16019,-1.5754,0.7949,12.287,1309,2921.27
16024,-4.0247,-1.087,12.0931,1307,2921.27
16029,-1.0092,2.3834,8.7161,1303,2921.41
16034,2.0722,4.1144,10.149,1309,2921.41
16039,-1.4473,1.2043,12.0728,1303,2921.41
16044,-3.5733,-1.4401,12.293,1305,2921.41
16049,-1.7549,2.1416,8.8633,1303,2921.27
16054,1.9992,3.9828,9.9707,1305,2921.27
16059,-0.899,1.5419,11.801,1303,2921.27
16064,-3.1328,-1.6927,12.542,1307,2921.27
16069,-2.5259,1.9273,9.0704,1303,2921.41
16074,1.8699,3.7709,9.8186,1303,2921.41
16079,-0.1401,1.8699,11.558,1312,2921.41
16084,-2.6815,-1.8304,12.6366,1295,2921.41
16089,-3.3255,1.5957,9.3901,1301,2921.41
16094,1.7514,3.5997,9.6343,1307,2921.27
16099,0.7123,2.3331,11.3306,1307,2921.27
16104,-2.2877,-1.7059,12.7419,1297,2921.27
16109,-3.9025,1.3132,9.8067,1311,2921.27
16114,1.6305,3.4129,9.4391,1300,2920.99
16119,1.4688,2.8024,11.1103,1299,2920.99
16124,-1.9309,-1.3587,12.8006,1301,2920.99
16129,-4.3431,0.9206,10.1993,1301,2920.99
16134,1.391,3.2549,9.2739,1303,2921.41
16139,1.9968,3.213,10.8649,1301,2921.41
16144,-1.6508,-0.8619,12.7539,1299,2921.41
16149,-4.5047,0.4537,10.6566,1303,2921.41
16154,1.057,3.0394,9.0465,1310,2921.56
16159,2.2805,3.486,10.5333,1306,2921.56
16164,-1.5502,-0.3747,12.6713,1303,2921.56
16169,-4.5538,-0.073,11.1402,1304,2921.56
16174,0.4968,2.8156,8.8585,1306,2921.7
16179,2.3128,3.8128,10.4483,1305,2921.7
16184,-1.5407,0.1221,12.5372,1304,2921.7
16189,-4.4508,-0.5806,11.6334,1301,2921.7
16194,-0.0766,2.5905,8.7185,1305,2921.7
16199,2.1368,3.9816,10.2532,1303,2921.7
16204,-1.652,0.5854,12.3876,1307,2921.7
16209,-4.1587,-0.9996,11.9363,1302,2921.7
16214,-0.7817,2.4313,8.746,1319,2921.7
16219,2.0243,4.0606,10.1227,1305,2921.7
16224,-1.5203,1.0451,12.2404,1303,2921.7
16229,-3.7792,-1.3372,12.2009,1304,2921.7
16234,-1.4964,2.247,8.7795,1305,2921.98
16239,2.0315,4.0366,10.0209,1309,2921.98
16244,-1.1408,1.4102,11.9746,1301,2921.98
16249,-3.316,-1.6281,12.457,1304,2921.98
16254,-2.2745,2.0039,9.013,1304,2921.7
16259,1.9357,3.887,9.8366,1302,2921.7
16264,-0.4513,1.7861,11.6825,1312,2921.7
16269,-2.8371,-1.816,12.5372,1297,2921.7
16274,-3.0299,1.7549,9.2428,1305,2921.56
16279,1.8651,3.6643,9.7252,1305,2921.56
16284,0.4142,2.1476,11.4539,1307,2921.56
16289,-2.478,-1.8076,12.6893,1300,2921.56
16294,-3.7266,1.4341,9.578,1311,2921.56
16299,1.719,3.4668,9.5696,1301,2922.27
16304,1.1899,2.6193,11.1737,1307,2922.27
16309,-2.0686,-1.5335,12.8281,1303,2922.27
16314,-4.1839,1.093,10.0892,1308,2922.27
16319,1.4892,3.3076,9.3913,1301,2921.7
16324,1.8328,3.0335,10.9403,1303,2921.7
16329,-1.7789,-1.1349,12.7934,1301,2921.7
16334,-4.5382,0.6416,10.4902,1304,2921.7
16339,1.1959,3.1364,9.1698,1299,2921.7
16344,2.1895,3.4237,10.7404,1306,2921.7
16349,-1.6053,-0.5794,12.6833,1303,2921.7
16354,-4.5538,0.1185,10.9882,1303,2921.7
16359,0.7757,2.8946,8.8933,1307,2921.7
16364,2.3044,3.7362,10.4902,1305,2921.7
16369,-1.5395,-0.085,12.5432,1297,2921.7
16374,-4.446,-0.3747,11.3964,1304,2921.7
16379,0.1796,2.6947,8.7592,1305,2921.56
16384,2.2541,3.8714,10.4052,1301,2921.56
16389,-1.5479,0.3938,12.4786,1307,2921.56
16394,-4.2377,-0.8452,11.8369,1302,2921.56
16399,-0.4489,2.4864,8.7185,1300,2921.7
16404,2.0985,4.0031,10.1526,1304,2921.7
16409,-1.6245,0.8535,12.2835,1304,2921.7
16414,-3.9301,-1.2725,12.0943,1303,2921.7
16419,-1.1947,2.3367,8.7161,1303,2921.41
16424,2.0099,4.0809,10.1071,1299,2921.41
16429,-1.312,1.3024,12.1075,1303,2921.41
16434,-3.5195,-1.4964,12.3613,1316,2921.41
16439,-1.9585,2.1703,8.8562,1305,2921.84
16444,1.9968,3.9804,9.9347,1307,2921.84
16449,-0.735,1.6568,11.8309,1317,2921.84
16454,-3.0454,-1.7382,12.5037,1309,2921.84
16459,-2.7438,1.889,9.1447,1299,2921.7
16464,1.8962,3.7816,9.8713,1301,2921.7
16469,0.0778,1.9752,11.4515,1303,2921.7
16474,-2.5594,-1.7549,12.6653,1303,2921.7
16479,-3.4536,1.5215,9.4008,1303,2921.7
16484,1.8016,3.5159,9.5744,1304,2921.41
16489,0.9433,2.3942,11.2276,1298,2921.41
16494,-2.1751,-1.6544,12.7491,1298,2921.41
16499,-4.0785,1.2031,9.8761,1308,2921.41
16504,1.6113,3.3567,9.4391,1303,2921.56
16509,1.6185,2.8252,11.0433,1299,2921.56
16514,-1.8639,-1.3252,12.7539,1303,2921.56
16519,-4.4101,0.7925,10.3274,1301,2921.56
16524,1.3132,3.1783,9.2093,1300,2921.41
16529,2.0722,3.2896,10.7823,1306,2921.41
16534,-1.6197,-0.826,12.6905,1303,2921.41
16539,-4.5394,0.3962,10.7847,1301,2921.41
16544,0.9517,3.0323,9.0381,1306,2922.41
16549,2.326,3.644,10.5704,1301,2922.41
16554,-1.5371,-0.255,12.6282,1295,2922.41
16559,-4.5119,-0.1281,11.2312,1322,2922.41
16564,0.4477,2.7988,8.8047,1295,2921.98
16569,2.3403,3.8391,10.3298,1305,2921.98
16574,-1.567,0.2083,12.5277,1308,2921.98
16579,-4.3395,-0.6297,11.6262,1304,2921.98
16584,-0.1903,2.6097,8.7245,1303,2922.69
16589,2.144,3.9468,10.1945,1309,2922.69
16594,-1.6125,0.6656,12.3852,1310,2922.69
16599,-4.051,-1.1037,11.9243,1309,2922.69
16604,-0.8559,2.4253,8.7352,1304,2922.41
16609,2.0446,3.972,10.0856,1308,2922.41
16614,-1.4784,1.0786,12.2032,1304,2922.41
16619,-3.7122,-1.3898,12.2104,1305,2922.41
16624,-1.6879,2.2482,8.7999,1305,2922.27
16629,1.9285,4.0163,9.9802,1310,2922.27
16634,-1.0511,1.4952,11.9135,1303,2922.27
16639,-3.2836,-1.6472,12.4822,1309,2922.27
16644,-2.4445,1.9764,9.001,1307,2922.13
16649,1.9321,3.9121,9.8845,1303,2922.13
16654,-0.322,1.8232,11.6646,1311,2922.13
16659,-2.8012,-1.7394,12.5875,1299,2922.13
16664,-3.1603,1.7274,9.2632,1304,2922.13
16669,1.8627,3.7613,9.6833,1307,2922.13
16674,0.5674,2.2314,11.412,1307,2922.13
16679,-2.314,-1.7142,12.7096,1301,2922.13
16684,-3.7828,1.3455,9.681,1311,2922.13
16689,1.7107,3.45,9.5146,1299,2922.13
16694,1.3874,2.6408,11.163,1293,2922.13
16699,-1.9632,-1.5131,12.7288,1303,2922.13
16704,-4.2832,1.008,10.1263,1303,2922.13
16709,1.4461,3.2501,9.335,1300,2922.27
16714,1.9106,3.0765,10.9642,1307,2922.27
16719,-1.585,-0.0718,12.5863,1299,2922.27
16724,-4.4855,-0.2526,11.4515,1306,2922.27
16729,0.1856,2.7294,8.8466,1310,2921.56
16734,2.2505,3.9337,10.2508,1305,2921.56
16739,-1.567,0.4812,12.4331,1301,2921.56
16744,-4.2282,-0.7685,11.7902,1304,2921.56
16749,-0.4657,2.4948,8.7257,1307,2920.99
16754,2.15,4.033,10.1646,1304,2920.99
16759,-1.5275,0.9038,12.2595,1301,2920.99
16764,-3.8283,-1.245,12.0919,1306,2920.99
16769,-1.2677,2.302,8.7053,1304,2920.99
16774,2.0411,3.9684,10.0533,1305,2920.99
16779,-1.2989,1.2558,11.9878,1305,2920.99
16784,-3.5063,-1.5969,12.3948,1303,2920.99
16789,-2.0638,2.0686,8.8765,1305,2920.56
16794,1.9022,3.8918,9.918,1310,2920.56
16799,-0.7314,1.6269,11.7364,1301,2920.56
16804,-3.0323,-1.7693,12.5995,1303,2920.56
16809,-2.8551,1.8435,9.1866,1305,2920.28
16814,1.8256,3.7685,9.8366,1308,2920.28
16819,0.0646,2.0614,11.5879,1303,2920.28
16824,-2.5786,-1.7274,12.6976,1309,2920.28
16829,-3.5614,1.5574,9.4679,1303,2920.28
16834,1.7454,3.5985,9.6343,1299,2920.28
16839,0.9924,2.4433,11.2336,1309,2920.28
16844,-2.1548,-1.561,12.6905,1302,2920.28
16849,-4.0426,1.1588,9.8665,1303,2920.28
16854,1.6065,3.3411,9.3661,1307,2920.28
16859,1.7394,2.8718,11.0133,1299,2920.28
16864,-1.8148,-1.2402,12.6941,1303,2920.28
16869,-4.3946,0.753,10.3489,1312,2920.28
16874,1.2881,3.1208,9.153,1301,2920.28
16879,2.162,3.3004,10.7871,1303,2920.28
16884,-1.5634,-0.747,12.6773,1303,2920.28
16889,-4.5969,0.2023,10.884,1307,2920.28
16894,0.8224,2.9161,9.0417,1303,2920.28
16899,2.2553,3.5925,10.5824,1301,2920.28
16904,-1.5431,-0.1784,12.6546,1301,2920.28
16909,-4.5657,-0.1879,11.2934,1301,2920.28
16914,0.3089,2.7641,8.8406,1302,2919.99
16919,2.2577,3.8642,10.3585,1303,2919.99
16924,-1.6041,0.3819,12.5348,1303,2919.99
16929,-4.3634,-0.6536,11.7053,1302,2919.99
16934,-0.3196,2.5798,8.746,1304,2919.85
16939,2.1249,3.9792,10.2508,1299,2919.85
16944,-1.5909,0.838,12.2643,1299,2919.85
16949,-3.9217,-1.0953,11.9938,1299,2919.85
16954,-1.0846,2.3762,8.8083,1304,2919.14
16959,2.0423,3.9935,10.1011,1307,2919.14
16964,-1.3827,1.1732,11.9914,1306,2919.14
16969,-3.5255,-1.5203,12.3134,1307,2919.14
16974,-1.8256,2.1213,8.9148,1302,2918.71
16979,1.9824,3.8894,9.9778,1310,2918.71
16984,-0.8523,1.5347,11.7938,1303,2918.71
16989,-3.1089,-1.7358,12.4989,1301,2918.71
16994,-2.6767,1.8663,9.098,1303,2918.29
16999,1.8411,3.7457,9.8689,1308,2918.29
17004,-0.0958,1.9716,11.5628,1303,2918.29
17009,-2.6612,-1.7538,12.6629,1311,2918.29
17014,-3.4704,1.5957,9.4643,1304,2918.86
17019,1.7717,3.5973,9.6127,1304,2918.86
17024,0.8428,2.4122,11.327,1315,2918.86
17029,-2.1931,-1.6173,12.6785,1301,2918.86
17034,-4.0043,1.2785,9.8845,1303,2918.86
17039,1.567,3.3998,9.4715,1311,2918.86
17044,1.6472,2.8886,11.0528,1305,2918.86
17049,-1.8052,-1.2474,12.7192,1301,2918.86
17054,-4.391,0.7685,10.3549,1310,2918.86
17059,1.3168,3.1256,9.2201,1301,2918.86
17064,2.1237,3.2549,10.7943,1305,2918.86
17069,-1.5778,-0.7901,12.6821,1299,2918.86
17074,-4.5191,0.3352,10.7931,1308,2918.86
17079,0.8859,2.9712,9.0118,1303,2919.28
17084,2.2386,3.6129,10.5584,1301,2919.28
17089,-1.482,-0.2526,12.5971,1301,2919.28
17094,-4.5334,-0.2107,11.2432,1305,2919.28
17099,0.3627,2.7402,8.8753,1303,2919.14
17104,2.1967,3.8259,10.4339,1307,2919.14
17109,-1.5981,0.2993,12.5313,1301,2919.14
17114,-4.3431,-0.6859,11.7029,1305,2919.14
17119,-0.2741,2.5845,8.7759,1306,2919.14
17124,2.1344,4.0091,10.2747,1303,2919.14
17129,-1.6592,0.8104,12.2727,1301,2919.14
17134,-3.9828,-1.075,12.0548,1311,2919.14
17139,-0.9816,2.3774,8.7185,1306,2919.28
17144,2.1057,4.0618,10.1347,1305,2919.28
17149,-1.4641,1.1911,12.0201,1307,2919.28
17154,-3.5243,-1.4712,12.3146,1320,2919.28
17159,-1.7717,2.1596,8.8454,1303,2919.28
17164,2.0051,3.9373,9.9323,1307,2919.28
17169,-0.8787,1.5419,11.7507,1305,2919.28
17174,-3.128,-1.7059,12.4403,1307,2919.28
17179,-2.6109,1.8735,9.1147,1304,2919.57
17184,1.8711,3.7685,9.839,1309,2919.57
17189,-0.0934,1.9046,11.5831,1308,2919.57
17194,-2.7114,-1.7897,12.6007,1315,2919.57
17199,-3.3567,1.6161,9.4032,1303,2919.57
17204,1.7753,3.5937,9.6283,1303,2919.57
17209,0.7793,2.3631,11.3497,1317,2919.57
17214,-2.2182,-1.6532,12.6725,1301,2919.57
17219,-3.9684,1.2917,9.8641,1306,2919.14
17224,1.5886,3.4249,9.499,1303,2919.14
17229,1.5886,2.8192,11.1067,1304,2919.14
17234,-1.8627,-1.3168,12.718,1303,2919.14
17239,-4.3646,0.8954,10.2532,1311,2919.14
17244,1.3443,3.2166,9.3003,1301,2919.99
17249,2.15,3.2166,10.7703,1305,2919.99
17254,-1.5778,-0.82,12.7276,1301,2919.99
17259,-4.531,0.3543,10.7344,1306,2919.99
17264,0.9864,3.0347,9.0393,1305,2919.28
17269,2.2913,3.5733,10.5584,1303,2919.28
17274,-1.5036,-0.2837,12.621,1303,2919.28
17279,-4.5286,-0.1425,11.2396,1298,2919.28
17284,0.4369,2.7737,8.9196,1301,2919.42
17289,2.2386,3.8032,10.3657,1306,2919.42
17294,-1.5921,0.2227,12.5157,1303,2919.42
17299,-4.3527,-0.6524,11.637,1303,2919.42
17304,-0.2466,2.5702,8.7125,1307,2919.57
17309,2.1249,4.0055,10.2484,1299,2919.57
17314,-1.6245,0.7147,12.3481,1305,2919.57
17319,-4.045,-1.0355,12.0452,1309,2919.57
17324,-0.9565,2.411,8.7963,1299,2919.85
17329,2.0806,4.0761,10.1945,1303,2919.85
17334,-1.5227,1.0798,12.123,1307,2919.85
17339,-3.6488,-1.397,12.2607,1303,2919.85
17344,-1.7071,2.1739,8.8274,1305,2920.28
17349,2.0267,3.9851,9.9563,1307,2920.28
17354,-0.9804,1.5107,11.8693,1303,2920.28
17359,-3.1472,-1.6448,12.4894,1301,2920.28
17364,-2.5139,1.9597,9.1147,1307,2920.42
17369,1.9309,3.8379,9.815,1306,2920.42
17374,-0.2454,1.8483,11.6681,1301,2920.42
17379,-2.7054,-1.81,12.5648,1316,2920.42
17384,-3.2489,1.6652,9.3541,1305,2920.28
17389,1.8208,3.6021,9.6522,1304,2920.28
17394,0.6692,2.3092,11.3533,1312,2920.28
17399,-2.326,-1.725,12.6881,1302,2920.28
17404,-3.9037,1.3384,9.7097,1306,2919.85
17409,1.6436,3.4333,9.511,1307,2919.85
17414,1.4425,2.7054,11.0672,1309,2919.85
17419,-1.9249,-1.3994,12.718,1303,2919.85
17424,-4.3431,0.9014,10.2065,1309,2919.85
17429,1.3958,3.2465,9.3003,1303,2920.42
17434,1.9896,3.2142,10.8266,1305,2920.42
17439,-1.6544,-0.9266,12.8078,1299,2920.42
17444,-4.5406,0.5088,10.6961,1317,2920.42
17449,1.1049,3.0789,9.0417,1303,2920.56
17454,2.2865,3.5362,10.5824,1299,2920.56
17459,-1.5742,-0.3855,12.6558,1302,2920.56
17464,-4.5418,-0.0311,11.1845,1301,2920.56
17469,0.5578,2.8443,8.8645,1292,2920.56
17474,2.302,3.8176,10.4639,1306,2920.56
17479,-1.5646,0.152,12.5253,1303,2920.56
17484,-4.3922,-0.5447,11.5496,1303,2920.56
17489,-0.0431,2.6097,8.7185,1308,2920.42
17494,2.1763,3.9444,10.2232,1306,2920.42
17499,-1.6281,0.5375,12.384,1298,2920.42
17504,-4.1192,-1.0367,11.9327,1307,2920.42
17509,-0.7422,2.3882,8.7089,1303,2920.42
17514,2.0566,4.033,10.1478,1307,2920.42
17519,-1.5634,1.0391,12.1685,1309,2920.42
17524,-3.7469,-1.3108,12.2176,1303,2920.42
17529,-1.5323,2.247,8.7592,1295,2920.13
17534,2.0075,4.0282,10.0317,1307,2920.13
17539,-1.1636,1.3767,12.0057,1303,2920.13
17544,-3.3184,-1.6089,12.4223,1303,2920.13
17549,-2.2936,2.0518,8.9723,1307,2920.28
17554,1.9525,3.9241,9.8761,1305,2920.28
17559,-0.3974,1.7873,11.7088,1304,2920.28
17564,-2.8323,-1.7741,12.5791,1310,2920.28
17569,-3.0646,1.7609,9.2153,1305,2920.42
17574,1.8651,3.6787,9.6893,1307,2920.42
17579,0.4621,2.1261,11.382,1309,2920.42
17584,-2.3439,-1.8004,12.6581,1308,2920.42
17589,-3.7385,1.3575,9.5816,1307,2920.42
17594,1.6831,3.45,9.5409,1315,2920.42
17599,1.3168,2.6049,11.1127,1307,2920.42
17604,-2.0004,-1.5299,12.7491,1303,2920.42
17609,-4.306,1.0175,10.0509,1301,2920.42
17614,1.4832,3.2944,9.42,1303,2920.56
17619,1.8783,3.0466,10.9235,1304,2920.56
17624,-1.731,-1.1001,12.718,1300,2920.56
17629,-4.5215,0.5926,10.5524,1309,2920.56
17634,1.1624,3.1544,9.1279,1300,2920.42
17639,2.2362,3.4704,10.726,1299,2920.42
17644,-1.5862,-0.5195,12.6737,1299,2920.42
17649,-4.5645,0.1329,11.0816,1297,2920.42
17654,0.6967,2.9341,9.0082,1299,2920.28
17659,2.3236,3.7673,10.5165,1303,2920.28
17664,-1.5706,-0.0275,12.5528,1305,2920.28
17669,-4.4197,-0.3747,11.4634,1303,2920.28
17674,0.1329,2.6983,8.7783,1309,2920.28
17679,2.2194,3.899,10.3058,1299,2920.28
17684,-1.6101,0.4836,12.4008,1298,2920.28
17689,-4.1803,-0.8368,11.8238,1305,2920.28
17694,-0.5854,2.4912,8.7077,1302,2920.13
17699,2.0626,3.9875,10.0664,1304,2920.13
17704,-1.5909,0.8918,12.2966,1310,2920.13
17709,-3.8882,-1.2905,12.1494,1299,2920.13
17714,-1.3898,2.3092,8.752,1305,2920.56
17719,1.9944,3.966,10.0365,1306,2920.56
17724,-1.2845,1.2809,12.0704,1306,2920.56
17729,-3.4704,-1.5359,12.3816,1307,2920.56
17734,-2.1584,2.1416,8.934,1323,2920.7
17739,1.9525,3.9277,9.8952,1304,2920.7
17744,-0.6524,1.6771,11.801,1305,2920.7
17749,-2.9748,-1.7358,12.5947,1310,2920.7
17754,-2.885,1.8268,9.1961,1303,2920.85
17759,1.895,3.814,9.7288,1309,2920.85
17764,0.2406,2.1129,11.5317,1305,2920.85
17769,-2.4972,-1.7526,12.7383,1303,2920.85
17774,-3.5793,1.5012,9.4978,1303,2921.27
17779,1.7897,3.5494,9.5612,1301,2921.27
17784,1.1025,2.4732,11.2527,1309,2921.27
17789,-2.065,-1.634,12.736,1300,2921.27
17794,-4.1168,1.1396,9.9443,1301,2921.27
17799,1.5969,3.298,9.3278,1307,2921.13
17804,1.7633,2.9401,10.9966,1301,2921.13
17809,-1.7526,-1.2342,12.7695,1298,2921.13
17814,-4.47,0.723,10.4315,1309,2921.13
17819,1.2546,3.1125,9.1794,1301,2921.27
17824,2.1548,3.3914,10.8433,1299,2921.27
17829,-1.646,-0.7171,12.7264,1299,2921.27
17834,-4.6112,0.3136,10.9283,1303,2921.27
17839,0.8392,2.982,8.9818,1288,2921.41
17844,2.2482,3.7038,10.5704,1305,2921.41
17849,-1.5419,-0.164,12.615,1297,2921.41
17854,-4.4927,-0.1975,11.3102,1304,2921.41
17859,0.3412,2.8192,8.8262,1309,2921.41
17864,2.296,3.9109,10.2831,1301,2921.41
17869,-1.5802,0.3639,12.5456,1299,2921.41
17874,-4.2282,-0.7027,11.6993,1307,2921.41
17879,-0.3232,2.5833,8.7233,1302,2921.7
17884,2.156,3.9684,10.137,1309,2921.7
17889,-1.5634,0.8116,12.317,1303,2921.7
17894,-3.9325,-1.1672,12.0273,1307,2921.7
17899,-1.0654,2.3559,8.7412,1305,2921.7
17904,2.0351,3.9421,10.0844,1305,2921.7
17909,-1.3827,1.1696,12.1063,1306,2921.7
17914,-3.5817,-1.5419,12.3649,1305,2921.7
17919,-1.8471,2.1524,8.8442,1301,2921.7
17924,1.9118,3.8846,9.9371,1307,2921.7
17929,-0.8487,1.4928,11.8705,1311,2921.7
17934,-3.1496,-1.7131,12.5839,1305,2921.7
17939,-2.6288,1.9417,9.0465,1303,2922.27
17944,1.8878,3.8415,9.8342,1307,2922.27
17949,-0.1233,1.9166,11.6406,1302,2922.27
17954,-2.6899,-1.7502,12.6558,1311,2922.27
17959,-3.3435,1.646,9.3757,1301,2922.41
17964,1.828,3.6835,9.6295,1301,2922.41
17969,0.8188,2.3427,11.2982,1311,2922.41
17974,-2.2338,-1.6257,12.7539,1301,2922.41
17979,-3.8894,1.3084,9.7839,1304,2922.41
17984,1.6939,3.3794,9.4152,1301,2922.69
17989,1.5778,2.7426,11.1223,1301,2922.69
17994,-1.8567,-1.4353,12.6749,1301,2922.69
17999,-4.3658,0.9266,10.2113,1315,2922.69
18004,1.4353,3.1759,9.2285,1302,2922.84
18009,2.0901,3.1448,10.8469,1305,2922.84
18014,-1.6065,-0.984,12.7731,1302,2922.84
18019,-4.5777,0.4597,10.653,1306,2922.84
18024,1.0271,2.9832,9.0345,1303,2922.69
18029,2.2673,3.5099,10.6482,1303,2922.69
18034,-1.5742,-0.4262,12.7036,1302,2922.69
18039,-4.6172,0.0371,11.0804,1303,2922.69
18044,0.5423,2.8826,8.9771,1301,2922.69
18049,2.235,3.8319,10.4471,1305,2922.69
18054,-1.6065,0.1365,12.6474,1301,2922.69
18059,-4.4197,-0.4537,11.5209,1304,2922.69
18064,-0.0287,2.6827,8.7951,1309,2922.84
18069,2.1919,3.9816,10.2256,1307,2922.84
18074,-1.5874,0.6165,12.4103,1301,2922.84
18079,-4.1551,-0.9254,11.904,1309,2922.84
18084,-0.6883,2.484,8.7424,1307,2922.27
18089,2.1009,4.0079,10.1311,1303,2922.27
18094,-1.4988,0.9625,12.1781,1309,2922.27
18099,-3.7673,-1.342,12.1697,1305,2922.27
18104,-1.4904,2.1895,8.7759,1305,2923.83
18109,1.9824,3.9325,9.9874,1308,2923.83
18114,-1.136,1.3204,11.9602,1305,2923.83
18119,-3.3662,-1.6424,12.4487,1305,2923.83
18124,-2.2637,2.0626,8.9735,1306,2923.26
18129,1.8998,3.887,9.8689,1311,2923.26
18134,-0.5387,1.6927,11.7591,1305,2923.26
18139,-2.9724,-1.7621,12.5636,1317,2923.26
18144,-2.988,1.8435,9.256,1301,2923.12
18149,1.8459,3.735,9.7456,1307,2923.12
18154,0.267,2.1392,11.5053,1316,2923.12
18159,-2.5307,-1.7011,12.6629,1309,2923.12
18164,-3.5997,1.5574,9.5577,1309,2922.98
18169,1.7777,3.571,9.5277,1305,2922.98
18174,1.1672,2.5486,11.2504,1311,2922.98
18179,-2.0554,-1.5143,12.706,1303,2922.98
18184,-4.1156,1.1827,9.9527,1305,2922.98
18189,1.5933,3.298,9.3254,1307,2922.55
18194,1.8938,2.9269,11.0301,1310,2922.55
18199,-1.7621,-1.2139,12.7647,1301,2922.55
18204,-4.4341,0.7051,10.4028,1311,2922.55
18209,1.2725,3.0909,9.1255,1303,2922.69
18214,2.1715,3.2896,10.7428,1295,2922.69
18219,-1.5371,-0.7709,12.7216,1302,2922.69
18224,-4.628,0.2143,10.8577,1305,2922.69
18229,0.8188,2.9245,9.0142,1299,2922.84
18234,2.229,3.6775,10.5369,1307,2922.84
18239,-1.6125,-0.2023,12.6402,1305,2922.84
18244,-4.5418,-0.1975,11.315,1305,2922.84
18249,0.3472,2.7821,8.8214,1309,2922.84
18254,2.2158,3.9588,10.4208,1305,2922.84
18259,-1.6281,0.3843,12.4475,1300,2922.84
18264,-4.2856,-0.6476,11.7519,1307,2922.84
18269,-0.3065,2.5774,8.7771,1301,2923.26
18274,2.1572,4.0462,10.2125,1309,2923.26
18279,-1.5957,0.8021,12.2691,1293,2923.26
18284,-3.9576,-1.0714,11.9997,1307,2923.26
18289,-1.0283,2.3667,8.7568,1305,2923.55
18294,2.0877,4.039,10.1359,1309,2923.55
18299,-1.4006,1.1277,12.0776,1308,2923.55
18304,-3.5853,-1.482,12.299,1305,2923.55
18309,-1.7957,2.1057,8.8095,1305,2923.98
18314,1.9573,3.8906,9.9611,1311,2923.98
18319,-0.9098,1.4521,11.8728,1305,2923.98
18324,-3.2334,-1.743,12.4343,1304,2923.98
18329,-2.5498,1.9477,9.068,1304,2923.69
18334,1.8567,3.8008,9.809,1307,2923.69
18339,-0.2071,1.8627,11.6729,1303,2923.69
18344,-2.7533,-1.7897,12.6306,1310,2923.69
18349,-3.2884,1.6963,9.3625,1305,2923.98
18354,1.7837,3.6607,9.6977,1301,2923.98
18359,0.6201,2.2972,11.3557,1314,2923.98
18364,-2.3415,-1.64,12.724,1303,2923.98
18369,-3.8475,1.4641,9.7396,1305,2923.98
18374,1.6975,3.5207,9.5002,1307,2923.69
18379,1.4138,2.648,11.1091,1302,2923.69
18384,-1.9154,-1.3946,12.7862,1303,2923.69
18389,-4.2928,0.9661,10.088,1311,2923.69
18394,1.4641,3.2597,9.256,1301,2923.69
18399,2.0279,3.0574,10.8469,1303,2923.69
18404,-1.6891,-1.0032,12.7623,1302,2923.69
18409,-4.5394,0.5291,10.5764,1307,2923.69
18414,1.1193,3.0095,9.0609,1301,2923.83
18419,2.2517,3.4333,10.6063,1301,2923.83
18424,-1.5431,-0.5375,12.6857,1303,2923.83
18429,-4.5717,0.0395,11.0672,1301,2923.83
18434,0.6141,2.8347,8.9447,1303,2923.69
18439,2.2386,3.7661,10.5141,1320,2923.69
18444,-1.6412,-0.0096,12.6198,1303,2923.69
18449,-4.4951,-0.3579,11.4862,1301,2923.69
18454,0.1233,2.7186,8.8502,1305,2923.69
18459,2.2039,3.9744,10.3034,1305,2923.69
18464,-1.6915,0.5076,12.4594,1303,2923.69
18469,-4.2569,-0.7506,11.8321,1307,2923.69
18474,-0.5638,2.5678,8.8023,1304,2923.69
18479,2.1093,4.039,10.1622,1303,2923.69
18484,-1.579,0.9002,12.293,1310,2923.69
18489,-3.8259,-1.2091,12.1135,1304,2923.69
18494,-1.2354,2.2805,8.7544,1304,2923.83
18499,2.0614,3.9421,10.0137,1307,2923.83
18504,-1.2653,1.2689,12.0728,1303,2923.83
18509,-3.4848,-1.634,12.3876,1304,2923.83
18514,-2.0423,2.0399,8.9172,1304,2924.12
18519,1.9381,3.8571,9.8976,1303,2924.12
18524,-0.7254,1.6101,11.8262,1304,2924.12
18529,-3.0382,-1.8016,12.5097,1308,2924.12
18534,-2.8431,1.8615,9.1243,1306,2923.69
18539,1.834,3.7266,9.815,1305,2923.69
18544,0.0587,1.9728,11.5281,1307,2923.69
18549,-2.6659,-1.7741,12.7324,1307,2923.69
18554,-3.5362,1.5838,9.5074,1307,2924.4
18559,1.7454,3.5865,9.6247,1305,2924.4
18564,0.8715,2.4349,11.3126,1311,2924.4
18569,-2.223,-1.6017,12.7383,1301,2924.4
18574,-4.0354,1.3144,9.8629,1303,2924.4
18579,1.6137,3.4273,9.4224,1307,2924.12
18584,1.6556,2.8359,11.0421,1309,2924.12
18589,-1.8304,-1.2833,12.7479,1300,2924.12
18594,-4.3682,0.8571,10.3657,1311,2924.12
18599,1.3791,3.1424,9.1435,1301,2923.83
18604,2.1763,3.2118,10.7631,1303,2923.83
18609,-1.5802,-0.8739,12.6486,1300,2923.83
18614,-4.5442,0.3639,10.7763,1303,2923.83
18619,1.008,2.9377,8.9699,1292,2923.69
18624,2.3188,3.5087,10.6374,1304,2923.69
18629,-1.5191,-0.395,12.7084,1300,2923.69
18634,-4.5825,-0.0754,11.145,1303,2923.69
18639,0.5052,2.7928,8.8095,1309,2923.26
18644,2.2338,3.7984,10.3801,1307,2923.26
18649,-1.6233,0.176,12.5923,1299,2923.26
18654,-4.4448,-0.5303,11.6011,1305,2923.26
18659,-0.1305,2.642,8.8382,1305,2922.84
18664,2.1811,4.0127,10.2927,1307,2922.84
18669,-1.6568,0.6536,12.4163,1301,2922.84
18674,-4.1168,-0.9278,11.9279,1307,2922.84
18679,-0.7817,2.4624,8.7257,1305,2922.98
18684,2.1237,4.0893,10.143,1304,2922.98
18689,-1.5095,1.0798,12.1697,1308,2922.98
18694,-3.6859,-1.2797,12.2439,1307,2922.98
18699,-1.4892,2.2386,8.7831,1304,2922.98
18704,2.053,3.972,9.9814,1311,2922.98
18709,-1.0427,1.3827,11.874,1305,2922.98
18714,-3.2968,-1.6676,12.4187,1303,2922.98
18719,-2.3296,1.9728,8.9399,1305,2923.12
18724,1.9501,3.8439,9.9371,1309,2923.12
18729,-0.4645,1.7166,11.6921,1301,2923.12
18734,-2.8635,-1.8531,12.627,1311,2923.12
18739,-3.0658,1.737,9.2296,1305,2923.26
18744,1.822,3.6428,9.7252,1303,2923.26
18749,0.3412,2.1524,11.4203,1311,2923.26
18754,-2.4804,-1.7621,12.7372,1301,2923.26
18759,-3.7254,1.4676,9.6379,1304,2923.83
18764,1.7095,3.5135,9.5612,1305,2923.83
18769,1.1959,2.63,11.2671,1304,2923.83
18774,-2.0494,-1.4988,12.7671,1301,2923.83
18779,-4.197,1.1923,10.0245,1311,2923.83
18784,1.555,3.3208,9.3422,1301,2923.83
18789,1.8735,3.0323,10.8864,1303,2923.83
18794,-1.7274,-1.1504,12.7336,1304,2923.83
18799,-4.4939,0.6871,10.4878,1308,2923.83
18804,1.2462,3.1065,9.1674,1301,2923.83
18809,2.2709,3.3926,10.7129,1303,2923.83
18814,-1.5048,-0.6584,12.7144,1303,2923.83
18819,-4.5861,0.1987,10.8733,1303,2923.83
18824,0.8152,2.8802,8.9519,1295,2923.69
18829,2.2901,3.6212,10.4603,1305,2923.69
18834,-1.5443,-0.2167,12.6402,1311,2923.69
18839,-4.5382,-0.3184,11.3569,1305,2923.69
18844,0.255,2.727,8.8789,1306,2923.83
18849,2.1919,3.8583,10.2939,1306,2923.83
18854,-1.6269,0.3699,12.5073,1299,2923.83
18859,-4.3551,-0.7171,11.7472,1305,2923.83
18864,-0.328,2.5702,8.7233,1303,2923.69
18869,2.1344,4.0582,10.173,1305,2923.69
18874,-1.6747,0.8188,12.4115,1305,2923.69
18879,-4.0462,-1.0942,12.0883,1305,2923.69
18884,-1.0702,2.3774,8.7628,1304,2923.83
18889,2.1153,4.0857,10.1011,1308,2923.83
18894,-1.4234,1.172,12.0692,1307,2923.83
18899,-3.5793,-1.4006,12.3445,1304,2923.83
18904,-1.7777,2.1512,8.8478,1303,2923.69
18909,2.0291,3.9409,9.9491,1307,2923.69
18914,-0.917,1.5131,11.8441,1307,2923.69
18919,-3.1484,-1.7178,12.4786,1311,2923.69
18924,-2.5594,1.9154,9.0154,1303,2923.41
18929,1.9537,3.7757,9.8186,1306,2923.41
18934,-0.1006,1.889,11.6442,1305,2923.41
18939,-2.7031,-1.8208,12.6091,1305,2923.41
18944,-3.2908,1.6257,9.4044,1309,2923.69
18949,1.7669,3.6129,9.7097,1299,2923.69
18954,0.6488,2.3296,11.3772,1315,2923.69
18959,-2.3152,-1.7286,12.7048,1303,2923.69
18964,-3.8978,1.3719,9.7767,1303,2923.69
18969,1.6532,3.4488,9.4846,1309,2923.41
18974,1.4533,2.7557,11.133,1309,2923.41
18979,-1.9561,-1.4461,12.7934,1300,2923.41
18984,-4.3084,1.0235,10.222,1311,2923.41
18989,1.4856,3.2705,9.2416,1301,2923.26
18994,2.0039,3.1819,10.8374,1300,2923.26
18999,-1.6484,-0.9649,12.7455,1298,2923.26
19004,-4.5203,0.5279,10.5943,1303,2923.26
19009,1.1085,3.0873,9.0513,1301,2922.98
19014,2.2984,3.5063,10.6075,1303,2922.98
19019,-1.4952,-0.4681,12.7048,1299,2922.98
19024,-4.5526,-0.0168,11.0887,1305,2922.98
19029,0.6416,2.8144,8.8933,1309,2922.69
19034,2.2529,3.7661,10.4483,1307,2922.69
19039,-1.5526,0.0479,12.5612,1303,2922.69
19044,-4.4089,-0.5183,11.5808,1308,2922.69
19049,0.0335,2.6348,8.7951,1307,2922.69
19054,2.1608,3.9492,10.2867,1307,2922.69
19059,-1.6688,0.51,12.4211,1301,2922.69
19064,-4.2186,-0.8583,11.9016,1311,2922.69
19069,-0.6309,2.4744,8.7233,1309,2922.69
19074,2.1464,4.0689,10.173,1307,2922.69
19079,-1.6376,0.9637,12.2416,1307,2922.69
19084,-3.899,-1.221,12.1937,1307,2922.69
19089,-1.3396,2.2901,8.8274,1305,2922.98
19094,2.0638,4.0594,9.9994,1325,2922.98
19099,-1.2833,1.3084,12.0273,1305,2922.98
19104,-3.4237,-1.5921,12.3469,1305,2922.98
19109,-2.1105,2.0171,8.904,1305,2922.98
19114,1.98,3.8882,9.9,1311,2922.98
19119,-0.6309,1.6903,11.7855,1304,2922.98
19124,-2.9365,-1.7705,12.6139,1309,2922.98
19129,-2.8718,1.8268,9.1782,1307,2923.26
19134,1.889,3.6883,9.7612,1303,2923.26
19139,0.2011,2.0542,11.4934,1315,2923.26
19144,-2.5486,-1.8028,12.645,1301,2923.26
19149,-3.5518,1.5287,9.4583,1303,2923.12
19154,1.7801,3.4943,9.6055,1302,2923.12
19159,1.0187,2.5235,11.2539,1305,2923.12
19164,-2.2051,-1.6077,12.7791,1303,2923.12
19169,-4.1264,1.1768,9.8904,1315,2923.12
19174,1.5814,3.3914,9.4176,1305,2923.55
19179,1.6867,2.9365,10.9391,1307,2923.55
19184,-1.8292,-1.2091,12.7922,1301,2923.55
19189,-4.4185,0.7817,10.3573,1309,2923.55
19194,1.3467,3.1903,9.1889,1301,2923.41
19199,2.1368,3.2992,10.7464,1303,2923.41
19204,-1.6328,-0.7685,12.7491,1305,2923.41
19209,-4.5789,0.346,10.8062,1304,2923.41
19214,0.9158,2.9748,8.9615,1299,2923.69
19219,2.2805,3.6236,10.507,1303,2923.69
19224,-1.5323,-0.2394,12.6055,1303,2923.69
19229,-4.4963,-0.1664,11.2887,1304,2923.69
19234,0.425,2.7461,8.8358,1311,2923.41
19239,2.2769,3.8571,10.3585,1306,2923.41
19244,-1.5682,0.2107,12.542,1303,2923.41
19249,-4.3539,-0.6644,11.6693,1305,2923.41
19254,-0.2155,2.5857,8.7712,1303,2923.26
19259,2.1644,3.9409,10.2077,1307,2923.26
19264,-1.6233,0.6668,12.317,1311,2923.26
19269,-4.1252,-1.0714,12.0021,1304,2923.26
19274,-0.9242,2.4026,8.7807,1304,2923.12
19279,2.0458,4.0151,10.0999,1305,2923.12
19284,-1.4964,1.1313,12.1422,1307,2923.12
19289,-3.6787,-1.3659,12.2811,1306,2923.12
19294,-1.6616,2.2529,8.8382,1305,2923.12
19299,2.0147,3.9935,9.9611,1305,2923.12
19304,-1.0415,1.488,11.9339,1305,2923.12
19309,-3.2358,-1.652,12.487,1309,2923.12
19314,-2.411,1.962,9.0178,1303,2922.84
19319,1.986,3.8319,9.7875,1305,2922.84
19324,-0.2933,1.8447,11.6035,1305,2922.84
19329,-2.7689,-1.7897,12.6498,1308,2922.84
19334,-3.1711,1.7023,9.3302,1307,2923.41
19339,1.8651,3.6655,9.6738,1303,2923.41
19344,0.5794,2.235,11.3904,1317,2923.41
19349,-2.3379,-1.7645,12.7252,1302,2923.41
19354,-3.7769,1.3443,9.651,1304,2923.41
19359,1.7358,3.4261,9.4966,1307,2923.12
19364,1.3348,2.6803,11.1378,1303,2923.12
19369,-2.0542,-1.4952,12.7312,1300,2923.12
19374,-4.2796,1.0654,10.1514,1317,2923.12
19379,1.4892,3.2441,9.2763,1297,2923.55
19384,1.8663,3.1304,10.9619,1303,2923.55
19389,-1.798,-1.0618,12.7443,1299,2923.55
19394,-4.5119,0.6345,10.568,1303,2923.55
19399,1.1887,3.0849,9.1387,1303,2923.26
19404,2.2338,3.5051,10.72,1305,2923.26
19409,-1.6245,-0.5507,12.6665,1292,2923.26
19414,-4.5394,0.1987,11.0397,1301,2923.26
19419,0.7841,2.903,8.9184,1307,2922.98
19424,2.3212,3.7996,10.5153,1302,2922.98
19429,-1.5455,-0.0371,12.5468,1304,2922.98
19434,-4.4161,-0.431,11.3701,1303,2922.98
19439,0.1736,2.6743,8.7724,1302,2922.69
19444,2.2338,3.9205,10.3274,1307,2922.69
19449,-1.6149,0.4274,12.4606,1294,2922.69
19454,-4.2138,-0.8356,11.8178,1308,2922.69
19459,-0.4764,2.5558,8.7293,1306,2922.55
19464,2.1033,4.0235,10.1502,1307,2922.55
19469,-1.6125,0.9325,12.2655,1301,2922.55
19474,-3.9073,-1.2546,12.147,1305,2922.55
19479,-1.2558,2.3236,8.8298,1304,2922.84
19484,1.9968,4.0498,10.1035,1315,2922.84
19489,-1.3408,1.2761,12.0357,1304,2922.84
19494,-3.4848,-1.4808,12.3517,1303,2922.84
19499,-2.0291,2.1488,8.8921,1299,2922.41
19504,1.9908,3.9696,9.9671,1307,2922.41
19509,-0.735,1.6245,11.7831,1303,2922.41
19514,-3.055,-1.7095,12.5516,1315,2922.41
19519,-2.7857,1.8531,9.1303,1305,2923.41
19524,1.9537,3.8283,9.7779,1305,2923.41
19529,0.0646,1.9632,11.5377,1309,2923.41
19534,-2.5414,-1.7406,12.6665,1299,2923.41
19539,-3.4249,1.6089,9.4439,1303,2922.84
19544,1.8615,3.5614,9.6139,1302,2922.84
19549,0.9744,2.4253,11.3605,1308,2922.84
19554,-2.1979,-1.6879,12.6953,1303,2922.84
19559,-4.0139,1.227,9.8761,1315,2922.84
19564,1.6257,3.3662,9.4379,1304,2923.12
19569,1.664,2.8539,11.1067,1307,2923.12
19574,-1.9046,-1.3527,12.7443,1301,2923.12
19579,-4.4185,0.8308,10.313,1310,2923.12
19584,1.3599,3.1388,9.2177,1303,2923.12
19589,2.0961,3.2848,10.8266,1301,2923.12
19594,-1.6484,-0.8583,12.7084,1303,2923.12
19599,-4.5418,0.4298,10.7703,1304,2923.12
19604,0.9637,2.9951,9.0082,1303,2922.84
19609,2.2709,3.6021,10.5716,1306,2922.84
19614,-1.6041,-0.2897,12.6402,1310,2922.84
19619,-4.5358,-0.0443,11.1426,1304,2922.84
19624,0.5136,2.818,8.8885,1307,2922.69
19629,2.2793,3.8511,10.4387,1303,2922.69
19634,-1.585,0.2406,12.5372,1299,2922.69
19639,-4.3574,-0.5722,11.558,1304,2922.69
19644,-0.1018,2.5989,8.7281,1304,2922.84
19649,2.1979,3.9373,10.2113,1307,2922.84
19654,-1.6484,0.6728,12.4008,1316,2922.84
19659,-4.0809,-1.0259,11.9782,1293,2922.84
19664,-0.8164,2.46,8.7424,1308,2922.98
19669,2.0734,4.0139,10.1215,1307,2922.98
19674,-1.5203,1.0175,12.1661,1307,2922.98
19679,-3.7493,-1.3922,12.2236,1309,2922.98
19684,-1.585,2.2242,8.7987,1305,2923.26
19689,1.9764,3.9708,10.0293,1307,2923.26
19694,-1.1133,1.3587,11.9207,1305,2923.26
19699,-3.3794,-1.6005,12.475,1311,2923.26
19704,-2.3643,2.0315,9.0405,1306,2923.41
19709,1.9597,3.8714,9.8426,1305,2923.41
19714,-0.4609,1.7561,11.6681,1308,2923.41
19719,-2.8742,-1.7262,12.5875,1307,2923.41
19724,-3.0801,1.7597,9.2775,1303,2923.55
19729,1.8974,3.6895,9.6786,1303,2923.55
19734,0.4322,2.2098,11.4563,1315,2923.55
19739,-2.4541,-1.7131,12.6737,1304,2923.55
19744,-3.7014,1.4533,9.645,1301,2923.55
19749,1.7609,3.4979,9.517,1311,2923.98
19754,1.2869,2.6049,11.1438,1307,2923.98
19759,-2.0219,-1.5251,12.724,1299,2923.98
19764,-4.2413,1.0894,10.0233,1318,2923.98
19769,1.5215,3.2382,9.3482,1301,2924.12
19774,1.8459,2.9509,10.9535,1301,2924.12
19779,-1.7514,-1.1744,12.7611,1300,2924.12
19784,-4.5238,0.6668,10.4675,1297,2924.12
19789,1.2426,3.0957,9.1111,1302,2924.26
19794,2.1979,3.4081,10.7105,1305,2924.26
19799,-1.6412,-0.668,12.7264,1299,2924.26
19804,-4.5969,0.2251,10.9583,1307,2924.26
19809,0.7949,2.9616,8.9459,1310,2923.98
19814,2.3188,3.7086,10.5405,1307,2923.98
19819,-1.6173,-0.1065,12.6893,1305,2923.98
19824,-4.4999,-0.17,11.3808,1306,2923.98
19829,0.3172,2.7461,8.825,1306,2923.55
19834,2.3212,3.9492,10.3477,1307,2923.55
19839,-1.6712,0.3926,12.4941,1303,2923.55
19844,-4.2617,-0.7051,11.7926,1309,2923.55
19849,-0.3256,2.5223,8.7161,1304,2923.83
19854,2.1703,4.051,10.2304,1310,2923.83
19859,-1.6508,0.7853,12.2823,1307,2923.83
19864,-3.9433,-1.1492,12.0548,1307,2923.83
19869,-0.9816,2.3379,8.691,1304,2923.69
19874,2.0746,4.0306,10.0664,1309,2923.69
19879,-1.4281,1.1959,12.0991,1307,2923.69
19884,-3.5925,-1.4724,12.2655,1299,2923.69
19889,-1.8423,2.1332,8.8562,1307,2923.83
19894,1.9465,3.9121,9.9419,1309,2923.83
19899,-0.9505,1.4844,11.9028,1304,2923.83
19904,-3.2082,-1.6903,12.4534,1315,2923.83
19909,-2.6336,1.9142,9.1135,1303,2924.12
19914,1.8854,3.814,9.8162,1308,2924.12
19919,-0.1664,1.9201,11.6646,1311,2924.12
19924,-2.7509,-1.7262,12.6965,1305,2924.12
19929,-3.3148,1.7394,9.3673,1307,2924.55
19934,1.8663,3.6655,9.657,1307,2924.55
19939,0.7302,2.296,11.3509,1311,2924.55
19944,-2.3032,-1.6676,12.7156,1297,2924.55
19949,-3.8702,1.3575,9.7588,1304,2924.55
19954,1.6999,3.4285,9.4308,1305,2924.26
19959,1.4509,2.7402,11.0684,1305,2924.26
19964,-1.8902,-1.4114,12.7719,1301,2924.26
19969,-4.3431,0.9421,10.1071,1309,2924.26
19974,1.5227,3.2274,9.25,1299,2923.83
19979,2.0423,3.1208,10.8266,1303,2923.83
19984,-1.725,-1.0211,12.7647,1304,2923.83
19989,-4.5693,0.5231,10.6662,1303,2923.83
19994,1.1217,3.037,9.0704,1299,2923.55
19999,2.2565,3.4716,10.6817,1302,2923.55
20004,-1.6544,-0.5171,12.6701,1305,2923.55
20009,-4.6316,0.0539,11.0792,1303,2923.55
20014,0.6716,2.8347,8.9016,1310,2923.83
20019,2.2841,3.8068,10.5022,1301,2923.83
20024,-1.6616,0.0395,12.6366,1301,2923.83
20029,-4.4508,-0.3603,11.5329,1304,2923.83
20034,0.1221,2.7031,8.8083,1301,2924.12
20039,2.2398,3.9684,10.2663,1304,2924.12
20044,-1.7011,0.5327,12.4427,1307,2924.12
20049,-4.1671,-0.808,11.825,1307,2924.12
20054,-0.5016,2.5103,8.7472,1307,2924.26
20059,2.1488,4.0115,10.1837,1310,2924.26
20064,-1.6293,0.9481,12.2823,1308,2924.26
20069,-3.8188,-1.2617,12.1745,1307,2924.26
20074,-1.257,2.2721,8.7484,1307,2924.12
20079,2.0171,3.9816,9.9551,1307,2924.12
20084,-1.306,1.2546,12.0584,1307,2924.12
20089,-3.486,-1.579,12.3194,1307,2924.12
20094,-2.059,2.077,8.9268,1305,2924.55
20099,1.9225,3.8726,9.9419,1307,2924.55
20104,-0.7602,1.6281,11.8298,1305,2924.55
20109,-3.0849,-1.7621,12.5468,1309,2924.55
20114,-2.8,1.8759,9.0692,1306,2925.12
20119,1.8974,3.7541,9.8162,1301,2925.12
20124,0.0419,2.0303,11.5341,1311,2925.12
20129,-2.5941,-1.7633,12.7635,1301,2925.12
20134,-3.5255,1.5886,9.5253,1307,2925.12
20139,1.7873,3.6021,9.6151,1309,2925.12
20144,0.9325,2.4672,11.2827,1302,2925.12
20149,-2.1847,-1.5945,12.7264,1299,2925.12
20154,-4.0534,1.2582,9.8366,1309,2925.12
20159,1.7011,3.4177,9.3769,1299,2925.69
20164,1.664,2.818,11.0313,1301,2925.69
20169,-1.8519,-1.3336,12.7419,1301,2925.69
20174,-4.3922,0.8655,10.3106,1309,2925.69
20179,1.4293,3.1424,9.2285,1302,2925.26
20184,2.1284,3.1975,10.7871,1301,2925.26
20189,-1.6472,-0.9158,12.7036,1301,2925.26
20194,-4.5837,0.4489,10.6985,1304,2925.26
20199,1.0139,2.9568,8.9771,1295,2925.26
20204,2.3032,3.535,10.6398,1307,2925.26
20209,-1.5969,-0.4381,12.6881,1304,2925.26
20214,-4.6017,-0.0287,11.1678,1305,2925.26
20219,0.5746,2.7749,8.8166,1307,2925.54
20224,2.2805,3.863,10.4064,1305,2925.54
20229,-1.646,0.1425,12.5863,1299,2925.54
20234,-4.4831,-0.4729,11.6358,1304,2925.54
20239,-0.0132,2.654,8.77,1300,2925.12
20244,2.2146,3.9995,10.2556,1298,2925.12
20249,-1.7035,0.6009,12.4343,1309,2925.12
20254,-4.1216,-0.8954,11.8345,1305,2925.12
20259,-0.6357,2.484,8.7281,1303,2925.12
20264,2.1715,4.0294,10.0963,1311,2925.12
20269,-1.5742,0.9697,12.238,1307,2925.12
20274,-3.7733,-1.3024,12.2212,1301,2925.12
20279,-1.318,2.2362,8.7712,1308,2925.26
20284,2.0853,3.9397,10.0161,1311,2925.26
20289,-1.2366,1.3312,11.959,1308,2925.26
20294,-3.3782,-1.6053,12.3625,1311,2925.26
20299,-2.1835,1.9752,8.8621,1305,2925.69
20304,1.913,3.8822,9.9276,1306,2925.69
20309,-0.6416,1.6604,11.7807,1308,2925.69
20314,-3.037,-1.8016,12.6091,1311,2925.69
20319,-2.9113,1.7968,9.2045,1307,2925.83
20324,1.8555,3.711,9.7408,1304,2925.83
20329,0.1137,2.0614,11.5508,1318,2925.83
20334,-2.6181,-1.7382,12.6785,1303,2925.83
20339,-3.565,1.5479,9.5229,1305,2925.83
20344,1.7873,3.5829,9.6271,1311,2925.69
20349,1.0331,2.5007,11.333,1309,2925.69
20354,-2.1608,-1.5455,12.7563,1301,2925.69
20359,-4.0677,1.2342,9.9156,1319,2925.69
20364,1.6556,3.3279,9.4068,1305,2926.54
20369,1.7514,2.8551,11.0157,1303,2926.54
20374,-1.8256,-1.3204,12.6905,1299,2926.54
20379,-4.3886,0.8284,10.337,1306,2926.54
20384,1.391,3.1532,9.2296,1299,2926.69
20389,2.1883,3.2729,10.7703,1306,2926.69
20394,-1.5886,-0.8703,12.7659,1301,2926.69
20399,-4.6148,0.3484,10.7488,1305,2926.69
20404,1.0199,2.9628,9.0273,1307,2926.54
20409,2.3032,3.5063,10.5512,1309,2926.54
20414,-1.6233,-0.3615,12.7479,1305,2926.54
20419,-4.6268,-0.103,11.2252,1305,2926.54
20424,0.5016,2.8443,8.9064,1307,2926.69
20429,2.2673,3.814,10.3693,1307,2926.69
20434,-1.6472,0.1688,12.5612,1303,2926.69
20439,-4.4448,-0.4944,11.5975,1309,2926.69
20444,-0.0299,2.6408,8.7245,1307,2926.4
20449,2.2278,4.0294,10.2831,1305,2926.4
20454,-1.6879,0.6213,12.4259,1311,2926.4
20459,-4.1827,-0.8894,11.9614,1301,2926.4
20464,-0.6776,2.49,8.6862,1305,2926.4
20469,2.1799,4.051,10.1454,1307,2926.4
20474,-1.5766,0.9744,12.1997,1305,2926.4
20479,-3.8092,-1.2797,12.1901,1306,2926.4
20484,-1.3779,2.235,8.7676,1307,2926.4
20489,2.0949,3.9576,9.9719,1306,2926.4
20494,-1.1995,1.3228,12.056,1305,2926.4
20499,-3.3842,-1.64,12.3912,1309,2926.4
20504,-2.1201,1.986,8.928,1305,2925.83
20509,1.9632,3.8355,9.8701,1309,2925.83
20514,-0.6404,1.6771,11.8321,1305,2925.83
20519,-3.0514,-1.7789,12.5708,1309,2925.83
20524,-2.9161,1.804,9.1698,1307,2925.97
20529,1.8399,3.7122,9.7348,1307,2925.97
20534,0.1125,2.0578,11.5688,1317,2925.97
20539,-2.6145,-1.7753,12.712,1303,2925.97
20544,-3.5614,1.5682,9.5241,1304,2925.97
20549,1.7466,3.5518,9.578,1309,2925.97
20554,0.9888,2.4888,11.297,1309,2925.97
20559,-2.1979,-1.5419,12.7659,1303,2925.97
20564,-4.0773,1.2354,9.8761,1311,2925.97
20569,1.6197,3.3722,9.3865,1303,2926.26
20574,1.7358,2.8575,11.0792,1301,2926.26
20579,-1.7945,-1.2773,12.7419,1307,2926.26
20584,-4.4293,0.808,10.2819,1306,2926.26
20589,1.4473,3.1687,9.1889,1304,2926.26
20594,2.1799,3.2298,10.7595,1305,2926.26
20599,-1.6328,-0.8487,12.7683,1302,2926.26
20604,-4.5574,0.3567,10.7667,1307,2926.26
20609,1.0032,2.9544,8.9531,1307,2926.4
20614,2.32,3.6021,10.5776,1309,2926.4
20619,-1.573,-0.3891,12.6833,1305,2926.4
20624,-4.5873,-0.1053,11.2527,1303,2926.4
20629,0.5387,2.7557,8.8466,1299,2926.4
20634,2.241,3.8834,10.422,1304,2926.4
20639,-1.6424,0.1305,12.5947,1303,2926.4
20644,-4.464,-0.486,11.6059,1311,2926.4
20649,-0.0718,2.6037,8.7448,1306,2925.83
20654,2.1811,4.0354,10.2795,1304,2925.83
20659,-1.6951,0.5806,12.4091,1309,2925.83
20664,-4.1791,-0.8894,11.898,1306,2925.83
20669,-0.6716,2.4756,8.7532,1305,2927.11
20674,2.1488,4.0378,10.1179,1309,2927.11
20679,-1.5586,1.0008,12.2332,1303,2927.11
20684,-3.814,-1.2749,12.1853,1305,2927.11
20689,-1.4102,2.2505,8.7987,1306,2926.12
20694,2.0937,3.9899,9.9814,1305,2926.12
20706,16.9318,5.1368,-15.5539,1317,2926.12
20709,-2.1464,2.0351,8.9028,1303,2926.12
20714,1.9668,3.8307,9.8426,1315,2926.12
20719,-0.5962,1.6807,11.7902,1337,2926.12
20724,-3.0035,-1.7657,12.5109,1317,2926.12
20729,-2.9389,1.828,9.1004,1315,2925.97
20734,1.8639,3.7218,9.7528,1311,2925.97
20739,0.1305,2.0602,11.5269,1321,2925.97
20744,-2.6169,-1.7729,12.7467,1310,2925.97
20749,-3.547,1.5419,9.5217,1311,2925.97
20754,1.7561,3.5638,9.6151,1311,2926.54
20759,0.9661,2.4828,11.2767,1316,2926.54
20764,-2.1691,-1.5359,12.6869,1309,2926.54
20769,-4.0737,1.2103,9.8701,1319,2926.54
20774,1.652,3.4129,9.3889,1307,2926.26
20779,1.7154,2.9113,11.1139,1308,2926.26
20784,-1.8435,-1.2737,12.7683,1311,2926.26
20789,-4.3934,0.814,10.3046,1309,2926.26
20794,1.3827,3.1687,9.1111,1307,2926.26
20799,2.162,3.2657,10.817,1310,2926.26
20804,-1.6041,-0.8619,12.7407,1301,2926.26
20809,-4.5478,0.3508,10.7643,1310,2926.26
20814,0.9804,2.9485,8.9531,1317,2926.26
20819,2.3427,3.5698,10.6171,1311,2926.26
20824,-1.5682,-0.3531,12.6917,1307,2926.26
20829,-4.5657,-0.1137,11.1893,1319,2926.26
20834,0.5171,2.7785,8.8526,1309,2926.4
20839,2.2829,3.8571,10.4267,1315,2926.4
20844,-1.6436,0.1137,12.633,1312,2926.4
20849,-4.4807,-0.5339,11.6023,1316,2926.4
20854,-0.0551,2.6121,8.7867,1307,2926.4
20859,2.138,4.0366,10.2675,1315,2926.4
20864,-1.731,0.6381,12.4498,1309,2926.4
20869,-4.1791,-0.923,11.9183,1315,2926.4
20874,-0.6847,2.4146,8.7664,1311,2926.26
20879,2.1225,4.0558,10.0963,1319,2926.26
20884,-1.5359,1.0068,12.2559,1311,2926.26
20889,-3.8116,-1.2653,12.1685,1308,2926.26
20894,-1.4198,2.2673,8.8107,1310,2925.97
20899,2.1045,4.0259,10.003,1317,2925.97
20904,-1.221,1.3503,11.9698,1317,2925.97
20909,-3.3902,-1.6053,12.3804,1321,2925.97
20914,-2.1536,2.0255,8.8957,1311,2925.83
20919,2.0171,3.8726,9.8725,1311,2925.83
20924,-0.6117,1.6604,11.7795,1319,2925.83
20929,-2.9544,-1.7609,12.6091,1317,2925.83
20934,-2.9137,1.7705,9.1566,1317,2925.97
20939,1.8711,3.6943,9.7049,1310,2925.97
20944,0.1796,2.077,11.546,1319,2925.97
20949,-2.6013,-1.743,12.7096,1308,2925.97
20954,-3.5937,1.5215,9.5193,1309,2925.97
20959,1.7418,3.547,9.5469,1311,2925.83
20964,0.9673,2.4744,11.3246,1316,2925.83
20969,-2.2098,-1.6185,12.7527,1305,2925.83
20974,-4.0809,1.2139,9.9132,1317,2925.83
20979,1.6269,3.3495,9.3374,1308,2925.69
20984,1.7298,2.9425,11.0528,1311,2925.69
20989,-1.9225,-1.2474,12.7216,1311,2925.69
20994,-4.4113,0.82,10.3633,1305,2925.69
20999,1.3791,3.1723,9.177,1307,2925.69
21004,2.1859,3.2884,10.7895,1311,2925.69
21009,-1.6436,-0.8464,12.6953,1309,2925.69
21014,-4.5059,0.3807,10.7392,1311,2925.69
21019,1.0163,2.9712,8.9771,1317,2926.12
21024,2.3547,3.5877,10.5848,1310,2926.12
21029,-1.5407,-0.34,12.6761,1307,2926.12
21034,-4.5849,-0.1317,11.1785,1315,2926.12
21039,0.5183,2.7677,8.8921,1309,2925.69
21044,2.2745,3.8451,10.3765,1315,2925.69
21049,-1.64,0.1544,12.5576,1311,2925.69
21054,-4.4125,-0.5818,11.5987,1317,2925.69
21059,-0.0826,2.5989,8.7209,1311,2925.69
21064,2.235,4.0175,10.2843,1311,2925.69
21069,-1.7023,0.6333,12.3912,1311,2925.69
21074,-4.1563,-0.9158,12.0273,1317,2925.69
21079,-0.729,2.4253,8.6742,1307,2924.97
21084,2.1344,4.1144,10.167,1311,2924.97
21089,-1.5814,0.9996,12.1434,1311,2924.97
21094,-3.7781,-1.2821,12.2092,1315,2924.97
21099,-1.4712,2.2314,8.7963,1315,2924.83
21104,2.0554,4.0115,10.0006,1319,2924.83
21109,-1.1875,1.3611,11.9435,1309,2924.83
21114,-3.3686,-1.5897,12.3996,1321,2924.83
21119,-2.2122,2.0291,8.9483,1311,2924.55
21124,1.9968,3.8714,9.833,1308,2924.55
21129,-0.5614,1.7466,11.7124,1321,2924.55
21134,-2.9317,-1.8052,12.5636,1309,2924.55
21139,-2.9652,1.7657,9.2332,1311,2925.12
21144,1.8639,3.6907,9.7097,1317,2925.12
21149,2.2326,4.0139,10.2208,1317,2925.12
21154,-2.5175,-1.7573,12.6725,1308,2925.12
21159,-3.638,1.5455,9.5648,1319,2925.12
21164,1.7286,3.5422,9.5852,1307,2924.55
21169,1.0798,2.5367,11.2336,1311,2924.55
21174,-2.1105,-1.5897,12.7826,1312,2924.55
21179,-4.1551,1.1516,9.985,1318,2924.55
21184,1.5921,3.3399,9.3889,1307,2924.69
21189,1.7645,2.9485,10.9583,1311,2924.69
21194,-1.8435,-1.2043,12.7587,1309,2924.69
21199,-4.4568,0.7697,10.3777,1309,2924.69
21204,1.3156,3.1436,9.1877,1309,2924.4
21209,2.1943,3.3615,10.7655,1316,2924.4
21214,-1.634,-0.7314,12.7419,1310,2924.4
21219,-4.5466,0.2682,10.8517,1311,2924.4
21224,0.9397,2.9221,8.9292,1317,2924.26
21229,2.3427,3.6667,10.5022,1315,2924.26
21234,-1.549,-0.2574,12.6103,1305,2924.26
21239,-4.4879,-0.1939,11.3114,1312,2924.26
21244,0.3843,2.7605,8.8286,1304,2923.98
21249,2.2721,3.8391,10.422,1315,2923.98
21254,-1.6269,0.255,12.5145,1318,2923.98
21259,-4.3598,-0.6512,11.7029,1315,2923.98
21264,-0.2215,2.575,8.7759,1309,2922.55
21269,2.1332,3.9911,10.2484,1311,2922.55
21274,-1.6616,0.6931,12.3254,1315,2922.55
21279,-4.0414,-1.0918,12.0225,1312,2922.55
21284,-0.9708,2.3786,8.7448,1316,2922.13
21289,2.0925,4.0713,10.1406,1319,2922.13
21294,-1.5215,1.1396,12.208,1310,2922.13
21299,-3.6691,-1.4042,12.2547,1311,2922.13
21304,-1.6891,2.1787,8.8226,1311,2921.56
21309,2.0482,3.9935,9.9311,1308,2921.56
21314,-0.984,1.5359,11.9315,1315,2921.56
21319,-3.2118,-1.6364,12.4774,1317,2921.56
21324,-2.5055,1.9405,9.092,1316,2921.13
21329,1.9489,3.8415,9.8581,1311,2921.13
21334,-0.2682,1.8711,11.5939,1320,2921.13
21339,-2.6719,-1.81,12.5971,1309,2921.13
21344,-3.2429,1.6688,9.3099,1307,2921.13
21349,1.8124,3.6033,9.663,1315,2920.7
21354,0.6955,2.2721,11.3749,1317,2920.7
21359,-2.3355,-1.7202,12.6929,1306,2920.7
21364,-3.875,1.3168,9.7695,1321,2920.7
21369,1.6807,3.4273,9.5146,1307,2920.7
21374,1.4377,2.727,11.048,1307,2920.7
21379,-1.9716,-1.4281,12.7802,1309,2920.7
21384,-4.3479,0.9242,10.2041,1308,2920.7
21389,1.4653,3.2202,9.3099,1308,2920.42
21394,1.9848,3.1999,10.8924,1307,2920.42
21399,-1.7023,-0.9325,12.7767,1304,2920.42
21404,-4.5131,0.5136,10.7045,1315,2920.42
21409,1.0989,3.0382,9.0501,1315,2920.28
21414,2.2494,3.9648,10.325,1309,2920.28
21419,-1.6005,-0.4142,12.6007,1307,2920.28
21424,-4.124,-0.9014,11.8417,1311,2920.28
21429,0.6165,2.8383,8.9076,1305,2920.13
21434,2.1033,4.0139,10.1933,1311,2920.13
21439,-1.6029,0.1305,12.5336,1307,2920.13
21444,-3.7781,-1.2953,12.1242,1318,2920.13
21449,0.0024,2.6336,8.7688,1309,2920.13
21454,1.9908,4.0043,10.0257,1311,2920.13
21459,-1.2522,1.2965,12.0153,1315,2920.13
21464,-3.4249,-1.5862,12.402,1311,2920.13
21469,-0.7398,2.4313,8.7269,1309,2920.13
21474,1.98,3.875,9.9503,1317,2920.13
21479,-0.6117,1.7478,11.7507,1311,2920.13
21484,-2.8922,-1.7262,12.5133,1311,2920.13
21489,-2.9676,1.7957,9.2153,1309,2920.28
21494,1.8651,3.7541,9.7252,1311,2920.28
21499,0.2993,2.1392,11.4203,1311,2920.28
21504,-2.4002,-1.7442,12.6749,1317,2920.28
21509,-3.6775,1.4952,9.5553,1311,2919.85
21514,1.7765,3.5219,9.5816,1311,2919.85
21519,1.1827,2.5438,11.1701,1319,2919.85
21524,-1.998,-1.4964,12.73,1307,2919.85
21529,-4.1958,1.0487,9.9659,1315,2919.85
21534,1.5455,3.2992,9.4272,1317,2920.13
21539,1.7777,2.9185,10.9535,1312,2920.13
21544,-1.7478,-1.166,12.6917,1307,2920.13
21549,-4.4843,0.6201,10.4279,1321,2920.13
21554,1.1863,3.0538,9.1866,1306,2920.13
21559,2.1799,3.3794,10.7117,1307,2920.13
21564,-1.5802,-0.6596,12.6534,1307,2920.13
21569,-4.5717,0.1963,11.0349,1309,2920.13
21574,0.7865,2.9054,8.9783,1309,2920.28
21579,2.2757,3.7565,10.5345,1309,2920.28
21584,-1.6089,-0.0658,12.536,1305,2920.28
21589,-4.4927,-0.261,11.4383,1311,2920.28
21594,0.2646,2.745,8.8214,1317,2920.56
21599,2.2948,3.9373,10.2867,1317,2920.56
21604,-1.658,0.4537,12.4307,1309,2920.56
21609,-4.2066,-0.747,11.8369,1309,2920.56
21614,-0.4405,2.5678,8.7759,1309,2920.56
21619,2.162,4.039,10.0952,1317,2920.56
21624,-1.5526,0.9134,12.2487,1309,2920.56
21629,-3.875,-1.172,12.0189,1315,2920.56
21634,-1.1803,2.3032,8.7843,1311,2920.85
21639,2.0482,3.9397,10.0401,1311,2920.85
21644,-1.3312,1.2163,12.062,1309,2920.85
21649,-3.4728,-1.5574,12.3158,1311,2920.85
21654,-1.998,2.1129,8.8813,1308,2921.41
21659,1.8962,3.8762,9.9683,1319,2921.41
21664,-0.7685,1.6017,11.8082,1309,2921.41
21669,-3.043,-1.7681,12.5217,1309,2921.41
21674,-2.8096,1.834,9.1375,1311,2921.41
21679,1.8399,3.7733,9.7875,1319,2921.41
21684,0.0575,2.0351,11.5113,1311,2921.41
21689,-2.6276,-1.6915,12.6821,1319,2921.41
21694,-3.5207,1.573,9.4834,1310,2921.41
21699,1.8184,3.6212,9.6283,1305,2921.41
21704,0.9649,2.4086,11.3246,1321,2921.41
21709,-2.1608,-1.5886,12.6965,1305,2921.41
21714,-4.0031,1.1935,9.8737,1315,2921.41
21719,1.6412,3.3615,9.3972,1311,2921.56
21724,1.6939,2.8539,11.0349,1309,2921.56
21729,-1.7669,-1.2522,12.6857,1307,2921.56
21734,-4.3646,0.7673,10.3226,1321,2921.56
21739,1.3084,3.1268,9.1913,1305,2921.56
21744,2.1308,3.2465,10.805,1311,2921.56
21749,-1.6221,-0.8428,12.6462,1309,2921.56
21754,-4.6184,0.3172,10.7967,1312,2921.56
21759,0.899,2.8838,8.989,1309,2921.98
21764,2.2936,3.5853,10.5776,1311,2921.98
21769,-1.6161,-0.2849,12.5995,1307,2921.98
21774,-4.5813,-0.1197,11.2492,1311,2921.98
21779,0.4106,2.8048,8.9208,1307,2921.7
21784,2.2529,3.8774,10.4267,1315,2921.7
21789,-1.6352,0.2753,12.542,1309,2921.7
21794,-4.3527,-0.5638,11.6286,1311,2921.7
21799,-0.1413,2.66,8.7352,1311,2921.56
21804,2.1751,4.0666,10.2484,1317,2921.56
21809,-1.6903,0.7171,12.3062,1307,2921.56
21814,-3.9732,-1.0211,12.0093,1315,2921.56
21819,-0.8631,2.4349,8.7556,1315,2921.41
21824,2.1141,4.0019,10.0952,1310,2921.41
21829,-1.4269,1.1444,12.0811,1311,2921.41
21834,-3.6236,-1.4365,12.2428,1310,2921.41
21839,-1.6388,2.1272,8.7879,1309,2921.56
21844,2.0315,3.8834,10.0126,1315,2921.56
21849,-0.9744,1.4581,11.8226,1309,2921.56
21854,-3.2178,-1.7011,12.4786,1309,2921.56
21859,-2.4864,1.9273,9.0357,1314,2921.56
21864,1.883,3.7864,9.8785,1311,2921.56
21869,-0.3089,1.834,11.6574,1309,2921.56
21874,-2.7521,-1.7549,12.6091,1317,2921.56
21879,-3.2992,1.6688,9.3721,1309,2921.84
21884,1.7873,3.614,9.6343,1315,2921.84
21889,0.6033,2.2733,11.4084,1320,2921.84
21894,-2.3619,-1.6041,12.6976,1316,2921.84
21899,-3.8547,1.4341,9.7492,1317,2921.98
21904,1.6987,3.4836,9.4763,1309,2921.98
21909,1.4281,2.7246,11.1893,1316,2921.98
21914,-1.919,-1.3994,12.6893,1309,2921.98
21919,-4.282,0.9541,10.1335,1307,2921.98
21924,1.5131,3.2034,9.2715,1308,2922.13
21929,2.0614,3.1292,10.908,1317,2922.13
21934,-1.6257,-0.9804,12.6821,1305,2922.13
21939,-4.5143,0.5459,10.6063,1316,2922.13
21944,1.0834,2.9844,9.1075,1311,2922.27
21949,2.2709,3.4752,10.6338,1307,2922.27
21954,-1.4916,-0.4896,12.6665,1307,2922.27
21959,-4.5993,-0.0084,11.0504,1310,2922.27
21964,0.577,2.806,8.9735,1305,2922.27
21969,2.2458,3.7481,10.5285,1323,2922.27
21974,-1.5814,0.0503,12.5827,1311,2922.27
21979,-4.5107,-0.401,11.5029,1308,2922.27
21984,0.073,2.7473,8.8202,1316,2922.55
21989,2.1943,3.978,10.2807,1310,2922.55
21994,-1.6843,0.5674,12.3972,1303,2922.55
21999,-4.2138,-0.8068,11.9195,1311,2922.55
22004,-0.5507,2.5127,8.7185,1307,2922.13
22009,2.1847,4.0522,10.1945,1313,2922.13
22014,-1.6113,1.0271,12.2631,1315,2922.13
22019,-3.7613,-1.1612,12.1685,1311,2922.13
22024,-1.3563,2.2709,8.7305,1309,2922.13
22029,2.1057,3.9792,10.0197,1309,2922.13
22034,-1.2258,1.318,11.9327,1315,2922.13
22039,-3.3627,-1.5754,12.3804,1309,2922.13
22044,-2.1225,2.0171,8.916,1311,2921.98
22049,1.9453,3.8367,9.9431,1318,2921.98
22054,-0.6381,1.6388,11.7651,1311,2921.98
22059,-2.9868,-1.7514,12.5085,1311,2921.98
22064,-2.9317,1.7957,9.177,1311,2921.98
22069,1.828,3.6512,9.7097,1317,2921.98
22074,0.1939,2.065,11.5903,1311,2921.98
22079,-2.6025,-1.7514,12.6797,1316,2921.98
22084,-3.6236,1.5036,9.6199,1317,2922.27
22089,1.7514,3.4979,9.5684,1309,2922.27
22094,1.0415,2.5522,11.2946,1320,2922.27
22099,-2.1775,-1.5083,12.7419,1309,2922.27
22104,-4.1515,1.2103,9.985,1308,2922.27
22109,1.5586,3.3435,9.3697,1317,2922.41
22114,1.7849,2.9485,11.0325,1321,2922.41
22119,-1.8172,-1.1528,12.724,1306,2922.41
22124,-4.3922,0.8236,10.3693,1311,2922.41
22129,1.3192,3.1364,9.1171,1306,2923.12
22134,2.229,3.2944,10.738,1309,2923.12
22139,-1.5311,-0.6991,12.6833,1307,2923.12
22144,-4.543,0.2682,10.8014,1309,2923.12
22149,0.8835,2.8826,9.0154,1307,2923.12
22154,2.3248,3.5793,10.5788,1309,2923.12
22159,-1.5455,-0.2358,12.6402,1305,2923.12
22164,-4.525,-0.2119,11.2695,1311,2923.12
22169,0.3328,2.709,8.8214,1315,2923.12
22174,2.2374,3.8439,10.3956,1309,2923.12
22179,-1.6843,0.2729,12.5169,1309,2923.12
22184,-4.3694,-0.6309,11.7172,1315,2923.12
22189,-0.2957,2.5546,8.7747,1310,2923.41
22194,2.1476,4.0666,10.2999,1311,2923.41
22199,-1.6963,0.735,12.2775,1308,2923.41
22204,-4.0618,-1.0259,11.9878,1316,2923.41
22209,-0.9445,2.4469,8.734,1311,2923.55
22214,2.1464,4.1264,10.1155,1309,2923.55
22219,-1.4688,1.1624,12.1099,1311,2923.55
22224,-3.6033,-1.3563,12.2858,1315,2923.55
22229,-1.6532,2.2015,8.825,1307,2923.55
22234,2.0458,3.893,9.9383,1317,2923.55
22239,-0.9577,1.4557,11.8716,1308,2923.55
22244,-3.1759,-1.6927,12.4846,1307,2923.55
22249,-2.4612,1.9273,9.0788,1309,2922.98
22254,1.9178,3.7649,9.8916,1317,2922.98
22259,-0.2442,1.8531,11.6514,1308,2922.98
22264,-2.7689,-1.8316,12.6198,1319,2922.98
22269,-3.2681,1.6831,9.3625,1309,2922.98
22274,1.8232,3.559,9.7097,1309,2922.98
22279,0.583,2.2505,11.3569,1316,2922.98
22284,-2.3858,-1.7035,12.724,1310,2922.98
22289,-3.9289,1.3886,9.7624,1315,2923.12
22294,1.6424,3.4692,9.5229,1311,2923.12
22299,1.3527,2.715,11.1642,1315,2923.12
22304,-2.0159,-1.397,12.7814,1311,2923.12
22309,-4.2808,1.0008,10.149,1311,2923.12
22314,1.4748,3.2693,9.3326,1309,2924.26
22319,1.9728,3.1304,10.8625,1311,2924.26
22324,-1.6951,-0.9936,12.7743,1309,2924.26
22329,-4.4867,0.6009,10.6279,1317,2924.26
22334,1.1732,3.0418,9.0597,1307,2924.4
22339,2.3379,3.462,10.635,1309,2924.4
22344,-1.5335,-0.5207,12.6462,1309,2924.4
22349,-4.5286,0.0742,11.0468,1307,2924.4
22354,0.7039,2.806,8.8274,1305,2924.26
22359,2.3475,3.6308,10.4926,1311,2924.26
22364,-1.5359,-0.0587,12.6593,1311,2924.26
22369,-4.4365,-0.3974,11.4275,1308,2924.26
22374,0.1317,2.6767,8.6933,1315,2923.98
22379,2.2075,3.9241,10.3585,1311,2923.98
22384,-1.6987,0.4573,12.4618,1307,2923.98
22389,-4.2689,-0.8212,11.8178,1318,2923.98
22394,-0.5195,2.5379,8.7508,1309,2922.84
22399,2.1141,4.0223,10.1718,1317,2922.84
22404,-1.6568,0.8823,12.317,1315,2922.84
22409,-3.9277,-1.1408,12.0799,1312,2922.84
22414,-1.2474,2.3451,8.7221,1311,2924.12
22419,2.0877,4.0318,10.0353,1316,2924.12
22424,-1.3372,1.2977,12.0165,1315,2924.12
22429,-3.4979,-1.4724,12.2954,1315,2924.12
22434,-1.9285,2.1296,8.8981,1309,2923.26
22439,2.0063,3.8642,9.8785,1317,2923.26
22444,-0.7266,1.579,11.7938,1310,2923.26
22449,-2.9856,-1.7274,12.5408,1309,2923.26
22454,-2.7066,1.8208,9.1375,1311,2923.26
22459,1.9405,3.7062,9.8055,1319,2923.26
22464,0.073,1.98,11.5424,1310,2923.26
22469,-2.6037,-1.8399,12.6605,1315,2923.26
22474,-3.4716,1.5395,9.4691,1316,2922.84
22479,1.7992,3.5422,9.6606,1307,2922.84
22484,0.8882,2.3691,11.2815,1320,2922.84
22489,-2.2817,-1.64,12.7539,1303,2922.84
22494,-4.063,1.2893,9.9036,1309,2922.84
22499,1.6484,3.4129,9.4499,1315,2923.26
22504,1.5634,2.8862,11.0816,1318,2923.26
22509,-1.907,-1.2617,12.8353,1307,2923.26
22514,-4.4089,0.8703,10.319,1321,2923.26
22519,1.4174,3.1723,9.1722,1306,2923.12
22524,2.1452,3.2645,10.7835,1307,2923.12
22529,-1.6352,-0.82,12.7048,1305,2923.12
22534,-4.525,0.413,10.7955,1311,2923.12
22539,1.0391,3.0047,8.9783,1308,2922.98
22544,2.3643,3.5925,10.6135,1311,2922.98
22549,-1.5179,-0.3484,12.6198,1307,2922.98
22554,-4.4927,-0.1437,11.1917,1309,2922.98
22559,0.5124,2.7402,8.7999,1309,2923.12
22564,2.3296,3.7505,10.3753,1317,2923.12
22569,-1.5933,0.1592,12.5109,1310,2923.12
22574,-4.3694,-0.5722,11.6083,1307,2923.12
22579,-0.1197,2.5845,8.7795,1311,2922.84
22584,2.1272,3.9516,10.2831,1316,2922.84
22589,-1.6712,0.6644,12.4139,1307,2922.84
22594,-4.1539,-0.9697,11.9004,1316,2922.84
22599,-0.8152,2.4229,8.7736,1311,2922.55
22604,2.0662,4.0534,10.1538,1309,2922.55
22609,-1.5682,1.0271,12.2236,1315,2922.55
22614,-3.7278,-1.3276,12.2416,1309,2922.55
22619,-1.5766,2.2613,8.8226,1308,2922.55
22624,2.0494,4.0318,10.0568,1317,2922.55
22629,-1.1145,1.4246,11.904,1307,2922.55
22634,-3.2825,-1.5969,12.3876,1299,2922.55
22639,-2.32,1.9824,8.9675,1308,2922.13
22644,2.0255,3.875,9.9168,1315,2922.13
22649,-0.4178,1.7442,11.6418,1309,2922.13
22654,-2.7988,-1.7322,12.627,1319,2922.13
22659,-3.0801,1.6867,9.1614,1308,2921.56
22664,1.8974,3.6775,9.6857,1307,2921.56
22669,0.4429,2.0973,11.4323,1311,2921.56
22674,-2.4193,-1.7957,12.6809,1309,2921.56
22679,-3.7517,1.3635,9.6379,1311,2921.84
22684,1.7011,3.4465,9.5708,1310,2921.84
22689,1.1911,2.6097,11.2097,1312,2921.84
22694,-2.0626,-1.5215,12.7324,1301,2921.84
22699,-4.2521,1.0702,10.0963,1315,2921.84
22704,1.4928,3.2382,9.3518,1307,2921.41
22709,1.8567,3.0742,10.9786,1309,2921.41
22714,-1.7597,-1.0714,12.7276,1305,2921.41
22719,-4.5418,0.6309,10.5896,1315,2921.41
22724,1.2127,3.1232,9.1387,1301,2921.41
22729,2.2733,3.468,10.6769,1307,2921.41
22734,-1.5526,-0.5662,12.6761,1308,2921.41
22739,-4.5262,0.1808,11.0145,1307,2921.41
22744,0.7638,2.9233,8.8969,1305,2921.41
22749,2.3583,3.7194,10.398,1315,2921.41
22754,-1.5706,-0.0239,12.6162,1309,2921.41
22759,-4.4245,-0.3699,11.4335,1309,2921.41
22764,0.1544,2.7066,8.7652,1316,2921.41
22769,2.2398,3.8906,10.2675,1311,2921.41
22774,-1.6149,0.4094,12.4139,1304,2921.41
22779,-4.2114,-0.8547,11.7412,1309,2921.41
22784,-0.5195,2.4792,8.7376,1308,2921.13
22789,2.0997,4.0043,10.1538,1312,2921.13
22794,-1.6101,0.899,12.2092,1319,2921.13
22799,-3.9337,-1.2378,12.1506,1309,2921.13
22804,-1.251,2.3343,8.7807,1307,2921.56
22809,1.9908,4.0438,10.0473,1308,2921.56
22814,-1.4257,1.2665,12.0345,1309,2921.56
22819,-3.4788,-1.4928,12.3577,1315,2921.56
22824,-2.0279,2.1584,8.8466,1311,2921.13
22829,2.0375,3.9887,9.9228,1311,2921.13
22834,-0.7254,1.64,11.8405,1311,2921.13
22839,-2.9784,-1.6712,12.542,1315,2921.13
22844,-2.7976,1.8842,9.1219,1311,2921.41
22849,1.9716,3.7457,9.7731,1318,2921.41
22854,0.1568,1.9764,11.5209,1311,2921.41
22859,-2.5283,-1.8028,12.6581,1311,2921.41
22864,-3.4919,1.5155,9.5241,1315,2921.84
22869,1.7681,3.5374,9.6367,1309,2921.84
22874,0.9625,2.4086,11.2563,1318,2921.84
22879,-2.1356,-1.646,12.6905,1309,2921.84
22884,-4.0857,1.1995,9.8916,1307,2921.84
22889,1.585,3.3124,9.4056,1315,2921.7
22894,1.658,2.9078,11.0564,1316,2921.7
22899,-1.8579,-1.2641,12.7755,1303,2921.7
22904,-4.452,0.832,10.3597,1317,2921.7
22909,1.3192,3.1951,9.2249,1305,2922.27
22914,2.0638,3.3208,10.8445,1303,2922.27
22919,-1.6592,-0.7889,12.6546,1307,2922.27
22924,-4.5741,0.3831,10.8086,1309,2922.27
22929,0.9014,3.037,9.0393,1305,2922.27
22934,2.3331,3.6559,10.5333,1309,2922.27
22939,-1.5933,-0.2346,12.6438,1307,2922.27
22944,-4.5262,-0.1317,11.3006,1305,2922.27
22949,0.4274,2.7952,8.831,1317,2921.98
22954,2.3284,3.8271,10.3346,1311,2921.98
22959,-1.6185,0.2717,12.4917,1291,2921.98
22964,-4.2796,-0.6572,11.6538,1307,2921.98
22969,-0.2047,2.5486,8.7221,1307,2922.27
22974,2.1991,3.9696,10.2197,1315,2922.27
22979,-1.6747,0.7135,12.3062,1304,2922.27
22984,-4.0247,-1.0846,12.0309,1317,2922.27
22989,-0.9409,2.405,8.7125,1310,2922.13
22994,2.0363,4.0199,10.0736,1311,2922.13
22999,-1.5502,1.081,12.074,1309,2922.13
23004,-3.6907,-1.3982,12.3469,1315,2922.13
23009,-1.6963,2.1991,8.825,1305,2922.13
23014,1.98,3.9947,10.0449,1319,2922.13
23019,-1.0451,1.5036,11.9207,1305,2922.13
23024,-3.2346,-1.5957,12.4678,1308,2922.13
23029,-2.4588,2.0087,9.0501,1309,2922.27
23034,1.913,3.8427,9.8509,1317,2922.27
23039,-0.2933,1.8735,11.6693,1309,2922.27
23044,-2.7031,-1.737,12.6007,1317,2922.27
23049,-3.1879,1.7214,9.347,1309,2922.41
23054,1.8459,3.6835,9.6702,1309,2922.41
23059,0.5974,2.2517,11.3808,1319,2922.41
23064,-2.3008,-1.6747,12.6917,1310,2922.41
23069,-3.8511,1.3503,9.6702,1309,2922.41
23074,1.7035,3.4069,9.5433,1317,2922.27
23079,1.3288,2.6205,11.1247,1308,2922.27
23084,-1.9549,-1.4545,12.785,1306,2922.27
23089,-4.2713,0.9768,10.0676,1319,2922.27
23094,1.4401,3.237,9.3099,1307,2922.27
23099,1.9082,3.0765,10.8876,1311,2922.27
23104,-1.7334,-1.0056,12.7551,1311,2922.27
23109,-4.5598,0.595,10.6111,1311,2922.27
23114,1.1049,3.0742,9.1375,1306,2921.98
23119,2.2482,3.4848,10.7009,1309,2921.98
23124,-1.6544,-0.486,12.6857,1309,2921.98
23129,-4.5861,0.1018,11.0636,1307,2921.98
23134,0.6991,2.8814,8.9124,1308,2921.84
23139,2.3212,3.7792,10.4842,1315,2921.84
23144,-1.6137,0.0395,12.566,1310,2921.84
23149,-4.3922,-0.3747,11.5101,1309,2921.84
23154,0.1305,2.6911,8.7532,1311,2921.84
23159,2.2637,3.9373,10.2903,1311,2921.84
23164,-1.6472,0.4693,12.3577,1307,2921.84
23169,-4.1312,-0.8942,11.8417,1305,2921.84
23174,-0.5567,2.4205,8.7281,1309,2921.84
23179,2.138,3.9409,10.1143,1308,2921.84
23184,-1.6065,0.9206,12.2152,1311,2921.84
23189,-3.7924,-1.2725,12.1661,1309,2921.84
23194,-1.3443,2.2984,8.7855,1308,2921.98
23199,2.0051,3.9157,10.0245,1305,2921.98
23204,-1.2725,1.2953,11.9782,1308,2921.98
23209,-3.4237,-1.5706,12.3265,1305,2921.98
23214,-2.1213,2.0494,8.9483,1309,2922.27
23219,1.9776,3.8786,9.8617,1311,2922.27
23224,-0.6177,1.6939,11.7974,1309,2922.27
23229,-2.9868,-1.7107,12.5492,1309,2922.27
23234,-2.9149,1.883,9.2404,1309,2922.13
23239,1.8854,3.7781,9.736,1307,2922.13
23244,0.1879,2.0638,11.5377,1317,2922.13
23249,-2.466,-1.7322,12.6725,1309,2922.13
23254,-3.5195,1.494,9.517,1312,2922.55
23259,1.816,3.541,9.6043,1310,2922.55
23264,1.093,2.4912,11.2899,1317,2922.55
23269,-2.0889,-1.5395,12.7467,1308,2922.55
23274,-4.1276,1.1133,9.9276,1311,2922.55
23279,1.6173,3.3064,9.3494,1311,2922.27
23284,1.7753,2.9042,10.9762,1310,2922.27
23289,-1.7753,-1.2462,12.7264,1299,2922.27
23294,-4.476,0.7015,10.4435,1319,2922.27
23299,1.2306,3.1053,9.1518,1307,2922.55
23304,2.1093,3.3339,10.8397,1309,2922.55
23309,-1.6316,-0.7159,12.7048,1311,2922.55
23314,-4.5873,0.316,10.908,1309,2922.55
23319,0.8727,2.9233,8.9735,1303,2922.13
23324,2.3032,3.65,10.5919,1311,2922.13
23329,-1.6388,-0.2334,12.5672,1309,2922.13
23334,-4.5346,-0.1568,11.3198,1315,2922.13
23339,0.3735,2.7378,8.9004,1309,2922.13
23344,2.3164,3.8954,10.4399,1309,2922.13
23349,-1.64,0.3148,12.4882,1305,2922.13
23354,-4.2988,-0.6165,11.6693,1309,2922.13
23359,-0.2394,2.6109,8.7269,1305,2921.84
23364,2.1991,4.0055,10.1909,1311,2921.84
23369,-1.6233,0.7733,12.3325,1311,2921.84
23374,-3.9624,-1.0953,12.0033,1309,2921.84
23379,-0.9553,2.3822,8.7221,1311,2921.84
23384,2.0698,3.9612,10.0808,1311,2921.84
23389,-1.4605,1.1732,12.0991,1315,2921.84
23394,-3.6117,-1.4545,12.2032,1312,2921.84
23399,-1.7621,2.1488,8.8538,1310,2921.7
23404,1.9513,3.8846,9.9886,1318,2921.7
23409,-0.9697,1.5131,11.8752,1310,2921.7
23414,-3.1867,-1.7142,12.5157,1311,2921.7
23419,-2.5594,1.9429,9.068,1309,2921.41
23424,1.9082,3.802,9.839,1316,2921.41
23429,-0.2059,1.8866,11.5532,1310,2921.41
23434,-2.7354,-1.7154,12.6342,1317,2921.41
23439,-3.2956,1.6652,9.3817,1310,2922.27
23444,1.8423,3.6308,9.7312,1311,2922.27
23449,0.65,2.2996,11.3605,1321,2922.27
23454,-2.2637,-1.6161,12.7264,1307,2922.27
23459,-3.8822,1.312,9.8019,1309,2922.27
23464,1.7095,3.4129,9.4487,1319,2921.98
23469,1.5263,2.7198,11.1306,1311,2921.98
23474,-1.901,-1.3695,12.7108,1307,2921.98
23479,-4.3311,0.9373,10.1969,1318,2921.98
23484,1.4449,3.2046,9.2787,1309,2922.13
23489,2.0674,3.1256,10.8852,1308,2922.13
23494,-1.6771,-0.9936,12.7144,1303,2922.13
23499,-4.4999,0.4621,10.6063,1305,2922.13
23504,1.0546,2.9341,8.9974,1309,2922.27
23509,2.2122,3.48,10.6913,1307,2922.27
23514,-1.5431,-0.4669,12.6653,1304,2922.27
23519,-4.5825,0.0251,11.1247,1307,2922.27
23524,0.571,2.818,8.8897,1315,2922.41
23529,2.3092,3.7852,10.4399,1307,2922.41
23534,-1.6137,0.1065,12.5253,1309,2922.41
23539,-4.4748,-0.4381,11.5173,1309,2922.41
23544,0.0383,2.6815,8.8442,1316,2922.13
23549,2.2673,3.9708,10.2651,1315,2922.13
23554,-1.6987,0.6153,12.39,1308,2922.13
23559,-4.1252,-0.8703,11.898,1311,2922.13
23564,-0.65,2.4576,8.752,1315,2921.98
23569,2.1177,4.0294,10.1131,1311,2921.98
23574,-1.567,0.9744,12.1446,1315,2921.98
23579,-3.7074,-1.2857,12.1458,1310,2921.98
23584,-1.3779,2.2829,8.7987,1311,2921.56
23589,2.0542,3.9696,10.0425,1315,2921.56
23594,-1.2043,1.3479,11.9219,1309,2921.56
23599,-3.3267,-1.5981,12.4068,1311,2921.56
23604,-2.2122,1.9992,8.9711,1315,2921.56
23609,1.9381,3.8595,9.9683,1319,2921.56
23614,-0.6213,1.7131,11.7124,1309,2921.56
23619,-2.9137,-1.743,12.5767,1319,2921.56
23624,-2.9939,1.7418,9.2344,1317,2921.41
23629,1.8244,3.6859,9.809,1307,2921.41
23634,0.2873,2.1344,11.4874,1323,2921.41
23639,-2.5019,-1.6831,12.6833,1301,2921.41
23644,-3.6547,1.5071,9.6618,1311,2921.56
23649,1.737,3.5111,9.5553,1309,2921.56
23654,1.1229,2.575,11.2492,1309,2921.56
23659,-2.0782,-1.5012,12.7407,1303,2921.56
23664,-4.1551,1.1708,10.076,1319,2921.56
23669,1.5419,3.304,9.2943,1305,2921.7
23674,1.7957,3.0011,10.9032,1310,2921.7
23679,-1.725,-1.1229,12.6689,1307,2921.7
23684,-4.452,0.6572,10.489,1317,2921.7
23689,1.2546,3.0406,9.1099,1307,2921.98
23694,2.211,3.3495,10.6961,1310,2921.98
23699,-1.5897,-0.644,12.7503,1309,2921.98
23704,-4.5945,0.2047,10.9092,1309,2921.98
23709,0.7865,2.8982,8.9507,1299,2921.27
23714,2.2889,3.6559,10.5225,1317,2921.27
23719,-1.6173,-0.1149,12.5899,1309,2921.27
23724,-4.4688,-0.31,11.3749,1309,2921.27
23729,0.1939,2.7426,8.7963,1315,2920.42
23734,2.2003,3.9109,10.343,1321,2920.42
23739,-1.6915,0.4142,12.4427,1303,2920.42
23744,-4.2473,-0.7003,11.7926,1311,2920.42
23749,-0.3867,2.5355,8.7376,1311,2919.71
23754,2.1715,4.0642,10.1658,1309,2919.71
23759,-1.7214,0.8847,12.226,1315,2919.71
23764,-3.8954,-1.0965,12.1194,1311,2919.71
23769,-1.1444,2.3116,8.7712,1305,2920.28
23774,2.0925,4.0151,10.0963,1312,2920.28
23779,-1.3982,1.251,12.0273,1315,2920.28
23784,-3.4297,-1.4533,12.293,1309,2920.28
23789,-1.9537,2.0853,8.9172,1311,2919.99
23794,1.9944,3.9002,9.9276,1317,2919.99
23799,-0.7602,1.6029,11.746,1303,2919.99
23804,-3.061,-1.7406,12.4247,1323,2919.99
23809,-2.7677,1.8411,9.177,1311,2919.99
23814,1.8663,3.7146,9.8438,1315,2919.99
23819,0.0012,1.9836,11.5448,1316,2919.99
23824,-2.5738,-1.7573,12.5815,1307,2919.99
23829,-3.4752,1.555,9.5062,1310,2920.42
23834,1.7346,3.5326,9.6822,1311,2920.42
23839,0.923,2.4493,11.3126,1315,2920.42
23844,-2.1811,-1.5981,12.7312,1309,2920.42
23849,-4.0749,1.2043,9.9419,1315,2920.42
23854,1.6005,3.3543,9.4978,1307,2920.85
23859,1.6448,2.9042,10.9894,1305,2920.85
23864,-1.8519,-1.221,12.7276,1307,2920.85
23869,-4.4077,0.8272,10.3418,1316,2920.85
23874,1.3587,3.1663,9.2572,1303,2920.99
23879,2.1392,3.2262,10.7548,1307,2920.99
23884,-1.5467,-0.729,12.6833,1309,2920.99
23889,-4.543,0.3268,10.8314,1307,2920.99
23894,0.9469,2.9341,9.007,1309,2921.13
23899,2.32,3.547,10.5213,1304,2921.13
23904,-1.4952,-0.2622,12.6162,1310,2921.13
23909,-4.5119,-0.2251,11.2539,1307,2921.13
23914,0.4202,2.7749,8.7963,1315,2920.99
23919,2.247,3.8391,10.392,1311,2920.99
23924,-1.6412,0.2729,12.4594,1307,2920.99
23929,-4.3419,-0.6165,11.7483,1312,2920.99
23934,-0.2885,2.5402,8.7508,1307,2921.13
23939,2.1009,3.9792,10.2089,1311,2921.13
23944,-1.6879,0.7638,12.3433,1319,2921.13
23949,-4.0055,-1.0163,12.1194,1308,2921.13
23954,-0.9744,2.4146,8.7759,1307,2921.13
23959,2.1129,4.0737,10.1179,1309,2921.13
23964,-1.5203,1.2103,12.1206,1311,2921.13
23969,-3.5805,-1.3599,12.2487,1309,2921.13
23974,-1.7286,2.1871,8.8238,1311,2921.27
23979,2.0494,3.948,9.9395,1310,2921.27
23984,-1.0211,1.4868,11.88,1315,2921.27
23989,-3.1292,-1.6915,12.4654,1317,2921.27
23994,-2.484,1.9225,9.0932,1305,2920.99
23999,1.9489,3.7649,9.7755,1316,2920.99
24004,-0.1784,1.8699,11.6143,1311,2920.99
24009,-2.7043,-1.8076,12.5612,1315,2920.99
24014,-3.2872,1.6412,9.3565,1311,2921.98
24019,1.8411,3.5662,9.657,1310,2921.98
24024,0.6692,2.3104,11.4096,1323,2921.98
24029,-2.3032,-1.6891,12.6917,1307,2921.98
24034,-3.8822,1.3539,9.7683,1309,2921.98
24039,1.6161,3.4129,9.5241,1315,2921.56
24044,1.3623,2.7078,11.0636,1310,2921.56
24049,-1.9321,-1.3946,12.7982,1308,2921.56
24054,-4.3479,0.9206,10.2328,1319,2921.56
24059,1.4126,3.2645,9.2859,1307,2921.56
24064,1.9824,3.207,10.8757,1309,2921.56
24069,-1.6843,-0.9002,12.724,1307,2921.56
24074,-4.4987,0.4956,10.6997,1306,2921.56
24079,1.0762,3.0263,9.0393,1306,2921.41
24084,2.2913,3.5087,10.653,1310,2921.41
24089,-1.5203,-0.4154,12.645,1309,2921.41
24094,-4.4855,-0.0263,11.1306,1306,2921.41
24099,0.6153,2.7809,8.8322,1318,2921.13
24104,2.3643,3.7577,10.4172,1310,2921.13
24109,-1.5383,0.0874,12.4534,1304,2921.13
24114,-4.3778,-0.5088,11.5736,1309,2921.13
24119,0.0108,2.5714,8.7819,1308,2920.99
24124,2.223,3.9456,10.2831,1317,2920.99
24129,-1.6867,0.5243,12.3529,1307,2920.99
24134,-4.1611,-0.9325,11.9183,1316,2920.99
24139,-0.7649,2.4529,8.7137,1309,2920.99
24144,2.0363,4.0354,10.1107,1305,2920.99
24149,-1.6053,1.0367,12.159,1321,2920.99
24154,-3.8044,-1.2258,12.2092,1311,2920.99
24159,-1.482,2.3128,8.8071,1311,2921.13
24164,2.0734,4.0342,10.0114,1317,2921.13
24169,-1.2163,1.4353,12.0069,1308,2921.13
24174,-3.3327,-1.5634,12.4451,1311,2921.13
24179,-2.2553,2.0734,8.934,1311,2921.27
24184,1.992,3.8918,9.8725,1319,2921.27
24189,-0.4968,1.7214,11.722,1309,2921.27
24194,-2.8192,-1.7442,12.5743,1319,2921.27
24199,-2.9999,1.7286,9.1842,1315,2920.99
24204,1.8854,3.6512,9.7719,1307,2920.99
24209,0.4106,2.0901,11.4383,1319,2920.99
24214,-2.3966,-1.7681,12.6785,1307,2920.99
24219,-3.6895,1.3803,9.6103,1307,2920.99
24224,1.7753,3.4716,9.59,1315,2922.27
24229,1.1576,2.5462,11.1582,1311,2922.27
24234,-2.1033,-1.5167,12.7252,1306,2922.27
24239,-4.2162,1.0702,10.088,1317,2922.27
24244,1.5227,3.2836,9.3937,1306,2921.84
24249,1.7502,3.0287,10.9547,1309,2921.84
24254,-1.7813,-1.1265,12.7216,1311,2921.84
24259,-4.4568,0.7027,10.4974,1307,2921.84
24264,1.2198,3.1364,9.1698,1309,2921.41
24269,2.2146,3.4393,10.7284,1310,2921.41
24274,-1.5622,-0.5902,12.6593,1305,2921.41
24279,-4.5873,0.2382,11.0409,1311,2921.41
24284,0.8128,2.8862,8.9316,1317,2921.27
24289,2.3607,3.7038,10.4998,1309,2921.27
24294,-1.567,-0.0694,12.5145,1309,2921.27
24299,-4.4149,-0.31,11.3856,1311,2921.27
24304,0.2538,2.6851,8.7771,1315,2921.41
24309,2.2865,3.881,10.3298,1315,2921.41
24314,-1.5981,0.4082,12.4415,1309,2921.41
24319,-4.2066,-0.7829,11.7651,1317,2921.41
24324,-0.4369,2.5522,8.734,1315,2921.56
24329,2.0794,3.9648,10.1478,1309,2921.56
24334,-1.6544,0.8021,12.3014,1315,2921.56
24339,-3.9444,-1.1684,12.0776,1309,2921.56
24344,-1.1684,2.3487,8.7807,1310,2921.84
24349,2.0219,4.0318,10.07,1319,2921.84
24354,-1.4305,1.2821,12.0297,1309,2921.84
24359,-3.4943,-1.4317,12.396,1310,2921.84
24364,-1.9405,2.1691,8.8837,1315,2921.98
24369,1.9944,3.9468,9.924,1317,2921.98
24374,-0.8068,1.6328,11.8034,1311,2921.98
24379,-3.0718,-1.6616,12.5612,1323,2921.98
24384,-2.7294,1.8842,9.0812,1317,2921.7
24389,1.9848,3.814,9.7803,1309,2921.7
24394,0.0455,1.9836,11.5209,1319,2921.7
24399,-2.5881,-1.737,12.6534,1307,2921.7
24404,-3.4477,1.555,9.4571,1307,2922.27
24409,1.822,3.553,9.5672,1309,2922.27
24414,0.8942,2.3691,11.2731,1310,2922.27
24419,-2.1763,-1.6747,12.6917,1303,2922.27
24424,-4.0175,1.1803,9.8521,1319,2922.27
24429,1.5802,3.3387,9.3937,1307,2921.84
24434,1.5706,2.8611,11.0887,1317,2921.84
24439,-1.8854,-1.3132,12.7288,1306,2921.84
24444,-4.452,0.8535,10.3501,1317,2921.84
24449,1.3264,3.1795,9.2404,1309,2921.84
24454,2.071,3.2848,10.8757,1309,2921.84
24459,-1.7047,-0.8212,12.724,1308,2921.84
24464,-4.5454,0.4429,10.8182,1310,2921.84
24469,0.9984,2.9832,9.0465,1307,2921.98
24474,2.2889,3.6093,10.6338,1317,2921.98
24479,-1.5921,-0.2717,12.6318,1309,2921.98
24484,-4.5035,-0.0491,11.2492,1312,2921.98
24489,0.4729,2.8359,8.8873,1309,2921.98
24494,2.3403,3.8367,10.3741,1317,2921.98
24499,-1.5969,0.2167,12.5061,1309,2921.98
24504,-4.2964,-0.6045,11.5748,1311,2921.98
24509,-0.1245,2.6097,8.7173,1307,2921.84
24514,2.2254,3.9217,10.2364,1315,2921.84
24519,-1.6532,0.6584,12.3349,1314,2921.84
24524,-4.0211,-1.0056,11.9351,1311,2921.84
24529,-0.8332,2.4098,8.7771,1305,2921.84
24534,2.065,3.9875,10.1454,1317,2921.84
24539,-1.5347,1.0618,12.1338,1299,2921.84
24544,-3.7182,-1.3791,12.2619,1304,2921.84
24549,-1.6556,2.1979,8.843,1309,2921.84
24554,2.0063,4.0187,10.003,1315,2921.84
24559,-1.1636,1.4581,11.9734,1317,2921.84
24564,-3.3291,-1.5179,12.4654,1319,2921.84
24569,-2.4265,2.0255,9.0142,1311,2921.98
24574,1.9477,3.863,9.8797,1309,2921.98
24579,-0.4154,1.8208,11.6693,1314,2921.98
24584,-2.812,-1.6819,12.5995,1317,2921.98
24589,-3.158,1.7286,9.3242,1311,2922.13
24594,1.8914,3.6667,9.6666,1311,2922.13
24599,0.5866,2.1943,11.4132,1319,2922.13
24604,-2.3439,-1.6915,12.6522,1304,2922.13
24609,-3.7972,1.3886,9.7252,1310,2922.13
24614,1.7717,3.4105,9.5002,1311,2921.98
24619,1.3348,2.6169,11.1438,1315,2921.98
24624,-1.9752,-1.5167,12.6713,1306,2921.98
24629,-4.2701,0.9708,10.1263,1317,2921.98
24634,1.4653,3.2429,9.3266,1302,2922.27
24639,1.913,3.0514,10.92,1306,2922.27
24644,-1.7334,-1.0487,12.7599,1311,2922.27
24649,-4.5837,0.595,10.5872,1309,2922.27
24654,1.1636,3.0765,9.1255,1305,2921.84
24659,2.1332,3.4524,10.6506,1309,2921.84
24664,-1.634,-0.486,12.6809,1305,2921.84
24669,-4.5442,0.1496,11.0445,1311,2921.84
24674,0.6919,2.9018,8.9555,1315,2922.13
24679,2.3212,3.7493,10.4854,1317,2922.13
24684,-1.5742,0.0622,12.5576,1309,2922.13
24689,-4.44,-0.3172,11.4179,1311,2922.13
24694,0.1724,2.6947,8.7843,1304,2922.13
24699,2.3164,3.9133,10.2999,1315,2922.13
24704,-1.6305,0.4788,12.3888,1308,2922.13
24709,-4.1863,-0.8559,11.8202,1311,2922.13
24714,-0.504,2.4828,8.7125,1307,2922.27
24719,2.1668,3.9851,10.1981,1311,2922.27
24724,-1.6065,0.9361,12.1985,1317,2922.27
24729,-3.8355,-1.2091,12.1135,1315,2922.27
24734,-1.33,2.2733,8.7604,1307,2922.13
24739,2.0614,3.9828,10.1251,1315,2922.13
24744,-1.312,1.2438,12.0033,1316,2922.13
24749,-3.4907,-1.4916,12.3804,1307,2922.13
24754,-2.071,2.1165,8.9352,1309,2922.27
24759,1.9632,3.9002,9.9096,1315,2922.27
24764,-0.7865,1.64,11.7735,1309,2922.27
24769,-3.0502,-1.6496,12.5145,1317,2922.27
24774,-2.8383,1.8675,9.183,1316,2922.69
24779,1.8723,3.7397,9.7552,1309,2922.69
24784,0.1197,2.0051,11.5652,1321,2922.69
24789,-2.557,-1.7382,12.6953,1309,2922.69
24794,-3.553,1.5203,9.5038,1309,2922.69
24799,1.7968,3.5267,9.5325,1315,2922.69
24804,1.0163,2.4553,11.224,1315,2922.69
24809,-2.1165,-1.5802,12.7288,1305,2922.69
24814,-4.0654,1.16,9.9108,1319,2922.69
24819,1.6173,3.3375,9.3613,1307,2923.12
24824,1.6759,2.8204,11.0097,1309,2923.12
24829,-1.8268,-1.2462,12.7252,1307,2923.12
24834,-4.4221,0.7542,10.3142,1311,2923.12
24839,1.3156,3.1376,9.2129,1307,2922.84
24844,2.083,3.2609,10.7919,1309,2922.84
24849,-1.6652,-0.7446,12.724,1307,2922.84
24854,-4.6148,0.3783,10.8242,1311,2922.84
24859,0.9481,2.9425,8.9723,1309,2922.98
24864,2.2781,3.6332,10.5955,1317,2922.98
24869,-1.6723,-0.2466,12.5851,1311,2922.98
24874,-4.5765,-0.0539,11.2623,1311,2922.98
24879,0.4166,2.7797,8.8178,1310,2922.84
24884,2.332,3.9085,10.4088,1309,2922.84
24889,-1.6664,0.2562,12.4774,1309,2922.84
24894,-4.3144,-0.5423,11.649,1317,2922.84
24899,-0.176,2.563,8.7125,1310,2922.55
24904,2.2565,3.9959,10.2651,1311,2922.55
24909,-1.664,0.6991,12.2404,1316,2922.55
24914,-4.0019,-0.9984,11.9459,1311,2922.55
24919,-0.8667,2.3858,8.7496,1321,2922.41
24924,2.0877,3.978,10.1191,1317,2922.41
24929,-1.5311,1.1001,12.1183,1311,2922.41
24934,-3.6476,-1.3731,12.1985,1309,2922.41
24939,-1.6496,2.1931,8.843,1310,2922.69
24944,2.0016,3.9014,9.9288,1309,2922.69
24949,-1.1205,1.4413,11.9052,1307,2922.69
24954,-3.2358,-1.5993,12.3996,1321,2922.69
24959,-2.4708,2.0159,9.0465,1311,2922.55
24964,1.8806,3.8235,9.8414,1316,2922.55
24969,-0.3531,1.8387,11.6693,1323,2922.55
24974,-2.8551,-1.7095,12.5636,1311,2922.55
24979,-3.2022,1.7382,9.3003,1317,2922.41
24984,1.8495,3.6368,9.7324,1311,2922.41
24989,0.5435,2.2218,11.3916,1319,2922.41
24994,-2.3798,-1.6592,12.712,1311,2922.41
24999,-3.8283,1.4246,9.7264,1309,2922.41
25004,1.7059,3.4716,9.5373,1311,2922.41
25009,1.3431,2.6528,11.0899,1315,2922.41
25014,-1.9597,-1.4162,12.7012,1307,2922.41
25019,-4.2689,0.9756,10.0975,1318,2922.41
25024,1.488,3.2633,9.3529,1309,2922.69
25029,1.9441,3.0538,10.9379,1307,2922.69
25034,-1.7047,-1.0451,12.7,1311,2922.69
25039,-4.5478,0.559,10.6279,1309,2922.69
25044,1.1791,3.0646,9.092,1307,2922.84
25049,2.2529,3.4548,10.647,1303,2922.84
25054,-1.5909,-0.5495,12.6318,1315,2922.84
25059,-4.5693,0.1257,11.078,1309,2922.84
25064,0.6776,2.8156,8.9052,1315,2922.98
25069,2.332,3.7326,10.5117,1311,2922.98
25074,-1.6149,-0.0168,12.5612,1306,2922.98
25079,-4.4724,-0.2777,11.4766,1309,2922.98
25084,0.1401,2.7043,8.8178,1305,2922.41
25089,2.3056,3.9456,10.2795,1311,2922.41
25094,-1.6544,0.5088,12.4379,1311,2922.41
25099,-4.203,-0.7937,11.7879,1315,2922.41
25104,-0.504,2.5043,8.7616,1311,2922.84
25109,2.2027,3.9768,10.2161,1311,2922.84
25114,-1.579,0.9026,12.2751,1311,2922.84
25119,-3.8307,-1.1756,12.0835,1311,2922.84
25124,-1.2366,2.2793,8.7999,1311,2922.27
25129,2.0399,3.9636,10.0712,1317,2922.27
25134,-1.3491,1.318,12.0608,1311,2922.27
25139,-3.4895,-1.4988,12.384,1311,2922.27
25144,-1.9968,2.0614,8.9376,1315,2922.41
25149,1.974,3.8475,9.9599,1319,2922.41
25154,-0.8021,1.6077,11.746,1308,2922.41
25159,-3.037,-1.6735,12.4989,1319,2922.41
25164,-2.8635,1.8052,9.1387,1315,2922.55
25169,1.8866,3.7373,9.8007,1309,2922.55
25174,0.0503,2.0614,11.552,1321,2922.55
25179,-2.6145,-1.7142,12.6725,1307,2922.55
25184,-3.5374,1.5586,9.4727,1309,2922.55
25189,1.798,3.5721,9.6474,1315,2922.41
25194,0.9337,2.4169,11.2516,1315,2922.41
25199,-2.1871,-1.5598,12.7144,1304,2922.41
25204,-4.0737,1.2318,9.9383,1319,2922.41
25209,1.5862,3.401,9.4535,1305,2922.69
25214,1.6771,2.8814,11.0708,1301,2922.69
25219,-1.8364,-1.251,12.7,1307,2922.69
25224,-4.4089,0.8104,10.3178,1311,2922.69
25229,1.3707,3.1017,9.1315,1307,2922.13
25234,2.1261,3.2441,10.7835,1311,2922.13
25239,-1.634,-0.8511,12.6725,1306,2922.13
25244,-4.5622,0.3723,10.7871,1315,2922.13
25249,0.9768,2.9784,9.0992,1309,2922.27
25254,2.2769,3.5889,10.58,1312,2922.27
25259,-1.5886,-0.2418,12.6701,1311,2922.27
25264,-4.5478,-0.1532,11.2504,1311,2922.27
25269,0.3843,2.7581,8.8609,1311,2922.13
25274,2.2458,3.8271,10.3825,1311,2922.13
25279,-1.6508,0.2286,12.5049,1309,2922.13
25284,-4.3874,-0.559,11.6298,1319,2922.13
25289,-0.1592,2.6157,8.77,1311,2921.7
25294,2.2446,3.9863,10.2568,1311,2921.7
25299,-1.7071,0.7386,12.3457,1311,2921.7
25304,-4.0247,-0.9996,11.9459,1317,2921.7
25309,-0.9146,2.3786,8.7724,1309,2921.84
25314,2.1009,3.9983,10.1179,1322,2921.84
25319,-1.5526,1.1349,12.1075,1309,2921.84
25324,-3.6296,-1.342,12.2751,1306,2921.84
25329,-1.6532,2.1751,8.7951,1309,2921.7
25334,2.0458,3.966,9.9635,1315,2921.7
25339,-1.0762,1.47,11.8405,1309,2921.7
25344,-3.2142,-1.6592,12.4774,1321,2921.7
25349,-2.4876,1.8962,9.0549,1309,2921.41
25354,1.9513,3.784,9.8162,1311,2921.41
25359,-0.401,1.8495,11.6885,1321,2921.41
25364,-2.7701,-1.7849,12.5971,1301,2921.41
25369,-3.1987,1.6915,9.3326,1311,2921.98
25374,1.8148,3.614,9.681,1311,2921.98
25379,0.5375,2.2733,11.4048,1315,2921.98
25384,-2.3679,-1.7023,12.6713,1309,2921.98
25389,-3.8487,1.397,9.7492,1317,2921.98
25394,1.7107,3.3998,9.5158,1309,2921.56
25399,1.3527,2.6935,11.1845,1303,2921.56
25404,-1.9848,-1.3874,12.7168,1307,2921.56
25409,-4.3,0.9948,10.1909,1319,2921.56
25414,1.4928,3.237,9.317,1306,2921.84
25419,1.9764,3.1304,10.8278,1308,2921.84
25424,-1.6676,-0.9517,12.6905,1309,2921.84
25429,-4.5358,0.5818,10.6566,1309,2921.84
25434,1.1552,3.0131,9.0992,1305,2921.7
25439,2.2781,3.4668,10.6745,1315,2921.7
25444,-1.5718,-0.4549,12.6198,1311,2921.7
25449,-4.5813,0.0814,11.0133,1311,2921.7
25454,0.6907,2.8455,8.9316,1311,2921.7
25459,2.3164,3.7649,10.4327,1315,2921.7
25464,-1.5682,0.0646,12.5947,1307,2921.7
25469,-4.4388,-0.4298,11.5173,1309,2921.7
25474,0.0706,2.642,8.7903,1309,2921.7
25479,2.1799,3.9133,10.2915,1311,2921.7
25484,-1.7023,0.5112,12.4127,1318,2921.7
25489,-4.2018,-0.8643,11.9243,1311,2921.7
25494,-0.6393,2.4588,8.7209,1308,2921.56
25499,2.138,4.0666,10.2568,1315,2921.56
25504,-1.634,0.9349,12.2056,1305,2921.56
25509,-3.8176,-1.2151,12.1889,1311,2921.56
25514,-1.3216,2.2757,8.7903,1310,2921.41
25519,2.1141,3.9995,10.0796,1311,2921.41
25524,-1.324,1.2965,11.959,1309,2921.41
25529,-3.3651,-1.4964,12.4139,1316,2921.41
25534,-2.1416,2.0638,8.9795,1311,2920.7
25539,2.0016,3.8583,9.8869,1311,2920.7
25544,-0.6009,1.7047,11.7543,1327,2920.7
25549,-2.9125,-1.7621,12.542,1311,2920.7
25554,-2.9137,1.7466,9.1794,1312,2920.56
25559,1.8962,3.6739,9.7636,1309,2920.56
25564,0.1963,2.0985,11.4311,1317,2920.56
25569,-2.5259,-1.7861,12.6797,1307,2920.56
25574,-3.6033,1.4796,9.5948,1309,2920.56
25579,1.7047,3.4584,9.6391,1311,2920.7
25584,1.0475,2.5642,11.2539,1312,2920.7
25589,-2.0626,-1.6305,12.6833,1303,2920.7
25594,-4.1695,1.1133,9.9467,1319,2920.7
25599,1.5538,3.2968,9.4415,1305,2920.85
25604,1.7561,2.9233,10.9714,1309,2920.85
25609,-1.8064,-1.1073,12.7515,1309,2920.85
25614,-4.4999,0.7183,10.4303,1302,2920.85
25619,1.2905,3.1149,9.1662,1305,2920.7
25624,2.1703,3.3686,10.6793,1311,2920.7
25629,-1.5479,-0.6488,12.6893,1311,2920.7
25634,-4.5298,0.1903,10.8685,1307,2920.7
25639,0.8428,2.9042,8.9818,1315,2920.99
25644,2.3679,3.6643,10.5369,1305,2920.99
25649,-1.5538,-0.1137,12.5935,1304,2920.99
25654,-4.4688,-0.2897,11.3413,1309,2920.99
25659,0.2957,2.6887,8.7879,1304,2921.27
25664,2.2625,3.8798,10.3753,1311,2921.27
25669,-1.6592,0.3663,12.4582,1316,2921.27
25674,-4.2964,-0.7661,11.7483,1309,2921.27
25679,-0.4274,2.5031,8.7783,1301,2921.41
25684,2.1284,4.0067,10.2328,1317,2921.41
25689,-1.6484,0.753,12.2152,1311,2921.41
25694,-3.9923,-1.1205,12.0883,1312,2921.41
25699,-1.1672,2.3487,8.8023,1310,2921.7
25704,2.0446,4.0211,10.1095,1317,2921.7
25709,-1.4617,1.1971,12.1206,1307,2921.7
25714,-3.5841,-1.4401,12.3565,1311,2921.7
25719,-1.9513,2.1835,8.9411,1310,2921.84
25724,2.0027,3.9373,9.9683,1317,2921.84
25729,-0.8607,1.5897,11.8405,1311,2921.84
25734,-3.0562,-1.6747,12.4894,1319,2921.84
25739,-2.6671,1.919,9.0836,1317,2921.84
25744,1.9776,3.7397,9.7827,1311,2921.84
25749,-0.0239,1.9453,11.5987,1319,2921.84
25754,-2.6731,-1.7801,12.645,1307,2921.84
25759,-3.3806,1.6149,9.4571,1307,2921.84
25764,1.8507,3.5458,9.5816,1317,2921.7
25769,0.8308,2.3619,11.2839,1316,2921.7
25774,-2.2613,-1.6496,12.6833,1303,2921.7
25779,-3.9983,1.227,9.8126,1317,2921.7
25784,1.6388,3.3387,9.4379,1308,2921.84
25789,1.4916,2.8216,11.1402,1309,2921.84
25794,-1.8902,-1.3384,12.7372,1307,2921.84
25799,-4.4209,0.8763,10.2807,1307,2921.84
25804,1.3827,3.2058,9.2249,1309,2921.98
25809,2.0291,3.2813,10.8242,1309,2921.98
25814,-1.6879,-0.8284,12.7443,1305,2921.98
25819,-4.5753,0.4764,10.7871,1309,2921.98
25824,1.0726,3.0358,9.086,1316,2922.13
25829,2.3152,3.6033,10.6722,1311,2922.13
25834,-1.5586,-0.2885,12.6282,1307,2922.13
25839,-4.4987,-0.0646,11.2013,1309,2922.13
25844,0.5459,2.7821,8.843,1310,2922.41
25849,2.3355,3.8164,10.422,1312,2922.41
25854,-1.5826,0.176,12.5193,1307,2922.41
25859,-4.3347,-0.5303,11.6179,1315,2922.41
25864,-0.073,2.6025,8.7245,1315,2922.84
25869,2.2505,3.9552,10.2939,1311,2922.84
25874,-1.6257,0.6117,12.3625,1315,2922.84
25879,-4.1264,-1.002,11.9183,1315,2922.84
25884,-0.7889,2.3846,8.7759,1311,2922.84
25889,2.0411,4.0031,10.1454,1319,2922.84
25894,-1.5754,1.0307,12.208,1307,2922.84
25899,-3.79,-1.3396,12.2428,1308,2922.84
25904,-1.5814,2.2589,8.849,1316,2922.98
25909,1.9752,3.9923,9.9587,1318,2922.98
25914,-1.1588,1.4162,11.898,1306,2922.98
25919,-3.3351,-1.5514,12.378,1319,2922.98
25924,-2.3092,2.0075,8.9926,1316,2922.69
25929,2.0303,3.8415,9.9024,1307,2922.69
25934,-0.4657,1.7358,11.6849,1315,2922.69
25939,-2.8623,-1.7071,12.6366,1305,2922.69
25944,-3.0718,1.7909,9.3015,1310,2922.69
25949,1.9489,3.6356,9.7085,1311,2922.69
25954,0.3938,2.1201,11.4144,1311,2922.69
25959,-2.3571,-1.7322,12.6749,1307,2922.69
25964,-3.7266,1.3898,9.6199,1319,2922.69
25969,1.7801,3.4524,9.5876,1305,2922.41
25974,1.2246,2.5726,11.1977,1311,2922.41
25979,-2.065,-1.5048,12.7467,1306,2922.41
25984,-4.2006,1.081,10.0616,1318,2922.41
25989,1.5371,3.2561,9.3625,1305,2921.98
25994,1.8244,3.0394,10.9906,1310,2921.98
25999,-1.816,-1.1444,12.7515,1309,2921.98
26004,-4.5107,0.662,10.5536,1304,2921.98
26009,1.1708,3.1113,9.1806,1305,2921.84
