timestamp_ms,ax,ay,az,acs_adc,rpm
209,3.0694,2.4217,11.8633,1454,2964.13
10214,-2.7007,-1.4425,13.1897,1445,2964.13
10219,-5.4444,1.6759,9.3063,1495,2965.16
10224,1.4066,3.5075,9.159,1447,2965.16
10229,3.31,2.557,11.7005,1451,2965.16
10234,-2.3978,-1.3048,13.1657,1439,2965.16
10239,-5.6312,1.5155,9.4882,1443,2965.16
10244,1.2797,3.4285,9.0668,1463,2964.87
10249,3.4752,2.7773,11.5963,1447,2964.87
10254,-2.1045,-1.1899,13.1932,1445,2964.87
10259,-5.7928,1.2785,9.7169,1447,2964.87
10264,1.1109,3.3447,8.837,1467,2965.6
10269,3.5638,2.9102,11.4634,1449,2965.6
10274,-1.8375,-1.0223,13.2459,1440,2965.6
10279,-5.8754,1.0882,9.9611,1455,2965.6
10284,0.8823,3.2681,8.7532,1455,2965.75
10289,3.5733,3.0478,11.2958,1443,2965.75
10294,-1.6233,-0.8727,13.1789,1439,2965.75
10299,-5.9221,0.8583,10.1478,1454,2965.75
10304,0.6261,3.1484,8.6191,1459,2966.04
10309,3.5291,3.2118,11.2288,1443,2966.04
10314,-1.409,-0.7111,13.2615,1446,2966.04
10319,-5.9783,0.644,10.4028,1449,2966.04
10324,0.3819,3.1029,8.4982,1462,2966.19
10329,3.5027,3.3758,11.0804,1447,2966.19
10334,-1.2582,-0.4788,13.228,1447,2966.19
10339,-5.9364,0.4334,10.5776,1443,2966.19
10344,0.1041,3.0095,8.3893,1465,2966.33
10349,3.4046,3.5602,10.963,1445,2966.33
10354,-1.0558,-0.2873,13.2304,1447,2966.33
10359,-5.8012,0.2011,10.8469,1445,2966.33
10364,-0.1927,2.9449,8.2911,1465,2966.33
10369,3.3255,3.6272,10.8457,1453,2966.33
10374,-0.8116,-0.0874,13.1226,1443,2966.33
10379,-5.7245,-0.0599,11.0253,1449,2966.33
10384,-0.5171,2.8659,8.2241,1459,2966.48
10389,3.2645,3.7026,10.6829,1451,2966.48
10394,-0.5758,0.0287,13.0927,1447,2966.48
10399,-5.6048,-0.3675,11.2013,1447,2966.48
10404,-0.8559,2.7246,8.1702,1467,2966.48
10409,3.1687,3.7218,10.5668,1449,2966.48
10414,-0.3136,0.2131,13.0113,1439,2966.48
10419,-5.4444,-0.6273,11.4179,1446,2966.48
10424,-1.2246,2.6851,8.1439,1471,2966.92
10429,2.9987,3.7769,10.5261,1445,2966.92
10434,-0.1269,0.3519,12.8916,1445,2966.92
10439,-5.3427,-0.7853,11.5987,1451,2966.92
10444,-1.5814,2.6061,8.0661,1467,2967.36
10449,2.8359,3.8475,10.4136,1447,2967.36
10454,0.0706,0.5375,12.8748,1443,2967.36
10459,-5.199,-0.978,11.7771,1452,2967.36
10464,-1.974,2.5379,8.0685,1472,2967.95
10469,2.6743,3.875,10.3154,1451,2967.95
10474,0.328,0.6548,12.7731,1444,2967.95
10479,-5.0542,-1.1265,11.965,1449,2967.95
10484,-2.3355,2.5139,8.0768,1484,2968.09
10489,2.563,3.9181,10.2568,1443,2968.09
10494,0.6129,0.8882,12.7743,1451,2968.09
10499,-4.8495,-1.2941,12.2248,1443,2968.09
10504,-2.6659,2.4684,8.157,1469,2968.24
10509,2.4588,3.9421,10.1167,1449,2968.24
10514,0.8787,1.0319,12.6007,1447,2968.24
10519,-4.6076,-1.4246,12.2499,1445,2968.24
10524,-3.0514,2.3667,8.2456,1483,2968.53
10529,2.3739,3.9217,10.0341,1455,2968.53
10534,1.2198,1.1612,12.5803,1439,2968.53
10539,-4.373,-1.476,12.4391,1440,2968.53
10544,-3.4034,2.3128,8.248,1480,2968.53
10549,2.2721,3.8595,9.8809,1453,2968.53
10554,1.5646,1.2869,12.4283,1439,2968.53
10559,-4.1635,-1.6221,12.5983,1445,2968.53
10564,-3.7445,2.2601,8.3821,1485,2968.24
10569,2.1751,3.8056,9.8222,1454,2968.24
10574,1.8016,1.4186,12.3661,1444,2968.24
10579,-3.9588,-1.6616,12.6581,1444,2968.24
10584,-4.0929,2.1751,8.4551,1492,2967.07
10589,2.0339,3.7469,9.7013,1449,2967.07
10594,2.083,1.6197,12.2619,1440,2967.07
10599,-3.7649,-1.7131,12.8521,1445,2967.07
10604,-4.4652,2.1356,8.6921,1485,2966.48
10609,1.8926,3.7038,9.5816,1453,2966.48
10614,2.3631,1.8447,12.2272,1445,2966.48
10619,-3.4979,-1.6759,12.961,1452,2966.48
10624,-4.7477,2.0614,8.7987,1485,2966.33
10629,1.7334,3.6583,9.4631,1452,2966.33
10634,2.63,2.0387,12.1326,1447,2966.33
10639,-3.2465,-1.6029,13.0364,1443,2966.33
10644,-5.035,1.9381,8.9459,1485,2966.19
10649,1.6616,3.6248,9.3242,1445,2966.19
10654,2.9197,2.2278,11.9542,1453,2966.19
10659,-2.9353,-1.494,13.0855,1443,2966.19
10664,-5.284,1.8028,9.1542,1491,2966.04
10669,1.5371,3.5781,9.2883,1445,2966.04
10674,3.1915,2.4205,11.8633,1453,2966.04
10679,-2.6755,-1.4138,13.1932,1436,2966.04
10684,-5.466,1.6424,9.2967,1463,2965.45
10689,1.3767,3.4991,9.092,1443,2965.45
10694,3.4034,2.5989,11.7328,1449,2965.45
10699,-2.4289,-1.2809,13.204,1444,2965.45
10704,-5.6336,1.4305,9.5122,1446,2965.45
10709,1.2558,3.3686,8.983,1467,2966.77
10714,3.4165,2.7174,11.5784,1439,2966.77
10719,-2.1332,-1.1923,13.2256,1439,2966.77
10724,-5.7964,1.2881,9.7205,1452,2966.77
10729,1.0642,3.3303,8.7927,1460,2966.19
10734,3.5614,2.9006,11.4658,1447,2966.19
10739,-1.9022,-1.0523,13.2723,1439,2966.19
10744,-5.9221,1.081,9.9108,1459,2966.19
10749,0.8655,3.201,8.7544,1460,2967.51
10754,3.5482,3.0646,11.3772,1446,2967.51
10759,-1.6843,-0.8547,13.2699,1437,2967.51
10764,-5.9687,0.893,10.1359,1451,2967.51
10769,0.6081,3.1963,8.6383,1461,2967.07
10774,3.5698,3.2597,11.1845,1445,2967.07
10779,-1.4796,-0.6632,13.2806,1448,2967.07
10784,-5.9616,0.6895,10.3741,1449,2967.07
10789,0.3352,3.1017,8.5042,1465,2967.07
10794,3.5111,3.3926,11.1079,1443,2967.07
10799,-1.2378,-0.5136,13.2627,1446,2967.07
10804,-5.8957,0.4729,10.5285,1445,2967.07
10809,0.1161,3.067,8.424,1461,2966.92
10814,3.4584,3.5075,11.0014,1447,2966.92
10819,-0.996,-0.2837,13.2567,1443,2966.92
10824,-5.7736,0.1951,10.817,1448,2966.92
10829,-0.146,2.9209,8.321,1461,2966.33
10834,3.3962,3.5686,10.7643,1453,2966.33
10839,-0.7458,-0.164,13.1466,1445,2966.33
10844,-5.6623,-0.1065,10.987,1448,2966.33
10849,-0.486,2.8635,8.242,1471,2965.89
10854,3.2585,3.6392,10.7093,1447,2965.89
10859,-0.5351,0.0515,13.0735,1447,2965.89
10864,-5.6228,-0.3148,11.169,1445,2965.89
10869,-0.8619,2.7689,8.1343,1469,2965.75
10874,3.1244,3.7326,10.5788,1444,2965.75
10879,-0.3591,0.1856,13.0484,1444,2965.75
10884,-5.4755,-0.583,11.3856,1447,2965.75
10889,-1.221,2.6683,8.1128,1468,2965.89
10894,2.9389,3.8188,10.4962,1447,2965.89
10899,-0.1269,0.3424,12.9754,1439,2965.89
10904,-5.3905,-0.7961,11.6191,1453,2965.89
10909,-1.5874,2.624,8.0469,1485,2966.19
10914,2.8276,3.8666,10.3609,1446,2966.19
10919,0.079,0.5351,12.9024,1445,2966.19
10924,-5.199,-0.9469,11.7855,1451,2966.19
10929,-1.9585,2.6288,8.1199,1483,2966.04
10934,2.6612,3.9708,10.3106,1449,2966.04
10939,0.401,0.7171,12.7862,1450,2966.04
10944,-4.9464,-1.1528,11.9578,1445,2966.04
10949,-2.3547,2.4732,8.1163,1486,2966.92
10954,2.6085,3.9456,10.2185,1449,2966.92
10959,0.6596,0.8942,12.7527,1446,2966.92
10964,-4.7872,-1.3024,12.1578,1458,2966.92
10969,-2.7366,2.4624,8.1666,1484,2966.63
10974,2.5031,3.9049,10.082,1449,2966.63
10979,0.923,1.0187,12.6306,1447,2966.63
10984,-4.5478,-1.4521,12.3265,1445,2966.63
10989,-3.1376,2.3619,8.2157,1486,2966.92
10994,2.3595,3.887,9.9575,1453,2966.92
10999,1.2869,1.1815,12.5755,1443,2966.92
11004,-4.3012,-1.5227,12.4522,1450,2966.92
11009,-3.486,2.2745,8.3402,1491,2967.51
11014,2.2278,3.8379,9.9156,1454,2967.51
11019,1.6137,1.336,12.463,1439,2967.51
11024,-4.1384,-1.6376,12.5432,1443,2967.51
11029,-3.8882,2.217,8.4192,1493,2967.8
11034,2.0794,3.7781,9.821,1447,2967.8
11039,1.9082,1.4904,12.3433,1447,2967.8
11044,-3.9301,-1.6544,12.6988,1444,2967.8
11049,-4.2258,2.1679,8.5593,1459,2967.51
11054,1.9333,3.7469,9.6498,1452,2967.51
11059,2.2482,1.7011,12.2404,1447,2967.51
11064,-3.7134,-1.646,12.8389,1455,2967.51
11069,-4.5346,2.0794,8.6993,1465,2967.65
11074,1.8423,3.6907,9.5972,1449,2967.65
11079,2.5259,1.8651,12.1973,1446,2967.65
11084,-3.4668,-1.6161,12.9502,1451,2967.65
11089,-4.8566,2.0279,8.825,1465,2967.36
11094,1.7801,3.7002,9.4739,1450,2967.36
11099,2.8132,2.0734,12.0704,1452,2967.36
11104,-3.1615,-1.5682,13.0903,1448,2967.36
11109,-5.1332,1.8854,9.007,1471,2968.09
11114,1.6436,3.5997,9.3314,1439,2968.09
11119,3.0993,2.235,12.0285,1453,2968.09
11124,-2.8814,-1.4569,13.1466,1439,2968.09
11129,-5.3463,1.8196,9.1327,1465,2967.51
11134,1.5323,3.5901,9.1937,1443,2967.51
11139,3.2669,2.4253,11.8381,1450,2967.51
11144,-2.6097,-1.3898,13.1885,1444,2967.51
11149,-5.5091,1.6544,9.2979,1447,2967.51
11154,1.3994,3.4465,9.0513,1465,2967.07
11159,3.4465,2.5869,11.728,1447,2967.07
11164,-2.3499,-1.2965,13.2016,1439,2967.07
11169,-5.7042,1.4844,9.5385,1448,2967.07
11174,1.221,3.4081,8.928,1465,2966.77
11179,3.5183,2.7569,11.582,1448,2966.77
11184,-2.0842,-1.2246,13.2328,1439,2966.77
11189,-5.8478,1.2641,9.7588,1459,2966.77
11194,1.0247,3.322,8.7915,1460,2966.92
11199,3.559,2.8826,11.4359,1445,2966.92
11204,-1.9106,-1.0271,13.2435,1443,2966.92
11209,-5.9328,1.057,9.9551,1454,2966.92
11214,0.7997,3.2549,8.7089,1460,2966.19
11219,3.5638,3.122,11.4,1447,2966.19
11224,-1.6867,-0.826,13.2914,1447,2966.19
11229,-5.964,0.9337,10.1167,1450,2966.19
11234,0.5914,3.1939,8.5808,1464,2966.33
11239,3.5865,3.2765,11.1989,1444,2966.33
11244,-1.4341,-0.6333,13.2124,1447,2966.33
11249,-5.9233,0.6584,10.4016,1443,2966.33
11254,0.3508,3.0849,8.5437,1463,2966.63
11259,3.5314,3.3926,11.0947,1447,2966.63
11264,-1.1708,-0.4836,13.277,1443,2966.63
11269,-5.8395,0.3316,10.568,1447,2966.63
11274,0.0934,2.9844,8.3402,1461,2966.63
11279,3.4572,3.4788,10.9451,1451,2966.63
11284,-0.9349,-0.2921,13.2232,1435,2966.63
11289,-5.8167,0.1125,10.811,1449,2966.63
11294,-0.1724,2.9209,8.2959,1463,2966.63
11299,3.3639,3.6045,10.7811,1449,2966.63
11304,-0.747,-0.146,13.1166,1449,2966.63
11309,-5.7269,-0.1425,10.9834,1445,2966.63
11314,-0.5423,2.8335,8.1965,1471,2966.77
11319,3.2441,3.6883,10.7045,1445,2966.77
11324,-0.5375,0.0335,13.052,1443,2966.77
11329,-5.6312,-0.3855,11.2132,1446,2966.77
11334,-0.8655,2.7821,8.1582,1467,2966.92
11339,3.1137,3.7769,10.5979,1446,2966.92
11344,-0.3496,0.2203,12.9993,1443,2966.92
11349,-5.515,-0.5842,11.394,1447,2966.92
11354,-1.2402,2.7162,8.1235,1464,2966.92
11359,2.9676,3.8307,10.4734,1447,2966.92
11364,-0.1413,0.3675,12.9814,1443,2966.92
11369,-5.3666,-0.7781,11.6262,1453,2966.92
11374,-1.5886,2.6181,8.1439,1484,2966.77
11379,2.8479,3.9002,10.3992,1448,2966.77
11384,0.1448,0.5351,12.8461,1445,2966.77
11389,-5.2337,-0.9601,11.7663,1449,2966.77
11394,-1.974,2.5642,8.0912,1483,2967.36
11399,2.7294,3.8918,10.3597,1447,2967.36
11404,0.3711,0.6979,12.809,1448,2967.36
11409,-4.9763,-1.148,12.0069,1439,2967.36
11414,-2.3499,2.5319,8.1128,1483,2967.07
11419,2.6264,3.954,10.1526,1447,2967.07
11424,0.6297,0.8727,12.6845,1443,2967.07
11429,-4.8339,-1.3144,12.1554,1444,2967.07
11434,-2.7282,2.4409,8.1558,1485,2967.07
11439,2.5067,3.887,10.0748,1451,2967.07
11444,0.9577,0.9984,12.6414,1445,2967.07
11449,-4.5538,-1.4389,12.2882,1440,2967.07
11454,-3.1268,2.3343,8.1977,1485,2967.07
11459,2.3774,3.8678,9.9802,1453,2967.07
11464,1.2905,1.166,12.5336,1439,2967.07
11469,-4.3515,-1.5562,12.4618,1439,2967.07
11474,-3.4608,2.2865,8.321,1491,2967.07
11479,2.2015,3.7876,9.8737,1448,2967.07
11484,1.6089,1.324,12.469,1445,2967.07
11489,-4.1611,-1.6149,12.5791,1461,2967.07
11494,-3.8547,2.2685,8.4048,1483,2967.07
11499,2.0734,3.7876,9.8234,1451,2967.07
11504,1.8878,1.4653,12.3732,1439,2967.07
11509,-3.8978,-1.6652,12.7407,1453,2967.07
11514,-4.2066,2.1895,8.5054,1467,2966.77
11519,1.9728,3.7888,9.6678,1451,2966.77
11524,2.1859,1.6963,12.2679,1445,2966.77
11529,-3.6978,-1.6173,12.8401,1451,2966.77
11534,-4.5705,2.1548,8.679,1463,2967.36
11539,1.8687,3.7601,9.5984,1447,2967.36
11544,2.5163,1.8507,12.1817,1445,2967.36
11549,-3.4105,-1.5945,12.9778,1451,2967.36
11554,-4.8782,2.0698,8.7915,1469,2966.19
11559,1.7945,3.7433,9.4439,1444,2966.19
11564,2.818,2.0686,12.0548,1455,2966.19
11569,-3.0945,-1.5586,13.058,1443,2966.19
11574,-5.1631,1.9094,8.9854,1469,2967.51
11579,1.652,3.6559,9.3254,1445,2967.51
11584,3.0622,2.2218,11.9495,1457,2967.51
11589,-2.8551,-1.5191,13.1358,1437,2967.51
11594,-5.3474,1.7693,9.159,1449,2967.51
11599,1.5658,3.5566,9.2296,1463,2966.63
11604,3.2813,2.4229,11.7843,1449,2966.63
11609,-2.5702,-1.4653,13.1801,1445,2966.63
11614,-5.5773,1.6125,9.3362,1445,2966.63
11619,1.3503,3.4357,9.0692,1464,2966.33
11624,3.4297,2.5977,11.7172,1449,2966.33
11629,-2.3044,-1.3467,13.2435,1443,2966.33
11634,-5.7114,1.4449,9.578,1453,2966.33
11639,1.1971,3.4034,8.9531,1459,2966.33
11644,3.5267,2.8108,11.5436,1445,2966.33
11649,-2.1069,-1.1648,13.216,1437,2966.33
11654,-5.867,1.2665,9.7648,1455,2966.33
11659,1.0175,3.2729,8.831,1460,2966.48
11664,3.5434,2.9556,11.4132,1445,2966.48
11669,-1.8926,-0.9972,13.2926,1439,2966.48
11674,-5.9424,1.0774,9.9958,1453,2966.48
11679,0.7673,3.2681,8.6993,1456,2966.33
11684,3.5494,3.1687,11.3509,1443,2966.33
11689,-1.6221,-0.7841,13.3297,1448,2966.33
11694,-5.952,0.8679,10.2113,1445,2966.33
11699,0.5614,3.1735,8.5641,1464,2966.33
11704,3.5674,3.2741,11.1618,1443,2966.33
11709,-1.3671,-0.6177,13.3106,1445,2966.33
11714,-5.8909,0.6321,10.4459,1445,2966.33
11719,0.3376,3.1089,8.4312,1462,2966.48
11724,3.5662,3.4177,11.0313,1451,2966.48
11729,-1.1468,-0.4274,13.2423,1439,2966.48
11734,-5.8933,0.3364,10.6075,1447,2966.48
11739,0.0251,2.9676,8.3594,1466,2966.63
11744,3.456,3.5518,10.8577,1449,2966.63
11749,-0.8894,-0.2729,13.1801,1445,2966.63
11754,-5.8227,0.0575,10.8541,1445,2966.63
11759,-0.2526,2.8659,8.2899,1469,2966.63
11764,3.3339,3.5506,10.8505,1447,2966.63
11769,-0.7242,-0.0802,13.1226,1447,2966.63
11774,-5.7174,-0.2119,10.993,1445,2966.63
11779,-0.6213,2.8228,8.2301,1469,2966.48
11784,3.1915,3.6823,10.744,1443,2966.48
11789,-0.4884,0.0814,13.0999,1446,2966.48
11794,-5.6443,-0.3819,11.2288,1444,2966.48
11799,-0.9984,2.7426,8.1702,1467,2966.33
11804,3.0909,3.7757,10.5979,1447,2966.33
11809,-0.3364,0.2215,13.0185,1432,2966.33
11814,-5.5174,-0.5902,11.4347,1451,2966.33
11819,-1.3503,2.6659,8.1319,1463,2966.19
11824,2.9269,3.887,10.4758,1448,2966.19
11829,-0.0982,0.3807,12.979,1447,2966.19
11834,-5.3056,-0.7709,11.6107,1449,2966.19
11839,-1.6759,2.6252,8.084,1491,2966.04
11844,2.806,3.893,10.3729,1445,2966.04
11849,0.1915,0.5555,12.8808,1451,2966.04
11854,-5.1487,-0.9756,11.8214,1445,2966.04
11859,-2.0303,2.6217,8.1439,1489,2966.33
11864,2.6767,3.9169,10.2532,1445,2966.33
11869,0.4393,0.6931,12.7276,1446,2966.33
11874,-4.8614,-1.1744,11.971,1443,2966.33
11879,-2.4505,2.49,8.1151,1487,2966.77
11884,2.569,3.8858,10.1586,1453,2966.77
11889,0.8104,0.8452,12.6797,1447,2966.77
11894,-4.6783,-1.3156,12.1949,1447,2966.77
11899,-2.879,2.4553,8.181,1487,2966.77
11904,2.4397,3.8882,10.064,1459,2966.77
11909,1.0906,1.0116,12.6162,1444,2966.77
11914,-4.4807,-1.4808,12.323,1447,2966.77
11919,-3.2669,2.3367,8.242,1487,2967.07
11924,2.2266,3.8295,9.9575,1451,2967.07
11929,1.3791,1.1432,12.5085,1439,2967.07
11934,-4.2952,-1.5969,12.4714,1445,2967.07
11939,-3.632,2.2936,8.3653,1471,2967.21
11944,2.0937,3.8343,9.8749,1448,2967.21
11949,1.7023,1.3611,12.4714,1446,2967.21
11954,-4.0809,-1.64,12.6965,1448,2967.21
11959,-4.027,2.2482,8.4204,1484,2967.8
11964,2.0087,3.8283,9.7576,1447,2967.8
11969,1.9788,1.5526,12.4056,1435,2967.8
11974,-3.8511,-1.6436,12.7982,1447,2967.8
11979,-4.3155,2.229,8.5665,1480,2968.09
11984,1.9501,3.8343,9.5888,1451,2968.09
11989,2.2948,1.7741,12.2356,1439,2968.09
11994,-3.6212,-1.646,12.9287,1447,2968.09
11999,-4.6543,2.1344,8.6754,1481,2968.24
12004,1.8399,3.7577,9.5086,1439,2968.24
12009,2.6552,1.9094,12.2176,1451,2968.24
12014,-3.3303,-1.634,12.979,1447,2968.24
12019,-4.8818,2.0303,8.8609,1479,2968.09
12024,1.7957,3.6859,9.3386,1437,2968.09
12029,2.9137,2.077,12.0261,1451,2968.09
12034,-3.0849,-1.6161,13.0436,1437,2968.09
12039,-5.1296,1.8711,9.0118,1455,2968.09
12044,1.6269,3.5865,9.2644,1439,2968.09
12049,3.1436,2.2589,11.9339,1451,2968.09
12054,-2.8599,-1.5203,13.1322,1440,2968.09
12059,-5.3977,1.7226,9.1411,1444,2968.09
12064,1.5323,3.486,9.171,1461,2967.95
12069,3.3267,2.4553,11.8166,1438,2967.95
12074,-2.6588,-1.4724,13.1861,1439,2967.95
12079,-5.6096,1.6005,9.347,1444,2967.95
12084,1.3431,3.4129,9.1171,1453,2968.24
12089,3.3962,2.6025,11.7148,1445,2968.24
12094,-2.4349,-1.3575,13.2627,1439,2968.24
12099,-5.7569,1.4377,9.5265,1453,2968.24
12104,1.1768,3.4069,8.9316,1459,2968.68
12109,3.5159,2.8419,11.6262,1445,2968.68
12114,-2.1608,-1.1432,13.2998,1439,2968.68
12119,-5.9125,1.2953,9.754,1453,2968.68
12124,0.9924,3.3387,8.7951,1459,2968.53
12129,3.5279,2.9892,11.4838,1445,2968.53
12134,-1.9597,-0.9972,13.3453,1447,2968.53
12139,-5.9376,1.1241,9.9551,1451,2968.53
12144,0.8045,3.3064,8.6706,1465,2968.53
12149,3.6152,3.1232,11.3318,1439,2968.53
12154,-1.652,-0.8236,13.3632,1447,2968.53
12159,-5.9616,0.9086,10.1203,1445,2968.53
12164,0.6285,3.1783,8.5138,1461,2968.53
12169,3.6512,3.2226,11.1797,1447,2968.53
12174,-1.4054,-0.6931,13.2663,1447,2968.53
12179,-5.964,0.68,10.3334,1447,2968.53
12184,0.419,3.122,8.4958,1463,2968.68
12189,3.6093,3.3184,11.0217,1447,2968.68
12194,-1.1815,-0.5183,13.277,1436,2968.68
12199,-5.9197,0.3926,10.4794,1449,2968.68
12204,0.1413,2.9796,8.3091,1464,2968.53
12209,3.4788,3.3998,10.9068,1450,2968.53
12214,-0.9457,-0.3484,13.2423,1447,2968.53
12219,-5.9149,0.1999,10.756,1445,2968.53
12224,-0.1245,2.9305,8.3414,1469,2968.53
12229,3.377,3.5422,10.8194,1447,2968.53
12234,-0.8296,-0.1664,13.1681,1445,2968.53
12239,-5.8502,-0.0168,10.8948,1439,2968.53
12244,-0.4621,2.9054,8.2528,1469,2968.53
12249,3.2848,3.6631,10.7847,1447,2968.53
12254,-0.6716,-0.0682,13.1717,1443,2968.53
12259,-5.7628,-0.2358,11.1546,1449,2968.53
12264,-0.7506,2.7964,8.1954,1467,2968.24
12269,3.1448,3.7685,10.6722,1446,2968.24
12274,-0.4788,0.176,13.119,1439,2968.24
12279,-5.5701,-0.4345,11.2539,1455,2968.24
12284,-1.0774,2.7677,8.0936,1460,2967.21
12289,3.0095,3.8355,10.5117,1447,2967.21
12294,-0.2263,0.3424,13.0879,1442,2967.21
12299,-5.4049,-0.6967,11.5927,1449,2967.21
12304,-1.4497,2.7198,8.1319,1465,2967.8
12309,2.8994,3.8391,10.3956,1447,2967.8
12314,0.091,0.4334,12.961,1451,2967.8
12319,-5.1942,-0.893,11.6298,1447,2967.8
12324,-1.8411,2.5833,7.9966,1467,2967.51
12329,2.8084,3.8642,10.2783,1449,2967.51
12334,0.3376,0.5974,12.8748,1447,2967.51
12339,-5.0745,-1.0702,11.8525,1445,2967.51
12344,-2.1272,2.5247,8.0373,1481,2967.21
12349,2.6791,3.8487,10.1718,1452,2967.21
12354,0.5543,0.741,12.7814,1446,2967.21
12359,-4.8758,-1.2953,12.0261,1448,2967.21
12364,-2.6228,2.4744,8.1774,1486,2967.36
12369,2.4684,3.8535,10.1754,1453,2967.36
12374,0.8871,0.8787,12.7707,1443,2967.36
12379,-4.7477,-1.415,12.1913,1447,2967.36
12384,-3.0095,2.4146,8.1594,1494,2967.36
12389,2.3451,3.8607,10.0545,1452,2967.36
12394,1.1277,1.057,12.6115,1444,2967.36
12399,-4.525,-1.5071,12.4199,1445,2967.36
12404,-3.4022,2.3774,8.2756,1493,2967.51
12409,2.1691,3.863,9.9551,1448,2967.51
12414,1.4269,1.2857,12.554,1446,2967.51
12419,-4.2689,-1.5838,12.5013,1448,2967.51
12424,-3.7493,2.3403,8.3582,1459,2967.07
12429,2.1656,3.8906,9.8857,1452,2967.07
12434,1.8064,1.4796,12.469,1447,2967.07
12439,-4.0259,-1.6005,12.6976,1455,2967.07
12444,-4.0953,2.2709,8.4922,1487,2966.92
12449,2.0578,3.8355,9.7229,1451,2966.92
12454,2.1679,1.567,12.3158,1447,2966.92
12459,-3.7409,-1.6412,12.7587,1452,2966.92
12464,-4.4341,2.1907,8.57,1461,2966.77
12469,1.9393,3.7541,9.6055,1447,2966.77
12474,2.4565,1.7681,12.2128,1455,2966.77
12479,-3.4488,-1.6688,12.9287,1451,2966.77
12484,-4.7118,2.0482,8.7209,1495,2966.77
12489,1.8471,3.6835,9.4571,1448,2966.77
12494,2.7378,1.9213,12.1171,1460,2966.77
12499,-3.231,-1.6987,12.9969,1443,2966.77
12504,-5.0182,1.919,8.9328,1460,2966.48
12509,1.6891,3.6152,9.3589,1445,2966.48
12514,2.9413,2.1308,12.0093,1447,2966.48
12519,-3.0167,-1.6185,13.0807,1449,2966.48
12524,-5.2696,1.7753,9.0668,1452,2966.48
12529,1.5275,3.5099,9.2285,1466,2966.48
12534,3.1807,2.3367,11.8944,1447,2966.48
12539,-2.7869,-1.5,13.2124,1432,2966.48
12544,-5.5222,1.6975,9.2703,1453,2966.48
12549,1.409,3.5027,9.1375,1462,2966.92
12554,3.3267,2.5953,11.7974,1451,2966.92
12559,-2.5055,-1.3779,13.2878,1439,2966.92
12564,-5.6826,1.5347,9.4308,1459,2966.92
12569,1.2498,3.4441,9.001,1465,2966.92
12574,3.4608,2.7665,11.6681,1449,2966.92
12579,-2.2266,-1.1887,13.2866,1445,2966.92
12584,-5.7964,1.391,9.7217,1453,2966.92
12589,1.136,3.3818,8.8621,1465,2966.77
12594,3.6093,2.9006,11.5065,1446,2966.77
12599,-1.9094,-1.0044,13.2256,1449,2966.77
12604,-5.9041,1.1301,9.7971,1451,2966.77
12609,0.9062,3.2513,8.7293,1463,2966.77
12614,3.614,3.0071,11.4191,1445,2966.77
12619,-1.646,-0.9062,13.2962,1448,2966.77
12624,-5.9149,0.9373,10.064,1443,2966.77
12629,0.7015,3.1831,8.6383,1468,2966.92
12634,3.6571,3.1639,11.2384,1448,2966.92
12639,-1.4198,-0.7626,13.2782,1445,2966.92
12644,-6.0094,0.6572,10.2711,1447,2966.92
12649,0.4381,3.0765,8.5377,1467,2966.77
12654,3.5721,3.2848,11.1318,1453,2966.77
12659,-1.2234,-0.5806,13.2471,1443,2966.77
12664,-5.9855,0.4405,10.5285,1447,2966.77
12669,0.1736,3.0418,8.4731,1470,2966.92
12674,3.4429,3.4393,10.9858,1451,2966.92
12679,-1.0343,-0.3867,13.1837,1445,2966.92
12684,-5.9388,0.2526,10.7284,1445,2966.92
12689,-0.1197,2.958,8.3965,1471,2966.77
12694,3.3555,3.5434,10.8302,1447,2966.77
12699,-0.844,-0.1963,13.1047,1447,2966.77
12704,-5.8526,0.0431,10.9319,1448,2966.77
12709,-0.4645,2.9257,8.2564,1477,2966.77
12714,3.2549,3.7038,10.7607,1449,2966.77
12719,-0.6297,-0.0024,13.1418,1444,2966.77
12724,-5.7066,-0.1999,11.1318,1449,2966.77
12729,-0.8116,2.8347,8.175,1461,2966.48
12734,3.1939,3.7613,10.6374,1447,2966.48
12739,-0.3974,0.1448,13.0616,1445,2966.48
12744,-5.5354,-0.431,11.2839,1459,2966.48
12749,-1.1157,2.7809,8.1786,1485,2967.36
12754,3.0765,3.8319,10.4543,1451,2967.36
12759,-0.1401,0.3268,12.9957,1447,2967.36
12764,-5.351,-0.6404,11.5209,1450,2967.36
12769,-1.4509,2.6635,8.0732,1494,2966.92
12774,2.9556,3.8176,10.3968,1444,2966.92
12779,0.0898,0.4489,12.8748,1452,2966.92
12784,-5.2625,-0.8954,11.7088,1439,2966.92
12789,-1.8399,2.5774,8.0864,1483,2966.63
12794,2.7569,3.8152,10.2999,1450,2966.63
12799,0.3448,0.6153,12.8485,1449,2966.63
12804,-5.1056,-1.0965,11.8573,1445,2966.63
12809,-2.2709,2.5319,8.1116,1493,2965.45
12814,2.5438,3.8415,10.1933,1455,2965.45
12819,0.5543,0.7542,12.7683,1447,2965.45
12824,-4.853,-1.2869,12.0512,1443,2965.45
12829,-2.6743,2.4995,8.1977,1490,2964.87
12834,2.3906,3.9229,10.1047,1451,2964.87
12839,0.8894,0.9517,12.7252,1445,2964.87
12844,-4.64,-1.4473,12.2918,1447,2964.87
12849,-3.0562,2.375,8.2133,1493,2965.01
12854,2.3116,3.9373,10.0377,1449,2965.01
12859,1.1684,1.1672,12.5779,1428,2965.01
12864,-4.4029,-1.4593,12.396,1447,2965.01
12869,-3.4524,2.3499,8.2971,1465,2965.01
12874,2.2194,3.9193,9.9228,1451,2965.01
12879,1.5886,1.3036,12.4415,1443,2965.01
12884,-4.0965,-1.5897,12.5755,1455,2965.01
12889,-3.8511,2.2793,8.3989,1477,2964.87
12894,2.1368,3.8223,9.7803,1453,2964.87
12899,1.9273,1.5071,12.3337,1447,2964.87
12904,-3.869,-1.6747,12.7192,1453,2964.87
12909,-4.1899,2.1775,8.4575,1467,2964.72
12914,2.0004,3.7637,9.6438,1445,2964.72
12919,2.2649,1.6604,12.238,1453,2964.72
12924,-3.5326,-1.7059,12.8198,1452,2964.72
12929,-4.5562,2.0674,8.6514,1495,2964.87
12934,1.822,3.7254,9.5924,1444,2964.87
12939,2.5845,1.883,12.153,1456,2964.87
12944,-3.3842,-1.6915,12.9909,1439,2964.87
12949,-4.8806,1.9668,8.8406,1469,2963.99
12954,1.6927,3.6416,9.4679,1447,2963.99
12959,2.8431,2.0877,11.977,1454,2963.99
12964,-3.0885,-1.6221,13.0173,1449,2963.99
12969,-5.1882,1.8723,9.013,1449,2963.99
12974,1.5909,3.5638,9.341,1467,2965.31
12979,3.0718,2.3044,11.9052,1446,2965.31
12984,-2.8359,-1.4976,13.1657,1445,2965.31
12989,-5.4803,1.7573,9.2069,1455,2965.31
12994,1.4138,3.5015,9.1638,1463,2965.01
12999,3.304,2.5498,11.7483,1449,2965.01
13004,-2.545,-1.3467,13.2268,1439,2965.01
13009,-5.6276,1.5909,9.4703,1453,2965.01
13014,1.312,3.4728,9.1159,1459,2965.01
13019,3.4441,2.6863,11.6717,1445,2965.01
13024,-2.2649,-1.245,13.2507,1439,2965.01
13029,-5.7569,1.3707,9.6522,1455,2965.01
13034,1.1229,3.3818,8.8885,1469,2964.28
13039,3.5757,2.8742,11.4742,1437,2964.28
13044,-1.9573,-1.0618,13.2615,1447,2964.28
13049,-5.8778,1.1552,9.839,1447,2964.28
13054,0.923,3.2262,8.8226,1467,2963.99
13059,3.5961,2.9999,11.3545,1445,2963.99
13064,-1.6771,-0.8799,13.2447,1447,2963.99
13069,-5.8826,0.9086,10.0281,1447,2963.99
13074,0.6608,3.2166,8.6622,1467,2963.84
13079,3.5781,3.1723,11.2025,1451,2963.84
13084,-1.4485,-0.6692,13.2459,1439,2963.84
13089,-5.9149,0.6752,10.3082,1449,2963.84
13094,0.3915,3.061,8.4862,1465,2963.84
13099,3.4848,3.3315,11.0492,1459,2963.84
13104,-1.2007,-0.5195,13.2016,1445,2963.84
13109,-5.9508,0.4764,10.4758,1446,2963.84
13114,0.103,3.0191,8.4647,1480,2963.84
13119,3.4369,3.5219,10.9499,1447,2963.84
13124,-1.0163,-0.3124,13.2232,1445,2963.84
13129,-5.8646,0.2119,10.7476,1447,2963.84
13134,-0.2215,2.9173,8.3522,1479,2964.13
13139,3.3076,3.6296,10.8014,1447,2964.13
13144,-0.7841,-0.1281,13.137,1444,2964.13
13149,-5.7293,-0.0239,10.9451,1451,2964.13
13154,-0.5567,2.9161,8.2732,1467,2964.13
13159,3.237,3.7074,10.6841,1449,2964.13
13164,-0.5626,0.0515,13.0951,1445,2964.13
13169,-5.5845,-0.334,11.1725,1453,2964.13
13174,-0.911,2.8036,8.1582,1464,2963.99
13179,3.1101,3.7757,10.5692,1445,2963.99
13184,-0.2765,0.237,12.9993,1448,2963.99
13189,-5.4169,-0.5662,11.4383,1447,2963.99
13194,-1.3192,2.7222,8.1822,1501,2963.4
13199,2.9808,3.8092,10.471,1448,2963.4
13204,-0.0239,0.401,12.9047,1449,2963.4
13209,-5.223,-0.8499,11.5401,1451,2963.4
13214,-1.743,2.6085,8.1211,1493,2963.55
13219,2.7749,3.8223,10.3166,1451,2963.55
13224,0.2526,0.5423,12.8593,1449,2963.55
13229,-5.1056,-1.0523,11.7711,1447,2963.55
13234,-2.1045,2.5343,8.1714,1481,2963.84
13239,2.5905,3.869,10.2077,1455,2963.84
13244,0.5052,0.7494,12.6988,1445,2963.84
13249,-4.8985,-1.2031,12.0309,1447,2963.84
13254,-2.5666,2.5031,8.1211,1495,2964.13
13259,2.4744,3.8535,10.1335,1453,2964.13
13264,0.8224,0.9038,12.6581,1445,2964.13
13269,-4.6878,-1.3719,12.2248,1444,2964.13
13274,-2.9221,2.4433,8.2241,1499,2964.28
13279,2.3367,3.9421,10.0126,1449,2964.28
13284,1.1504,1.0858,12.5588,1447,2964.28
13289,-4.391,-1.4605,12.4103,1447,2964.28
13294,-3.3854,2.375,8.3163,1483,2964.72
13299,2.1931,3.9049,9.9587,1451,2964.72
13304,1.5083,1.2665,12.5229,1446,2964.72
13309,-4.1635,-1.5933,12.5181,1459,2964.72
13314,-3.7984,2.2817,8.3929,1486,2965.01
13319,2.1512,3.8559,9.8174,1461,2965.01
13324,1.8902,1.4353,12.3732,1447,2965.01
13329,-3.8642,-1.6448,12.6869,1449,2965.01
13334,-4.1695,2.2242,8.515,1495,2964.87
13339,2.0016,3.814,9.7169,1449,2964.87
13344,2.2302,1.6328,12.2846,1454,2964.87
13349,-3.6296,-1.6831,12.8664,1445,2964.87
13354,-4.4915,2.1332,8.6084,1481,2964.87
13359,1.8783,3.7026,9.5696,1449,2964.87
13364,2.5271,1.8328,12.1781,1455,2964.87
13369,-3.4441,-1.6735,12.9215,1443,2964.87
13374,-4.8662,2.0219,8.8837,1451,2964.87
13379,1.7849,3.5566,9.5193,1471,2964.72
13384,2.8216,2.0435,12.0907,1451,2964.72
13389,-3.1627,-1.6221,13.0233,1447,2964.72
13394,-5.1284,1.8794,9.001,1449,2964.72
13399,1.6041,3.5721,9.3302,1470,2964.87
13404,3.0382,2.2877,12.0141,1453,2964.87
13409,-2.909,-1.5227,13.1549,1445,2964.87
13414,-5.4061,1.7849,9.1806,1455,2964.87
13419,1.4724,3.5099,9.183,1463,2965.16
13424,3.2226,2.4744,11.8417,1451,2965.16
13429,-2.6408,-1.3994,13.1609,1445,2965.16
13434,-5.6012,1.6293,9.4176,1455,2965.16
13439,1.3204,3.4596,9.1255,1467,2965.89
13444,3.3962,2.6911,11.643,1447,2965.89
13449,-2.3152,-1.221,13.2387,1451,2965.89
13454,-5.7377,1.4664,9.6019,1455,2965.89
13459,1.1552,3.4189,8.9507,1461,2966.19
13464,3.5578,2.8156,11.5616,1445,2966.19
13469,-2.0327,-1.1253,13.2735,1450,2966.19
13474,-5.8634,1.2641,9.7504,1447,2966.19
13479,1.0139,3.3543,8.8166,1468,2966.48
13484,3.6356,2.9688,11.4251,1449,2966.48
13489,-0.7937,-0.1676,13.1729,1445,2966.48
13494,-5.8023,-0.0575,10.969,1445,2966.48
13499,-0.492,2.8467,8.26,1465,2966.63
13504,3.2645,3.6368,10.7272,1454,2966.63
13509,-0.5471,-0.0192,13.1023,1445,2966.63
13514,-5.6707,-0.3005,11.1857,1447,2966.63
13519,-0.8368,2.7916,8.2157,1467,2966.63
13524,3.0945,3.7745,10.6267,1455,2966.63
13529,-0.4381,0.158,13.0472,1449,2966.63
13534,-5.6,-0.4752,11.3772,1447,2966.63
13539,-1.2163,2.6959,8.1487,1480,2967.07
13544,2.9916,3.8056,10.5201,1451,2967.07
13549,-0.2155,0.3304,12.9933,1453,2967.07
13554,-5.4289,-0.6752,11.6394,1447,2967.07
13559,-1.5347,2.6803,8.1762,1472,2967.36
13564,2.8766,3.9121,10.3932,1447,2967.36
13569,0.0479,0.498,12.8976,1444,2967.36
13574,-5.2433,-0.9266,11.8106,1451,2967.36
13579,-1.8926,2.5893,8.1116,1469,2966.63
13584,2.7497,3.8618,10.2987,1450,2966.63
13589,0.3124,0.644,12.8533,1445,2966.63
13594,-5.017,-1.1013,11.9231,1453,2966.63
13599,-2.2577,2.5343,8.1092,1481,2966.33
13604,2.6348,3.8654,10.1789,1453,2966.33
13609,0.6428,0.8152,12.7276,1445,2966.33
13614,-4.774,-1.2677,12.1374,1453,2966.33
13619,-2.6707,2.4409,8.1187,1492,2965.75
13624,2.4648,3.8618,10.1047,1449,2965.75
13629,0.9673,0.9313,12.645,1455,2965.75
13634,-4.6148,-1.4617,12.2236,1445,2965.75
13639,-3.073,2.3846,8.2097,1491,2965.31
13644,2.2829,3.8283,10.0545,1448,2965.31
13649,1.2151,1.1241,12.5732,1447,2965.31
13654,-4.3227,-1.567,12.408,1448,2965.31
13659,-3.486,2.3092,8.3258,1491,2965.31
13664,2.1284,3.8307,9.9036,1461,2965.31
13669,1.5802,1.2953,12.4774,1447,2965.31
13674,-4.1384,-1.6281,12.5743,1447,2965.31
13679,-3.9014,2.2673,8.3761,1489,2965.31
13684,2.077,3.8116,9.8246,1455,2965.31
13689,1.8986,1.4916,12.396,1447,2965.31
13694,-3.881,-1.6472,12.7419,1444,2965.31
13699,-4.2689,2.2218,8.5305,1494,2965.16
13704,1.9453,3.8104,9.6989,1452,2965.16
13709,2.2063,1.7142,12.2284,1445,2965.16
13714,-3.6428,-1.6712,12.8856,1446,2965.16
13719,-4.5993,2.1344,8.7089,1491,2965.01
13724,1.8687,3.7457,9.6307,1459,2965.01
13729,2.5953,1.9309,12.1613,1437,2965.01
13734,-3.3255,-1.6424,13.0065,1453,2965.01
13739,-4.9225,2.0315,8.8083,1487,2965.31
13744,1.7514,3.6559,9.4607,1451,2965.31
13749,2.8766,2.0722,11.989,1449,2965.31
13754,-3.0442,-1.6017,13.034,1459,2965.31
13759,-5.1571,1.8507,8.9938,1495,2965.6
13764,1.6544,3.5961,9.3111,1451,2965.6
13769,3.1711,2.2829,11.9016,1452,2965.6
13774,-2.7749,-1.5514,13.1071,1451,2965.6
13779,-5.4372,1.6951,9.1674,1497,2966.19
13784,1.5083,3.4991,9.2141,1449,2966.19
13789,3.3124,2.4828,11.7388,1459,2966.19
13794,-2.563,-1.4401,13.1645,1447,2966.19
13799,-5.6419,1.567,9.3877,1497,2966.04
13804,1.3132,3.4644,9.098,1448,2966.04
13809,3.4524,2.7054,11.6849,1454,2966.04
13814,-2.302,-1.3168,13.2663,1448,2966.04
13819,-5.8119,1.3767,9.6403,1450,2966.04
13824,1.1444,3.4081,8.9244,1467,2965.75
13829,3.5398,2.8874,11.5113,1447,2965.75
13834,-2.0506,-1.0977,13.2926,1449,2965.75
13839,-5.9101,1.2486,9.8557,1449,2965.75
13844,0.9278,3.3543,8.8346,1468,2965.45
13849,3.5925,3.0765,11.3413,1453,2965.45
13854,-1.7968,-0.8942,13.2723,1444,2965.45
13859,-5.934,1.0331,10.009,1455,2965.45
13864,0.7207,3.2274,8.6778,1463,2965.45
13869,3.6129,3.1723,11.2707,1447,2965.45
13874,-1.4952,-0.7458,13.2543,1440,2965.45
13879,-5.9664,0.7542,10.2532,1456,2965.45
13884,0.4992,3.1723,8.5234,1465,2965.31
13889,3.6224,3.2848,11.078,1448,2965.31
13894,-1.2438,-0.5674,13.2531,1449,2965.31
13899,-5.9005,0.4932,10.422,1454,2965.31
13904,0.2382,3.0358,8.4443,1469,2965.45
13909,3.5147,3.3926,11.0109,1449,2965.45
13914,-1.0415,-0.3891,13.2627,1451,2965.45
13919,-5.8478,0.2191,10.6398,1447,2965.45
13924,-0.0934,2.9365,8.3318,1469,2965.75
13929,3.4129,3.5326,10.8338,1450,2965.75
13934,-0.8092,-0.2119,13.1729,1448,2965.75
13939,-5.843,-0.0227,10.8804,1448,2965.75
13944,-0.4046,2.8611,8.2923,1467,2965.75
13949,3.2465,3.6248,10.7236,1455,2965.75
13954,-0.6716,-0.0347,13.1358,1445,2965.75
13959,-5.7209,-0.2514,11.1282,1447,2965.75
13964,-0.7805,2.8072,8.2145,1469,2965.75
13969,3.1352,3.7098,10.6398,1453,2965.75
13974,-0.4776,0.1676,13.0448,1451,2965.75
13979,-5.5952,-0.4788,11.3701,1448,2965.75
13984,-1.1672,2.7557,8.2061,1471,2965.6
13989,3.0011,3.8199,10.5213,1452,2965.6
13994,-0.2586,0.3304,12.9993,1451,2965.6
13999,-5.4205,-0.674,11.5089,1447,2965.6
14004,-1.494,2.6983,8.1642,1480,2966.04
14009,2.8766,3.8906,10.4232,1451,2966.04
14014,-0.0096,0.4561,12.9203,1445,2966.04
14019,-5.1679,-0.8835,11.7136,1448,2966.04
14024,-1.8794,2.6408,8.102,1465,2965.6
14029,2.7833,3.9337,10.3322,1451,2965.6
14034,0.3567,0.6285,12.8257,1447,2965.6
14039,-5.0206,-1.0798,11.8752,1453,2965.6
14044,-2.2541,2.5438,8.0936,1485,2966.63
14049,2.6767,3.8882,10.1801,1451,2966.63
14054,0.6692,0.735,12.718,1449,2966.63
14059,-4.8171,-1.3096,12.0404,1451,2966.63
14064,-2.6564,2.4313,8.1798,1501,2966.19
14069,2.4445,3.8355,10.0485,1450,2966.19
14074,0.9481,0.8894,12.6019,1443,2966.19
14079,-4.5957,-1.4653,12.2559,1447,2966.19
14084,-3.0622,2.387,8.2265,1491,2966.48
14089,2.2853,3.8559,10.0149,1451,2966.48
14094,1.2246,1.081,12.566,1451,2966.48
14099,-4.4592,-1.5419,12.3505,1445,2966.48
14104,-3.4728,2.3511,8.3234,1497,2966.48
14109,2.2015,3.8152,9.8689,1456,2966.48
14114,1.5119,1.233,12.5265,1447,2966.48
14119,-4.2318,-1.6041,12.5684,1447,2966.48
14124,-3.8283,2.3068,8.4587,1495,2966.77
14129,2.0782,3.8415,9.839,1455,2966.77
14134,1.8723,1.4796,12.4702,1445,2966.77
14139,-3.9899,-1.6005,12.6917,1446,2966.77
14144,-4.1899,2.2494,8.5365,1497,2966.63
14149,2.0458,3.7924,9.6893,1451,2966.63
14154,2.2122,1.67,12.3086,1447,2966.63
14159,-3.735,-1.6065,12.8617,1447,2966.63
14164,-4.5011,2.1644,8.7053,1467,2965.89
14169,1.8998,3.7565,9.5624,1453,2965.89
14174,2.5175,1.889,12.214,1447,2965.89
14179,-3.3698,-1.6233,12.8688,1451,2965.89
14184,-4.7932,1.9992,8.8178,1499,2966.48
14189,1.7729,3.6428,9.4822,1452,2966.48
14194,2.8742,2.0351,12.0799,1448,2966.48
14199,-3.1544,-1.6137,13.0053,1455,2966.48
14204,-5.1188,1.9106,8.9842,1471,2965.75
14209,1.6759,3.5841,9.2967,1445,2965.75
14214,3.0969,2.2075,12.0009,1451,2965.75
14219,-2.8527,-1.5957,13.0939,1452,2965.75
14224,-5.3355,1.7442,9.1614,1500,2965.75
14229,1.4832,3.4788,9.177,1449,2965.75
14234,3.2298,2.3547,11.8321,1461,2965.75
14239,-2.6336,-1.4904,13.1645,1443,2965.75
14244,-5.5952,1.6101,9.3948,1471,2965.16
14249,1.3791,3.4584,9.0944,1449,2965.16
14254,3.371,2.6193,11.6729,1455,2965.16
14259,-2.4541,-1.2977,13.2304,1439,2965.16
14264,-5.7628,1.4581,9.5876,1449,2965.16
14269,1.1815,3.4381,8.9998,1471,2964.57
14274,3.4524,2.8479,11.5736,1449,2964.57
14279,-2.1141,-1.1121,13.2782,1447,2964.57
14284,-5.8419,1.3096,9.8581,1453,2964.57
14289,0.9876,3.3279,8.8214,1465,2964.87
14294,3.5494,3.0071,11.394,1451,2964.87
14299,-1.8172,-0.9625,13.2651,1443,2964.87
14304,-5.928,1.063,10.0078,1461,2964.87
14309,0.7961,3.2729,8.685,1465,2964.57
14314,3.6009,3.1532,11.2863,1449,2964.57
14319,-1.5263,-0.7602,13.1968,1443,2964.57
14324,-5.8909,0.838,10.1742,1461,2964.57
14329,0.5674,3.1508,8.5509,1468,2964.43
14334,3.6212,3.2645,11.1151,1447,2964.43
14339,-1.2318,-0.5974,13.2088,1451,2964.43
14344,-5.9101,0.5231,10.4076,1453,2964.43
14349,0.2095,3.043,8.4886,1471,2964.28
14354,3.5135,3.3507,11.0373,1451,2964.28
14359,-1.0367,-0.425,13.1418,1447,2964.28
14364,-5.8778,0.2777,10.6781,1445,2964.28
14369,-0.0587,2.9509,8.3606,1467,2964.13
14374,3.3627,3.5159,10.8302,1455,2964.13
14379,-0.8906,-0.2239,13.1358,1449,2964.13
14384,-5.8035,0.006,10.9391,1450,2964.13
14389,-0.4118,2.9042,8.2911,1469,2963.99
14394,3.2501,3.632,10.7751,1455,2963.99
14399,-0.6979,-0.0766,13.0759,1450,2963.99
14404,-5.7293,-0.1963,11.1678,1449,2963.99
14409,-0.7266,2.8108,8.2468,1482,2963.84
14414,3.0837,3.7409,10.6734,1453,2963.84
14419,-0.5303,0.1844,12.979,1449,2963.84
14424,-5.5677,-0.413,11.3868,1449,2963.84
14429,-1.087,2.7677,8.1451,1483,2963.99
14434,2.9544,3.8128,10.4986,1451,2963.99
14439,-0.2274,0.3807,12.9311,1447,2963.99
14444,-5.3391,-0.6907,11.6059,1452,2963.99
14449,-1.482,2.6564,8.1343,1478,2964.28
14454,2.8802,3.8475,10.4196,1455,2964.28
14459,0.0838,0.5171,12.9012,1448,2964.28
14464,-5.1451,-0.9218,11.7364,1455,2964.28
14469,-1.9166,2.5905,8.1558,1487,2964.57
14474,2.806,3.8571,10.2975,1453,2964.57
14479,0.3543,0.6572,12.7719,1445,2964.57
14484,-4.9488,-1.1528,11.9519,1451,2964.57
14489,-2.3331,2.4888,8.1774,1495,2964.87
14494,2.5462,3.8355,10.2077,1447,2964.87
14499,0.6548,0.8416,12.6821,1451,2964.87
14504,-4.7549,-1.3623,12.0668,1447,2964.87
14509,-2.7461,2.4014,8.1211,1496,2965.16
14514,2.3942,3.8176,10.1562,1453,2965.16
14519,0.9756,0.9768,12.6474,1449,2965.16
14524,-4.5741,-1.4533,12.3218,1447,2965.16
14529,-3.1663,2.3798,8.2528,1493,2965.01
14534,2.2829,3.863,10.0173,1461,2965.01
14539,1.3096,1.1648,12.5277,1448,2965.01
14544,-4.3371,-1.5215,12.3792,1447,2965.01
14549,-3.5398,2.3595,8.3306,1497,2965.16
14554,2.1284,3.8571,9.9012,1454,2965.16
14559,1.5814,1.3611,12.4475,1446,2965.16
14564,-4.118,-1.585,12.633,1452,2965.16
14569,-3.9732,2.3308,8.4851,1495,2965.31
14574,2.0542,3.8307,9.8438,1451,2965.31
14579,2.0099,1.5646,12.3098,1451,2965.31
14584,-3.8199,-1.6089,12.7527,1451,2965.31
14589,-4.2916,2.1991,8.6155,1483,2965.45
14594,1.9573,3.8068,9.6223,1458,2965.45
14599,2.399,1.7502,12.2248,1447,2965.45
14604,-3.5207,-1.5981,12.8784,1455,2965.45
14609,-4.6807,2.0901,8.7352,1496,2965.6
14614,1.8292,3.7074,9.5253,1455,2965.6
14619,2.7473,1.8986,12.05,1449,2965.6
14624,-3.3136,-1.6496,12.9598,1455,2965.6
14629,-4.9656,2.0039,8.8837,1485,2965.31
14634,1.7621,3.6105,9.4667,1449,2965.31
14639,2.9568,2.1153,12.0464,1456,2965.31
14644,-3.0239,-1.5778,13.028,1455,2965.31
14649,-5.2062,1.8364,9.074,1503,2965.89
14654,1.6005,3.5386,9.3158,1447,2965.89
14659,3.1795,2.3116,11.8597,1459,2965.89
14664,-2.7964,-1.5143,13.1502,1447,2965.89
14669,-5.4887,1.7107,9.3003,1469,2965.45
14674,1.4126,3.474,9.165,1449,2965.45
14679,3.3052,2.5211,11.7495,1453,2965.45
14684,-2.5163,-1.391,13.2148,1447,2965.45
14689,-5.6515,1.5957,9.4703,1451,2965.45
14694,1.3084,3.4548,9.0202,1471,2965.89
14699,3.4584,2.7677,11.6837,1449,2965.89
14704,-2.2482,-1.2019,13.2842,1449,2965.89
14709,-5.794,1.3791,9.6594,1449,2965.89
14714,1.0942,3.3591,8.9519,1469,2965.89
14719,3.565,2.9209,11.4802,1453,2965.89
14724,-1.98,-1.0367,13.2962,1445,2965.89
14729,-5.8802,1.2103,9.8725,1462,2965.89
14734,0.9074,3.2992,8.8418,1467,2966.04
14739,3.626,3.0418,11.3904,1447,2966.04
14744,-1.7023,-0.8727,13.3237,1445,2966.04
14749,-5.8802,0.9601,10.0928,1459,2966.04
14754,0.6835,3.2154,8.6455,1471,2965.89
14759,3.6152,3.128,11.2097,1445,2965.89
14764,-1.47,-0.7326,13.204,1450,2965.89
14769,-5.9209,0.741,10.2939,1455,2965.89
14774,0.4621,3.0969,8.5569,1471,2965.75
14779,3.5793,3.2836,11.0804,1450,2965.75
14784,-1.2462,-0.5112,13.2806,1452,2965.75
14789,-5.8849,0.4166,10.4627,1449,2965.75
14794,0.2155,3.0299,8.3965,1471,2965.89
14799,3.4632,3.4249,10.9822,1453,2965.89
14804,-1.0235,-0.3292,13.1597,1447,2965.89
14809,-5.8826,0.1915,10.799,1449,2965.89
14814,-0.1616,2.9736,8.3546,1471,2965.89
14819,3.3148,3.5662,10.8481,1456,2965.89
14824,-0.8667,-0.1879,13.1549,1445,2965.89
14829,-5.8275,-0.0204,10.9882,1449,2965.89
14834,-0.413,2.8838,8.254,1467,2966.19
14839,3.2537,3.6368,10.7069,1455,2966.19
14844,-0.6943,0.0275,13.1178,1449,2966.19
14849,-5.7018,-0.2059,11.1953,1448,2966.19
14854,-0.7985,2.8168,8.242,1483,2966.33
14859,3.1161,3.7577,10.5728,1447,2966.33
14864,-0.4405,0.1544,13.0209,1451,2966.33
14869,-5.5318,-0.5052,11.3892,1445,2966.33
14874,-1.1504,2.7354,8.1379,1477,2966.19
14879,3.0203,3.8104,10.5273,1451,2966.19
14884,-0.1508,0.3639,12.9395,1446,2966.19
14889,-5.3546,-0.7003,11.5784,1451,2966.19
14894,-1.5131,2.6336,8.1199,1471,2966.04
14899,2.8982,3.8523,10.3202,1451,2966.04
14904,0.0838,0.5112,12.8844,1446,2966.04
14909,-5.1595,-0.9098,11.7364,1455,2966.04
14914,-1.8735,2.5893,8.0924,1487,2965.89
14919,2.7737,3.8415,10.3046,1452,2965.89
14924,0.3579,0.6464,12.8341,1452,2965.89
14929,-4.9979,-1.148,11.9531,1443,2965.89
14934,-2.2685,2.5259,8.1535,1496,2966.04
14939,2.6085,3.8427,10.1754,1445,2966.04
14944,0.6069,0.8284,12.7264,1453,2966.04
14949,-4.8088,-1.306,12.1206,1447,2966.04
14954,-2.7019,2.4277,8.1894,1499,2966.19
14959,2.4349,3.8642,10.1347,1453,2966.19
14964,0.9301,0.9876,12.6881,1453,2966.19
14969,-4.6555,-1.3731,12.3026,1445,2966.19
14974,-3.0789,2.4361,8.2121,1493,2966.63
14979,2.3032,3.8882,9.9647,1463,2966.63
14984,1.1959,1.1648,12.5636,1449,2966.63
14989,-4.4089,-1.5036,12.4989,1447,2966.63
14994,-3.4692,2.3834,8.3869,1495,2966.63
14999,2.1811,3.8463,9.9144,1455,2966.63
15004,1.5658,1.2917,12.475,1461,2966.63
15009,-4.1743,-1.549,12.5552,1448,2966.63
15014,-3.8475,2.3308,8.4228,1497,2967.07
15019,2.1368,3.8798,9.8078,1449,2967.07
15024,1.9692,1.5,12.408,1451,2967.07
15029,-3.9265,-1.6185,12.7144,1439,2967.07
15034,-4.2078,2.2051,8.5102,1467,2967.07
15039,2.0423,3.7733,9.7109,1455,2967.07
15044,2.2709,1.6616,12.2727,1447,2967.07
15049,-3.6392,-1.6999,12.8389,1452,2967.07
15054,-4.5394,2.0853,8.6371,1501,2967.36
15059,1.9297,3.7278,9.5361,1451,2967.36
15064,2.5857,1.8292,12.2511,1449,2967.36
15069,-3.3651,-1.6664,12.9706,1461,2967.36
15074,-4.8399,1.998,8.8047,1479,2966.77
15079,1.7693,3.6117,9.4607,1449,2966.77
15084,2.8455,2.0351,12.0524,1451,2966.77
15089,-3.1591,-1.6113,13.046,1452,2966.77
15094,-5.1248,1.9225,8.9818,1500,2968.09
15099,1.646,3.6224,9.3805,1449,2968.09
15104,3.0275,2.247,11.9686,1461,2968.09
15109,-2.9281,-1.5646,13.0843,1444,2968.09
15114,-5.381,1.7957,9.1459,1498,2967.36
15119,1.5203,3.5303,9.2261,1449,2967.36
15124,3.2382,2.4193,11.8238,1453,2967.36
15129,-2.7222,-1.4078,13.1717,1448,2967.36
15134,-5.5749,1.67,9.396,1449,2967.36
15139,1.3683,3.5087,9.0968,1477,2966.92
15144,3.3974,2.5893,11.7412,1451,2966.92
15149,-2.4529,-1.2821,13.137,1444,2966.92
15154,-5.7485,1.4868,9.5217,1455,2966.92
15159,1.2366,3.4069,8.9543,1471,2966.92
15164,3.5171,2.7605,11.5951,1453,2966.92
15169,-2.1548,-1.1528,13.2806,1443,2966.92
15174,-5.8215,1.342,9.7659,1459,2966.92
15179,1.063,3.3459,8.7999,1464,2967.21
15184,3.6607,2.9341,11.376,1449,2967.21
15189,-1.9393,-1.0068,13.277,1444,2967.21
15194,-5.9268,1.0834,9.9635,1459,2967.21
15199,0.8631,3.2406,8.7305,1465,2967.36
15204,3.6356,3.0622,11.3581,1452,2967.36
15209,-1.6712,-0.8404,13.2974,1447,2967.36
15214,-5.9604,0.8428,10.094,1456,2967.36
15219,0.6644,3.158,8.5976,1467,2967.65
15224,3.5829,3.2346,11.1713,1437,2967.65
15229,-1.4174,-0.6716,13.2411,1451,2967.65
15234,-5.9532,0.6333,10.331,1449,2967.65
15239,0.3675,3.0825,8.442,1466,2967.95
15244,3.5626,3.3243,11.0684,1449,2967.95
15249,-1.239,-0.516,13.2687,1447,2967.95
15254,-5.9723,0.4681,10.6099,1451,2967.95
15259,0.1832,3.0275,8.3797,1468,2968.24
15264,3.4764,3.4524,10.975,1455,2968.24
15269,-1.0989,-0.3555,13.2459,1440,2968.24
15274,-5.9101,0.1772,10.7356,1452,2968.24
15279,-0.1556,2.9592,8.2648,1465,2968.39
15284,3.4177,3.5422,10.9032,1455,2968.39
15289,-0.838,-0.1448,13.1669,1451,2968.39
15294,-5.8323,-0.0096,10.9283,1452,2968.39
15299,-0.4262,2.8838,8.2205,1481,2968.53
15304,3.2825,3.6559,10.7188,1453,2968.53
15309,-0.644,0.0036,13.0939,1455,2968.53
15314,-5.7449,-0.2753,11.151,1451,2968.53
15319,-0.7302,2.7797,8.2097,1480,2968.53
15324,3.219,3.7194,10.6063,1449,2968.53
15329,-0.4058,0.1329,13.0472,1449,2968.53
15334,-5.539,-0.4585,11.3497,1449,2968.53
15339,-1.0582,2.7174,8.1427,1479,2968.39
15344,3.073,3.7864,10.4974,1453,2968.39
15349,-0.1808,0.2873,13.034,1449,2968.39
15354,-5.4145,-0.6967,11.5329,1455,2968.39
15359,-1.4293,2.6803,8.0385,1492,2968.53
15364,2.9209,3.7697,10.398,1449,2968.53
15369,0.0168,0.4501,12.8988,1449,2968.53
15374,-5.2888,-0.893,11.6921,1459,2968.53
15379,-1.7968,2.6791,8.09,1498,2968.97
15384,2.7725,3.8583,10.3298,1451,2968.97
15389,0.3256,0.5842,12.8928,1454,2968.97
15394,-5.1715,-1.0582,11.8429,1451,2968.97
15399,-2.1452,2.5881,8.0816,1493,2969.27
15404,2.6217,3.9002,10.258,1450,2969.27
15409,0.5112,0.7494,12.8233,1450,2969.27
15414,-4.9871,-1.239,12.0141,1446,2969.27
15419,-2.4972,2.5343,8.1774,1496,2968.83
15424,2.5043,3.8798,10.1382,1451,2968.83
15429,0.7566,0.8763,12.7659,1449,2968.83
15434,-4.7645,-1.3671,12.1673,1449,2968.83
15439,-2.8826,2.4553,8.1786,1492,2968.97
15444,2.3942,3.875,10.0401,1461,2968.97
15449,1.1157,1.0822,12.6965,1445,2968.97
15454,-4.5945,-1.4664,12.3265,1447,2968.97
15459,-3.2525,2.3954,8.2732,1495,2968.68
15464,2.3391,3.9121,9.9802,1453,2968.68
15469,1.3647,1.2486,12.6462,1447,2968.68
15474,-4.3299,-1.5215,12.4582,1447,2968.68
15479,-3.6248,2.296,8.3246,1495,2968.53
15484,2.2242,3.8068,9.7923,1455,2968.53
15489,1.6963,1.4317,12.5552,1439,2968.53
15494,-4.1276,-1.6281,12.6079,1448,2968.53
15499,-3.9588,2.2422,8.4156,1481,2968.09
15504,2.156,3.7781,9.7169,1453,2968.09
15509,2.0315,1.6161,12.5289,1447,2968.09
15514,-3.8654,-1.6616,12.7407,1455,2968.09
15519,-4.3036,2.083,8.4372,1497,2967.65
15524,2.0039,3.7254,9.5744,1453,2967.65
15529,2.326,1.7561,12.469,1449,2967.65
15534,-3.6392,-1.6424,12.9371,1461,2967.65
15539,-4.5813,2.0494,8.5653,1496,2967.51
15544,1.8747,3.6284,9.4607,1451,2967.51
15549,2.557,1.9573,12.3601,1454,2967.51
15554,-3.4081,-1.6712,12.8832,1459,2967.51
15559,-4.8818,1.9716,8.8035,1484,2966.63
15564,1.7202,3.5686,9.3673,1451,2966.63
15569,2.7342,2.2063,12.3062,1461,2966.63
15574,-3.1759,-1.6053,13.0017,1449,2966.63
15579,-5.1104,1.8328,8.8562,1499,2966.48
15584,1.6759,3.5219,9.1925,1451,2966.48
15589,2.9999,2.3571,12.1554,1460,2966.48
15594,-2.9137,-1.4724,13.1358,1447,2966.48
15599,-5.375,1.7023,9.1961,1450,2966.48
15604,1.4916,3.486,9.1662,1469,2966.19
15609,3.2226,2.551,12.0452,1453,2966.19
15614,-2.5953,-1.306,13.1561,1450,2966.19
15619,-5.5869,1.5778,9.3051,1453,2966.19
15624,1.3958,3.4453,8.9112,1470,2966.33
15629,3.4177,2.7318,11.9231,1453,2966.33
15634,-2.3774,-1.2103,13.2663,1449,2966.33
15639,-5.7628,1.3815,9.5636,1463,2966.33
15644,1.2103,3.3172,8.7592,1468,2966.92
15649,3.5434,2.8264,11.6454,1450,2966.92
15654,-2.0734,-1.0762,13.2615,1449,2966.92
15659,-5.8191,1.1995,9.6989,1456,2966.92
15664,1.0044,3.2441,8.679,1470,2966.92
15669,3.5973,3.0335,11.5628,1449,2966.92
15674,-1.8268,-0.8871,13.313,1449,2966.92
15679,-5.8395,0.9469,9.8964,1455,2966.92
15684,0.7985,3.1208,8.5138,1467,2967.07
15689,3.6045,3.1244,11.3976,1449,2967.07
15694,-1.6293,-0.7518,13.2663,1453,2967.07
15699,-5.9759,0.7733,10.161,1447,2967.07
15704,0.5794,3.0981,8.4851,1472,2967.07
15709,3.571,3.2513,11.3066,1451,2967.07
15714,-1.4329,-0.5626,13.3537,1449,2967.07
15719,-5.9077,0.5171,10.319,1449,2967.07
15724,0.3424,2.9772,8.2672,1469,2966.77
15729,3.5087,3.3794,11.1666,1455,2966.77
15734,-1.2378,-0.4154,13.3309,1447,2966.77
15739,-5.9137,0.31,10.5848,1451,2966.77
15744,0.0455,2.9592,8.278,1469,2966.63
15749,3.4201,3.6021,10.987,1455,2966.63
15754,-1.0211,-0.1927,13.3297,1452,2966.63
15759,-5.7904,0.0646,10.7715,1449,2966.63
15764,-0.2969,2.873,8.1403,1481,2966.48
15769,3.3435,3.6751,-0.3089,1451,2966.48
15774,-0.8092,0.0323,13.3142,1443,2966.48
15779,-5.7102,-0.1796,11.0516,1451,2966.48
15784,-0.5459,2.7737,8.0541,1483,2966.63
15789,3.2489,3.711,10.72,1449,2966.63
15794,-0.6237,0.1544,13.1932,1448,2966.63
15799,-5.545,-0.4345,11.1797,1449,2966.63
15804,-0.9469,2.7354,7.9883,1471,2966.92
15809,3.146,3.7242,10.6315,1453,2966.92
15814,-0.2861,0.3136,13.1418,1448,2966.92
15819,-5.4324,-0.6716,11.4455,1455,2966.92
15824,-1.2582,2.6312,7.8961,1477,2967.21
15829,2.9856,3.7972,10.5213,1453,2967.21
15834,-0.1197,0.431,13.0939,1449,2967.21
15839,-5.2792,-0.9134,11.6047,1455,2967.21
15844,-1.6209,2.545,8.0325,1497,2967.36
15849,2.806,3.8271,10.4004,1449,2967.36
15854,0.1365,0.6345,13.0412,1459,2967.36
15859,-5.1499,-1.0762,11.8202,1449,2967.36
15864,-2.0602,2.4948,7.9751,1497,2967.51
15869,2.7138,3.9121,10.2699,1451,2967.51
15874,0.3855,0.7937,12.9454,1454,2967.51
15879,-4.9943,-1.2641,11.9507,1448,2967.51
15884,-2.4553,2.4421,7.9871,1492,2967.8
15889,2.6025,3.875,10.1239,1455,2967.8
15894,0.6093,0.9685,12.8868,1451,2967.8
15899,-4.8207,-1.3587,12.1278,1449,2967.8
15904,-2.824,2.393,8.0661,1496,2967.51
15909,2.472,3.8834,10.0975,1461,2967.51
15914,0.972,1.1432,12.8437,1448,2967.51
15919,-4.6064,-1.4868,12.2942,1449,2967.51
15924,-3.1795,2.3463,8.1415,1497,2967.36
15929,2.3571,3.8678,9.9659,1455,2967.36
15934,1.2605,1.3012,12.7108,1450,2967.36
15939,-4.3371,-1.5634,12.4439,1446,2967.36
15944,-3.5482,2.2637,8.2073,1504,2967.07
15949,2.2517,3.7804,9.845,1449,2967.07
15954,1.6484,1.4054,12.5935,1450,2967.07
15959,-4.0474,-1.6137,12.5612,1451,2967.07
15964,-3.9109,2.2051,8.327,1497,2967.07
15969,2.1129,3.7314,9.7276,1459,2967.07
15974,1.9704,1.6005,12.5552,1454,2967.07
15979,-3.8642,-1.7083,12.7132,1455,2967.07
15984,-4.2413,2.0865,8.4647,1499,2967.07
15989,1.9692,3.6739,9.6426,1454,2967.07
15994,2.2793,1.7705,12.4714,1453,2967.07
15999,-3.6344,-1.7154,12.8485,1459,2967.07
16004,-4.5538,2.0351,8.5569,1471,2967.21
16009,1.8579,3.6164,9.4966,1451,2967.21
16014,2.5247,1.9537,12.317,1461,2967.21
16019,-3.4441,-1.6951,12.9885,1453,2967.21
16024,-4.8937,1.9824,8.8023,1493,2968.24
16029,1.7645,3.5985,9.3865,1449,2968.24
16034,2.7976,2.1668,12.2631,1463,2968.24
16039,-3.2106,-1.5886,13.0125,1445,2968.24
16044,-5.1032,1.9166,8.8909,1467,2968.09
16049,1.6592,3.5279,9.232,1450,2968.09
16054,3.0227,2.3619,12.1733,1461,2968.09
16059,-2.9389,-1.4389,13.1633,1451,2968.09
16064,-5.3283,1.7478,9.1327,1451,2968.09
16069,1.5526,3.5123,9.1087,1472,2968.09
16074,3.2585,2.5151,12.0153,1449,2968.09
16079,-2.66,-1.3779,13.1705,1449,2968.09
16084,-5.5785,1.5742,9.2237,1453,2968.09
16089,1.4365,3.4081,8.9567,1469,2967.21
16094,3.4189,2.7114,11.8573,1453,2967.21
16099,-2.4277,-1.2222,13.2651,1447,2967.21
16104,-5.6383,1.4198,9.4954,1465,2967.21
16109,1.2953,3.3004,8.8083,1469,2967.51
16114,3.5542,2.8479,11.7687,1449,2967.51
16119,-2.1572,-1.1444,13.2711,1444,2967.51
16124,-5.8047,1.172,9.6414,1463,2967.51
16129,1.0942,3.2202,8.6443,1471,2967.51
16134,3.6105,2.97,11.6059,1449,2967.51
16139,-1.9513,-0.929,13.3357,1451,2967.51
16144,-5.94,1.008,9.8833,1455,2967.51
16149,0.8583,3.1699,8.6036,1469,2967.36
16154,3.5566,3.1304,11.4694,1451,2967.36
16159,-1.7095,-0.7889,13.2878,1449,2967.36
16164,-5.9771,0.7997,10.0676,1449,2967.36
16169,0.6249,3.1017,8.4623,1471,2967.07
16174,3.5183,3.31,11.321,1451,2967.07
16179,-1.4676,-0.5794,13.3596,1449,2967.07
16184,-5.9304,0.6345,10.3753,1448,2967.07
16189,0.4202,3.0406,8.3725,1469,2967.07
16194,3.5195,3.4488,11.1163,1449,2967.07
16199,-1.2965,-0.3651,13.3166,1445,2967.07
16204,-5.8981,0.3867,10.5764,1451,2967.07
16209,0.0814,3.0023,8.2756,1471,2967.21
16214,3.4357,3.5494,11.0433,1459,2967.21
16219,-1.0499,-0.1903,13.2675,1447,2967.21
16224,-5.7964,0.1185,10.7404,1453,2967.21
16229,-0.1867,2.8778,8.157,1483,2967.36
16234,3.4213,3.614,10.8553,1455,2967.36
16239,-0.8595,-0.012,13.2483,1449,2967.36
16244,-5.7006,-0.1448,10.9475,1453,2967.36
16249,-0.486,2.788,8.108,1479,2967.65
16254,3.304,3.644,10.7105,1453,2967.65
16259,-0.6045,0.1161,13.198,1447,2967.65
16264,-5.5797,-0.3974,11.1306,1453,2967.65
16269,-0.8236,2.7378,8.0313,1481,2967.8
16274,3.1663,3.6799,10.6362,1452,2967.8
16279,-0.3903,0.2777,13.1837,1447,2967.8
16284,-5.5091,-0.6153,11.3581,1455,2967.8
16289,-1.1636,2.6564,7.9799,1493,2968.09
16294,2.9999,3.7505,10.5129,1453,2968.09
16299,-0.2011,0.401,13.0999,1453,2968.09
16304,-5.3882,-0.808,11.5604,1460,2968.09
16309,-1.5275,2.5953,8.023,1499,2968.09
16314,2.8503,3.8367,10.4351,1449,2968.09
16319,-0.0395,0.6237,13.125,1459,2968.09
16324,-5.2325,-1.0235,11.7483,1449,2968.09
16329,-1.9094,2.5426,7.9715,1499,2968.39
16334,2.7354,3.8798,10.2927,1451,2968.39
16339,0.2263,0.7578,13.0652,1453,2968.39
16344,-5.0841,-1.136,11.904,1449,2968.39
16349,-2.2386,2.5235,7.9583,1497,2967.95
16354,2.6695,3.9097,10.24,1455,2967.95
16359,0.5004,0.9062,12.9814,1451,2967.95
16364,-4.8291,-1.2809,12.0357,1449,2967.95
16369,-2.6133,2.4373,7.9906,1494,2966.48
16374,2.5522,3.8642,10.0245,1461,2966.48
16379,0.8499,1.0523,12.8808,1451,2966.48
16384,-4.6005,-1.4234,12.2272,1447,2966.48
16389,-2.9497,2.4002,8.1367,1502,2967.07
16394,2.4529,3.8714,10.0161,1455,2967.07
16399,1.1947,1.2342,12.7898,1449,2967.07
16404,-4.3862,-1.5467,12.3265,1451,2967.07
16409,-3.3459,2.2553,8.1367,1471,2965.75
16414,2.3008,3.7745,9.8366,1453,2965.75
16419,1.5323,1.3731,12.7084,1446,2965.75
16424,-4.112,-1.6676,12.4738,1449,2965.75
16429,-3.7469,2.2039,8.3151,1495,2965.89
16434,2.1201,3.7757,9.7839,1453,2965.89
16439,1.8136,1.5526,12.5935,1451,2965.89
16444,-3.9816,-1.6987,12.6115,1461,2965.89
16449,-4.148,2.1368,8.4072,1467,2965.31
16454,1.9908,3.6607,9.6534,1454,2965.31
16459,2.0937,1.7621,12.5157,1451,2965.31
16464,-3.6895,-1.6316,12.7443,1459,2965.31
16469,-4.5191,2.0913,8.5557,1485,2966.04
16474,1.895,3.7242,9.5289,1452,2966.04
16479,2.4433,2.0327,12.3864,1463,2966.04
16484,-3.4752,-1.6005,12.9299,1449,2966.04
16489,-4.8195,2.0147,8.7388,1483,2966.04
16494,1.7693,3.6081,9.3948,1449,2966.04
16499,2.7629,2.1584,12.2655,1459,2966.04
16504,-3.1831,-1.5359,13.0089,1446,2966.04
16509,-5.0841,1.8747,8.9352,1451,2966.04
16514,1.6712,3.5853,9.2344,1471,2966.04
16519,3.043,2.3236,12.0931,1449,2966.04
16524,-2.8778,-1.4581,13.0735,1450,2966.04
16529,-5.3247,1.7478,9.1506,1447,2966.04
16534,1.5742,3.456,9.1063,1472,2965.89
16539,3.3052,2.5139,12.0201,1455,2965.89
16544,-2.6085,-1.3683,13.1514,1448,2965.89
16549,-5.5474,1.5143,9.256,1463,2965.89
16554,1.4234,3.3818,8.9232,1467,2966.04
16559,3.4465,2.6264,11.8369,1452,2966.04
16564,-2.387,-1.2605,13.1537,1449,2966.04
16569,-5.6467,1.3719,9.4727,1461,2966.04
16574,1.2701,3.3088,8.8478,1467,2966.33
16579,3.5147,2.8575,11.7555,1448,2966.33
16584,-2.1608,-1.1253,13.2711,1448,2966.33
16589,-5.8227,1.1899,9.7456,1455,2966.33
16594,1.0403,3.2429,8.6562,1463,2966.19
16599,3.535,3.0299,11.5939,1449,2966.19
16604,-1.9704,-0.9301,13.295,1459,2966.19
16609,-5.8766,1.0391,9.9623,1447,2966.19
16614,0.7973,3.1747,8.5772,1471,2965.89
16619,3.5338,3.1735,11.4407,1450,2965.89
16624,-1.7011,-0.7326,13.3082,1453,2965.89
16629,-5.9137,0.7997,10.2053,1449,2965.89
16634,0.5794,3.1053,8.3893,1468,2965.6
16639,3.5626,3.3543,11.2875,1455,2965.6
16644,-1.4497,-0.5016,13.2914,1446,2965.6
16649,-5.8802,0.565,10.4411,1450,2965.6
16654,0.3124,3.0191,8.3414,1477,2965.45
16659,3.559,3.4644,11.1486,1457,2965.45
16664,-1.1827,-0.3292,13.2531,1450,2965.45
16669,-5.7868,0.2586,10.5297,1450,2965.45
16674,0.0359,2.9185,8.2157,1481,2965.6
16679,3.4836,3.5638,10.9487,1453,2965.6
16684,-0.9385,-0.1592,13.2447,1449,2965.6
16689,-5.7078,-0.012,10.8314,1455,2965.6
16694,-0.2861,2.8383,8.1032,1481,2965.75
16699,3.4069,3.6547,10.7847,1451,2965.75
16704,-0.674,-0.0227,13.1609,1447,2965.75
16709,-5.6575,-0.267,11.0193,1451,2965.75
16714,-0.6225,2.7402,8.0589,1481,2966.04
16719,3.2238,3.705,10.7081,1453,2966.04
16724,-0.5543,0.1628,13.113,1445,2966.04
16729,-5.5677,-0.5423,11.2516,1460,2966.04
16734,-0.99,2.6743,8.0445,1494,2966.04
16739,3.0059,3.7577,10.6159,1451,2966.04
16744,-0.322,0.3771,13.0795,1449,2966.04
16749,-5.43,-0.6907,11.4874,1455,2966.04
16754,-1.4006,2.6803,8.005,1498,2965.89
16759,2.9113,3.8595,10.4914,1451,2965.89
16764,-0.1377,0.5327,13.0652,1456,2965.89
16769,-5.3175,-0.9301,11.661,1447,2965.89
16774,-1.7717,2.575,7.993,1499,2966.04
16779,2.8156,3.9014,10.3884,1455,2966.04
16784,0.1137,0.7494,13.0125,1453,2966.04
16789,-5.0709,-1.057,11.9064,1449,2966.04
16794,-2.156,2.5223,8.0457,1501,2966.19
16799,2.7031,3.8786,10.2484,1461,2966.19
16804,0.4022,0.8511,12.9083,1453,2966.19
16809,-4.8459,-1.2653,11.9303,1449,2966.19
16814,-2.5391,2.4349,8.0038,1493,2966.19
16819,2.6145,3.8978,10.1299,1455,2966.19
16824,0.735,1.0235,12.8449,1450,2966.19
16829,-4.6352,-1.3922,12.1877,1449,2966.19
16834,-2.8886,2.3679,8.0876,1499,2966.33
16839,2.4708,3.8523,10.003,1455,2966.33
16844,1.0487,1.1887,12.6773,1448,2966.33
16849,-4.4436,-1.5502,12.3433,1449,2966.33
16854,-3.3028,2.2841,8.1535,1487,2966.48
16859,2.296,3.7936,9.918,1455,2966.48
16864,1.3599,1.3611,12.7587,1452,2966.48
16869,-4.2473,-1.5778,12.4798,1455,2966.48
16874,-3.6583,2.2266,8.2564,1480,2966.63
16879,2.1356,3.7505,9.7947,1455,2966.63
16884,1.6843,1.4772,12.621,1451,2966.63
16889,-4.0306,-1.6831,12.6522,1455,2966.63
16894,-4.0833,2.1703,8.4503,1503,2966.63
16899,2.0195,3.7326,9.7001,1454,2966.63
16904,2.0243,1.731,12.5265,1455,2966.63
16909,-3.7792,-1.6388,12.7419,1455,2966.63
16914,-4.4029,2.0985,8.4803,1481,2966.63
16919,1.9609,3.6667,9.5481,1449,2966.63
16924,2.3703,1.9261,12.4439,1464,2966.63
16929,-3.5494,-1.6257,12.8736,1449,2966.63
16934,-4.689,2.0267,8.6538,1491,2966.77
16939,1.822,3.6835,9.4188,1451,2966.77
16944,2.6683,2.1069,12.2583,1462,2966.77
16949,-3.2741,-1.5993,12.9299,1449,2966.77
16954,-5.0111,1.9154,8.7855,1454,2966.77
16959,1.7262,3.6081,9.341,1478,2967.07
16964,2.9509,2.302,12.1937,1459,2967.07
16969,-3.0239,-1.5203,13.0628,1449,2967.07
16974,-5.2253,1.7573,8.9567,1453,2967.07
16979,1.7059,3.5063,9.1291,1477,2967.21
16984,3.2394,2.411,12.0931,1481,2967.21
16989,-2.7641,-1.4114,13.1334,1453,2967.21
16994,-5.4779,1.664,9.1674,1463,2967.21
16999,1.4712,3.4477,9.0465,1468,2967.36
17004,3.3375,2.5833,11.9423,1451,2967.36
17009,-2.4936,-1.3168,13.1717,1445,2967.36
17014,-5.6348,1.4712,9.3374,1464,2967.36
17019,1.3348,3.3351,8.8789,1467,2967.21
17024,3.3962,2.7473,11.7902,1451,2967.21
17029,-2.3104,-1.1887,13.2926,1449,2967.21
17034,-5.7772,1.3048,9.56,1461,2967.21
17039,1.1492,3.316,8.7891,1463,2967.21
17044,3.4752,2.9473,11.6646,1449,2967.21
17049,-2.0446,-1.0343,13.2591,1459,2967.21
17054,-5.8383,1.0894,9.8102,1452,2967.21
17059,0.9014,3.1843,8.6802,1471,2967.36
17064,3.5602,3.0993,11.4946,1449,2967.36
17069,-1.8316,-0.8452,13.3201,1451,2967.36
17074,-5.9173,0.9816,9.9958,1449,2967.36
17079,0.7494,3.213,8.5605,1471,2967.51
17084,3.6272,3.2513,11.3222,1455,2967.51
17089,-1.6125,-0.6883,13.3285,1447,2967.51
17094,-5.9364,0.6584,10.2376,1451,2967.51
17099,0.5363,3.0406,8.4503,1469,2967.51
17104,3.6212,3.3387,11.23,1461,2967.51
17109,-1.3048,-0.4573,13.3513,1452,2967.51
17114,-5.873,0.4357,10.4627,1453,2967.51
17119,0.261,3.0227,8.3067,1486,2967.65
17124,3.638,3.45,11.0492,1455,2967.65
17129,-1.1169,-0.3208,13.2531,1451,2967.65
17134,-5.8047,0.1604,10.6219,1451,2967.65
17139,-0.0395,2.909,8.187,1485,2967.8
17144,3.462,3.5554,10.9212,1453,2967.8
17149,-0.9397,-0.1233,13.2411,1451,2967.8
17154,-5.7904,-0.0479,10.8613,1453,2967.8
17159,-0.3148,2.8156,8.0852,1481,2967.65
17164,3.3854,3.6069,10.7727,1454,2967.65
17169,-0.7147,0.0108,13.283,1448,2967.65
17174,-5.7521,-0.2729,11.0349,1456,2967.65
17179,-0.7147,2.7007,8.0649,1495,2967.21
17184,3.1939,3.6943,10.7308,1455,2967.21
17189,-0.5567,0.1867,13.2088,1453,2967.21
17194,-5.636,-0.498,11.2563,1459,2967.21
17199,-1.0331,2.6959,8.0122,1499,2967.21
17204,3.0885,3.7804,10.6267,1455,2967.21
17209,-0.3795,0.3915,13.1418,1459,2967.21
17214,-5.4133,-0.6979,11.4778,1455,2967.21
17219,-1.391,2.6552,8.0014,1491,2967.07
17224,2.9664,3.8511,10.4651,1451,2967.07
17229,-0.1305,0.5411,13.0711,1459,2967.07
17234,-5.3199,-0.8679,11.6179,1448,2967.07
17239,-1.7813,2.6109,8.0038,1499,2967.36
17244,2.8479,3.8798,10.3501,1455,2967.36
17249,0.1101,0.6823,12.9969,1453,2967.36
17254,-5.0578,-1.081,11.8214,1451,2967.36
17259,-2.1548,2.5079,8.0361,1495,2967.36
17264,2.733,3.8834,10.2352,1463,2967.36
17269,0.4357,0.8296,12.9155,1449,2967.36
17274,-4.9512,-1.2342,11.9447,1449,2967.36
17279,-2.4756,2.4373,8.0852,1501,2967.36
17284,2.6049,3.8714,10.1382,1459,2967.36
17289,0.7578,1.0044,12.8724,1445,2967.36
17294,-4.6735,-1.3659,12.0919,1448,2967.36
17299,-2.8718,2.3343,8.102,1501,2967.21
17304,2.4229,3.8403,10.0173,1455,2967.21
17309,1.0319,1.1025,12.7563,1454,2967.21
17314,-4.4807,-1.5526,12.3026,1453,2967.21
17319,-3.3064,2.3739,8.157,1470,2967.36
17324,2.2529,3.7924,9.9108,1459,2967.36
17329,1.3838,1.2881,12.7563,1449,2967.36
17334,-4.3455,-1.6089,12.4199,1455,2967.36
17339,-3.6428,2.2936,8.2313,1493,2967.95
17344,2.144,3.7828,9.7779,1455,2967.95
17349,1.6951,1.4796,12.6067,1451,2967.95
17354,-4.0953,-1.6209,12.6222,1461,2967.95
17359,-4.0259,2.2434,8.3989,1477,2967.8
17364,2.0734,3.7888,9.7133,1453,2967.8
17369,2.0255,1.6867,12.5528,1456,2967.8
17374,-3.8798,-1.6221,12.7108,1455,2967.8
17379,-4.379,2.1416,8.4599,1503,2968.39
17384,1.9812,3.7505,9.584,1449,2968.39
17389,2.3092,1.834,12.4846,1464,2968.39
17394,-3.6356,-1.6089,12.8808,1449,2968.39
17399,-4.6507,2.1045,8.6359,1500,2968.24
17404,1.901,3.7373,9.4068,1453,2968.24
17409,2.6049,2.0327,12.3768,1462,2968.24
17414,-3.3495,-1.6712,12.9634,1447,2968.24
17419,-4.9033,1.9561,8.7329,1453,2968.24
17424,1.804,3.614,9.2703,1469,2968.09
17429,2.9066,2.1811,12.3026,1455,2968.09
17434,-3.1196,-1.579,13.0664,1451,2968.09
17439,-5.1559,1.8651,8.9184,1453,2968.09
17444,1.6819,3.5135,9.1602,1472,2967.8
17449,3.0646,2.3547,12.0596,1455,2967.8
17454,-2.8718,-1.5359,13.0747,1449,2967.8
17459,-5.3295,1.6316,9.1195,1465,2967.8
17464,1.5155,3.462,9.0872,1471,2968.24
17469,3.2202,2.5163,12.0297,1453,2968.24
17474,-2.6432,-1.4114,13.1909,1449,2968.24
17479,-5.5701,1.5239,9.2967,1464,2968.24
17484,1.3994,3.3974,8.9112,1469,2968.09
17489,3.4058,2.6815,11.8226,1451,2968.09
17494,-2.4864,-1.2737,13.2136,1448,2968.09
17499,-5.685,1.33,9.5181,1461,2968.09
17504,1.1959,3.3303,8.8334,1463,2968.09
17509,3.4836,2.8778,11.734,1453,2968.09
17514,-2.1967,-1.1205,13.2782,1455,2968.09
17519,-5.861,1.2318,9.736,1453,2968.09
17524,1.0534,3.2394,8.6838,1467,2968.53
17529,3.5662,3.049,11.5377,1451,2968.53
17534,-1.9704,-0.9182,13.3644,1453,2968.53
17539,-5.9005,1.0247,9.9228,1449,2968.53
17544,0.8428,3.2238,8.5569,1469,2968.53
17549,3.65,3.1663,11.4359,1451,2968.53
17554,-1.6795,-0.7159,13.2986,1451,2968.53
17559,-5.9245,0.8332,10.1143,1451,2968.53
17564,0.6596,3.1472,8.4898,1471,2968.83
17569,3.6093,3.2669,11.2791,1459,2968.83
17574,-1.4449,-0.5818,13.392,1449,2968.83
17579,-5.94,0.5997,10.2592,1453,2968.83
17584,0.431,3.0502,8.3175,1483,2968.68
17589,3.6129,3.3567,11.1546,1452,2968.68
17594,-1.227,-0.4238,13.313,1451,2968.68
17599,-5.9209,0.3065,10.4938,1449,2968.68
17604,0.1281,2.9413,8.2444,1481,2968.83
17609,2.9269,3.802,10.4327,1454,2968.83
17614,-0.1544,0.5124,13.1047,1449,2968.83
17619,-5.3175,-0.929,11.6705,1449,2968.83
17624,-0.1293,2.8742,8.1918,1481,2968.83
17629,2.8407,3.8607,10.3214,1453,2968.83
17634,0.1329,0.6859,12.9802,1451,2968.83
17639,-5.1846,-1.0427,11.8238,1461,2968.83
17644,-2.0518,2.5175,8.0086,1485,2969.12
17649,2.7031,3.8954,10.2532,1455,2969.12
17654,0.3448,0.844,12.9826,1447,2969.12
17659,-5.0111,-1.2354,11.9985,1461,2969.12
17664,-2.4289,2.4792,7.9978,1495,2968.83
17669,2.6312,3.881,10.1442,1455,2968.83
17674,0.6596,0.9972,12.8736,1449,2968.83
17679,-4.7812,-1.3192,12.147,1453,2968.83
17684,-2.8048,2.4493,8.0948,1499,2968.97
17689,2.5115,3.881,10.0652,1447,2968.97
17694,0.9373,1.1277,12.8413,1455,2968.97
17699,-4.5418,-1.4569,12.2451,1447,2968.97
17704,-3.1603,2.3415,8.1295,1499,2968.97
17709,2.393,3.8188,9.9707,1453,2968.97
17714,1.2977,1.2582,12.7395,1453,2968.97
17719,-4.3934,-1.5814,12.4355,1447,2968.97
17724,-3.4884,2.2685,8.2205,1497,2969.12
17729,2.2505,3.7613,9.7971,1463,2969.12
17734,1.5838,1.403,12.651,1452,2969.12
17739,-4.1623,-1.658,12.5145,1449,2969.12
17744,-3.9073,2.1703,8.2672,1501,2969.12
17749,2.0818,3.7385,9.73,1459,2969.12
17754,1.8974,1.561,12.6222,1447,2969.12
17759,-4.0175,-1.7107,12.6737,1451,2969.12
17764,-4.2126,2.1584,8.3893,1499,2969.42
17769,1.962,3.7565,9.6391,1460,2969.42
17774,2.1512,1.7992,12.4714,1451,2969.42
17779,-3.7302,-1.7166,12.8341,1450,2969.42
17784,-4.5538,2.0985,8.5365,1486,2969.42
17789,1.8723,3.6739,9.5313,1451,2969.42
17794,2.4816,1.9273,12.4343,1453,2969.42
17799,-3.5374,-1.6316,12.9466,1453,2969.42
17804,-4.8016,2.0435,8.6993,1501,2969.56
17809,1.8447,3.6871,9.3733,1457,2969.56
17814,2.7342,2.1105,12.2727,1448,2969.56
17819,-3.2561,-1.5694,12.9945,1461,2969.56
17824,-5.0613,1.9154,8.8358,1503,2969.56
17829,1.7406,3.6296,9.2608,1453,2969.56
17834,3.0203,2.2446,12.1362,1455,2969.56
17839,-2.976,-1.5323,13.1262,1459,2969.56
17844,-5.2541,1.7514,9.0633,1471,2969.56
17849,1.6161,3.5458,9.1111,1451,2969.56
17854,3.2561,2.4241,12.0668,1455,2969.56
17859,-2.7581,-1.4904,13.1669,1455,2969.56
17864,-5.4684,1.6257,9.177,1487,2969.12
17869,1.4868,3.3962,9.0369,1449,2969.12
17874,3.3926,2.5474,11.9938,1460,2969.12
17879,-2.5606,-1.3695,13.2232,1449,2969.12
17884,-5.6647,1.4533,9.3613,1485,2969.71
17889,1.385,3.3651,8.8909,1452,2969.71
17894,3.4752,2.7928,11.7902,1463,2969.71
17899,-2.3475,-1.2594,13.3106,1451,2969.71
17904,-5.794,1.3024,9.5912,1454,2969.71
17909,1.1624,3.2777,8.7412,1469,2970.44
17914,3.5219,2.8958,11.6238,1454,2970.44
17919,-2.1308,-1.0642,13.2974,1454,2970.44
17924,-5.8826,1.1696,9.7169,1453,2970.44
17929,0.9888,3.2513,8.6826,1477,2970.0
17934,3.5937,3.1149,11.4946,1440,2970.0
17939,-1.9237,-0.8535,13.38,1449,2970.0
17944,-5.9484,1.0463,9.9707,1463,2970.0
17949,0.8021,3.1843,8.5102,1467,2970.0
17954,3.614,3.1568,11.3856,1454,2970.0
17959,-1.7274,-0.7099,13.3441,1446,2970.0
17964,-5.9927,0.8332,10.1538,1464,2970.0
17969,0.6584,3.146,8.4384,1464,2970.44
17974,3.6799,3.3148,11.3126,1453,2970.44
17979,-1.4736,-0.5459,13.3668,1447,2970.44
17984,-5.9245,0.5435,10.2987,1455,2970.44
17989,0.3723,3.0215,8.3187,1471,2970.15
17994,3.6308,3.3722,11.1378,1447,2970.15
17999,-1.2378,-0.3855,13.3884,1453,2970.15
18004,-5.8945,0.3424,10.5141,1453,2970.15
18009,0.1592,2.97,8.2456,1469,2970.0
18014,3.5793,3.5063,11.0397,1447,2970.0
18019,-1.0008,-0.2466,13.3225,1451,2970.0
18024,-5.8598,0.0718,10.6518,1449,2970.0
18029,-0.1065,2.8479,8.1163,1469,2970.0
18034,3.4345,3.5135,10.9104,1451,2970.0
18039,-0.8284,-0.0778,13.3142,1450,2970.0
18044,-5.8227,-0.164,10.884,1450,2970.0
18049,-0.4537,2.7904,8.0529,1468,2969.86
18054,3.3375,3.6464,10.7739,1455,2969.86
18059,-0.7075,0.0778,13.1956,1447,2969.86
18064,-5.764,-0.3388,11.0516,1450,2969.86
18069,-0.7063,2.7342,8.0685,1471,2969.86
18074,3.1951,3.7182,10.7105,1455,2969.86
18079,-0.5363,0.2143,13.1873,1451,2969.86
18084,-5.5665,-0.4896,11.315,1451,2969.86
18089,-1.075,2.6827,8.0517,1481,2970.0
18094,3.0742,3.8128,10.5884,1459,2970.0
18099,-0.3543,0.431,13.1597,1451,2970.0
18104,-5.4253,-0.6704,11.4658,1453,2970.0
18109,-1.385,2.6396,8.0014,1479,2969.86
18114,2.9916,3.8235,10.5093,1451,2969.86
18119,-0.1233,0.5291,13.1274,1453,2969.86
18124,-5.3079,-0.8368,11.6203,1453,2969.86
18129,-1.7131,2.5977,7.9655,1469,2970.0
18134,2.9054,3.869,10.2951,1449,2970.0
18139,0.1568,0.6608,12.9933,1445,2970.0
18144,-5.0625,-1.0666,11.7495,1456,2970.0
18149,-2.0303,2.5091,7.9679,1471,2970.15
18154,2.7533,3.8654,10.228,1451,2970.15
18159,0.4417,0.7745,12.9921,1447,2970.15
18164,-4.9189,-1.2127,12.0033,1456,2970.15
18169,-2.3774,2.4553,7.9895,1484,2970.0
18174,2.6252,3.8247,10.1311,1451,2970.0
18179,0.6644,0.9086,12.9287,1455,2970.0
18184,-4.7944,-1.4018,12.0871,1451,2970.0
18189,-2.7581,2.3535,8.0002,1477,2969.86
18194,2.4529,3.7852,10.0485,1449,2969.86
18199,0.9613,1.0822,12.87,1453,2969.86
18204,-4.64,-1.4892,12.2356,1445,2969.86
18209,-3.1053,2.3607,8.1056,1493,2970.0
18214,2.3571,3.869,9.9323,1453,2970.0
18219,1.2019,1.2474,12.7791,1453,2970.0
18224,-4.47,-1.5263,12.4283,1448,2970.0
18229,-3.4297,2.3439,8.1558,1495,2970.0
18234,2.2565,3.869,9.8497,1455,2970.0
18239,1.4976,1.4365,12.7419,1447,2970.0
18244,-4.2066,-1.5778,12.5636,1451,2970.0
18249,-3.784,2.296,8.2959,1492,2969.86
18254,2.1715,3.8607,9.7468,1452,2969.86
18259,1.8184,1.5826,12.6617,1447,2969.86
18264,-4.0163,-1.6185,12.6917,1448,2969.86
18269,-4.0965,2.1751,8.3773,1498,2969.56
18274,2.1069,3.7888,9.6019,1453,2969.56
18279,2.1572,1.7382,12.5648,1452,2969.56
18284,-3.7685,-1.6604,12.8353,1449,2969.56
18289,-4.4053,2.1332,8.5174,1485,2969.56
18294,1.9992,3.7385,9.5074,1453,2969.56
18299,2.4529,1.8735,12.4008,1451,2969.56
18304,-3.4824,-1.6676,12.8772,1453,2969.56
18309,-4.7106,1.9597,8.5928,1467,2969.42
18314,1.8962,3.6152,9.3565,1455,2969.42
18319,2.8108,2.0339,12.3014,1448,2969.42
18324,-3.3172,-1.6352,13.0029,1459,2969.42
18329,-4.9907,1.9369,8.7903,1471,2969.12
18334,1.7561,3.5338,9.3266,1451,2969.12
18339,2.9197,2.2027,12.2416,1454,2969.12
18344,-3.061,-1.6017,13.0879,1455,2969.12
18349,-5.2445,1.7837,8.9388,1508,2968.83
18354,1.6005,3.48,9.1818,1445,2968.83
18359,3.1388,2.4038,12.1266,1461,2968.83
18364,-2.8539,-1.4461,13.1549,1452,2968.83
18369,-5.4492,1.6747,9.2021,1497,2968.97
18374,1.4688,3.5039,9.0118,1451,2968.97
18379,3.2801,2.6073,11.9554,1464,2968.97
18384,-2.6612,-1.3288,13.2399,1447,2968.97
18389,-5.6479,1.5323,9.3266,1477,2968.53
18394,1.3611,3.401,8.9172,1455,2968.53
18399,3.4237,2.7114,11.8405,1455,2968.53
18404,-2.3918,-1.1839,13.2675,1453,2968.53
18409,-5.7425,1.4042,9.5433,1451,2968.53
18414,1.1887,3.3651,8.8071,1467,2969.42
18419,3.6009,2.9102,11.6442,1451,2969.42
18424,-2.1213,-1.0499,13.2555,1449,2969.42
18429,-5.8119,1.1768,9.736,1460,2969.42
18434,1.0606,3.2573,8.6754,1467,2969.27
18439,3.6787,3.0406,11.5592,1455,2969.27
18444,-1.8196,-0.9301,13.38,1448,2969.27
18449,-5.8622,0.9673,9.9252,1465,2969.27
18454,0.8847,3.1639,8.5605,1469,2969.71
18459,3.7002,3.14,11.4215,1455,2969.71
18464,-1.64,-0.7805,13.3237,1449,2969.71
18469,-5.8849,0.753,10.1394,1463,2969.71
18474,0.6021,3.0921,8.43,1469,2969.56
18479,3.6344,3.2322,11.2767,1451,2969.56
18484,-1.47,-0.5818,13.3716,1453,2969.56
18489,-5.9544,0.5435,10.2711,1459,2969.56
18494,0.4046,3.0335,8.3187,1479,2969.71
18499,3.5662,3.4297,11.1414,1450,2969.71
18504,-1.3084,-0.4441,13.386,1454,2969.71
18509,-5.9328,0.346,10.5189,1449,2969.71
18514,0.1185,2.9329,8.2504,1470,2970.15
18519,3.4584,3.4895,11.0265,1453,2970.15
18524,-1.1516,-0.2658,13.3237,1449,2970.15
18529,-5.8957,0.1796,10.6817,1451,2970.15
18534,-0.1137,2.8934,8.1954,1479,2969.86
18539,3.4189,3.6308,10.8996,1455,2969.86
18544,-1.0116,-0.1006,13.3034,1449,2969.86
18549,-5.8167,-0.0443,10.8984,1455,2969.86
18554,-0.3915,2.8467,8.0445,1467,2969.71
18559,3.3615,3.6907,10.7811,1461,2969.71
18564,-0.7171,0.067,13.2675,1463,2969.71
18569,-5.6491,-0.2418,11.0672,1451,2969.71
18574,-0.6979,2.8228,8.0433,1483,2969.71
18579,3.316,3.7541,10.6769,1455,2969.71
18584,-0.4884,0.249,13.2531,1453,2969.71
18589,-5.5629,-0.5016,11.2767,1454,2969.71
18594,-1.0163,2.6983,7.9954,1485,2969.71
18599,3.152,3.7541,10.5201,1451,2969.71
18604,-0.2945,0.3388,13.1537,1449,2969.71
18609,-5.4049,-0.7506,11.4575,1455,2969.71
18614,-1.342,2.6217,7.9511,1483,2970.15
18619,3.0047,3.8403,10.4363,1453,2970.15
18624,-0.0419,0.4932,13.1418,1451,2970.15
18629,-5.296,-0.9397,11.5927,1455,2970.15
18634,-1.6855,2.5426,7.944,1483,2970.59
18639,2.8395,3.8152,10.3896,1459,2970.59
18644,0.1556,0.6177,13.064,1451,2970.59
18649,-5.2002,-1.0906,11.7711,1461,2970.59
18654,-2.0051,2.5271,7.9571,1490,2970.59
18659,2.6923,3.8894,10.2783,1459,2970.59
18664,0.322,0.808,13.0101,1454,2970.59
18669,-5.0362,-1.2151,11.9028,1455,2970.59
18674,-2.4229,2.5103,8.0433,1500,2970.89
18679,2.5977,3.899,10.1203,1451,2970.89
18684,0.5746,0.9732,12.949,1455,2970.89
18689,-4.8638,-1.2917,12.1374,1451,2970.89
18694,-2.7162,2.49,8.0553,1503,2971.03
18699,2.4792,3.9433,10.0724,1453,2971.03
18704,0.8655,1.0822,12.9155,1453,2971.03
18709,-4.6926,-1.3874,12.2344,1451,2971.03
18714,-3.0239,2.4002,8.09,1497,2971.47
18719,2.4457,3.8906,9.9455,1459,2971.47
18724,1.2055,1.2558,12.8186,1455,2971.47
18729,-4.446,-1.494,12.4056,1453,2971.47
18734,-3.371,2.3188,8.1235,1497,2971.47
18739,2.3475,3.875,9.8162,1463,2971.47
18744,1.5143,1.3575,12.7431,1449,2971.47
18749,-4.2605,-1.634,12.451,1453,2971.47
18754,-3.6871,2.2589,8.2085,1503,2971.33
18759,2.2434,3.7541,9.7492,1461,2971.33
18764,1.7861,1.5036,12.7096,1448,2971.33
18769,-4.0833,-1.6951,12.6653,1450,2971.33
18774,-3.9875,2.15,8.3199,1501,2971.18
18779,2.1045,3.7792,9.5768,1455,2971.18
18784,2.0554,1.6532,12.5743,1451,2971.18
18789,-3.9205,-1.7286,12.7192,1452,2971.18
18794,-4.3359,2.1057,8.4934,1464,2970.89
18799,1.9848,3.7002,9.5086,1459,2970.89
18804,2.2529,1.8004,12.542,1452,2970.89
18809,-3.7206,-1.6759,12.8617,1459,2970.89
18814,-4.6148,2.0782,8.6191,1511,2971.33
18819,1.8771,3.699,9.4463,1459,2971.33
18824,2.5426,2.0051,12.4127,1453,2971.33
18829,-3.48,-1.6101,12.9861,1464,2971.33
18834,-4.8866,2.0363,8.758,1494,2971.18
18839,1.7633,3.6368,9.335,1459,2971.18
18844,2.7581,2.1272,12.3206,1459,2971.18
18849,-3.2597,-1.579,13.046,1459,2971.18
18854,-5.0781,1.913,8.9112,1507,2971.18
18859,1.7107,3.5638,9.2285,1448,2971.18
18864,3.0394,2.32,12.1889,1465,2971.18
18869,-3.0514,-1.4641,13.0843,1449,2971.18
18874,-5.2876,1.743,9.0273,1501,2971.03
18879,1.6221,3.4967,9.0896,1451,2971.03
18884,3.3016,2.4553,12.0572,1463,2971.03
18889,-2.7533,-1.4222,13.1274,1449,2971.03
18894,-5.4815,1.6364,9.1925,1481,2971.18
18899,1.4724,3.4704,8.9998,1451,2971.18
18904,3.4093,2.6217,11.9997,1461,2971.18
18909,-2.557,-1.3455,13.2663,1454,2971.18
18914,-5.5952,1.488,9.3589,1454,2971.18
18919,1.3719,3.3806,8.8394,1470,2971.47
18924,3.5769,2.709,11.825,1455,2971.47
18929,-2.3463,-1.2163,13.2543,1451,2971.47
18934,-5.782,1.3001,9.5409,1456,2971.47
18939,1.2163,3.286,8.7412,1477,2971.92
18944,3.5841,2.8695,11.7472,1453,2971.92
18949,-2.1368,-1.093,13.3333,1449,2971.92
18954,-5.8849,1.1696,9.7384,1463,2971.92
18959,1.057,3.2585,8.5772,1469,2971.77
18964,3.6117,3.0358,11.6011,1455,2971.77
18969,-1.9848,-0.9493,13.3405,1449,2971.77
18974,-5.9185,1.0283,9.9216,1465,2971.77
18979,0.8655,3.2118,8.4803,1469,2972.21
18984,3.6105,3.1603,11.4227,1453,2972.21
18989,-1.7478,-0.8104,13.368,1453,2972.21
18994,-5.9855,0.8452,10.0832,1467,2972.21
18999,0.7147,3.1328,8.3929,1479,2971.92
19004,3.7074,3.286,11.3066,1455,2971.92
19009,-1.567,-0.6141,13.4243,1459,2971.92
19014,-5.952,0.7171,10.2987,1459,2971.92
19019,0.5136,3.0885,8.3067,1479,2971.92
19024,3.6691,3.3842,11.1833,1451,2971.92
19029,-1.3408,-0.4621,13.3573,1459,2971.92
19034,-5.9532,0.419,10.483,1450,2971.92
19039,0.2622,3.0215,8.2049,1479,2972.06
19044,3.6021,3.4716,11.0528,1453,2972.06
19049,-1.148,-0.3005,13.3465,1455,2972.06
19054,-5.8095,0.1891,10.6578,1453,2972.06
19059,0.0419,2.9257,8.1487,1480,2972.21
19064,3.5219,3.5063,10.9547,1461,2972.21
19069,-1.0032,-0.1616,13.2878,1447,2972.21
19074,-5.7964,-0.0611,10.7943,1459,2972.21
19079,-0.2514,2.8742,8.0673,1480,2972.21
19084,3.4058,3.6524,10.8625,1459,2972.21
19089,-0.7781,0.0,13.289,1455,2972.21
19094,-5.8023,-0.2191,10.9894,1455,2972.21
19099,-0.5148,2.7892,8.0194,1491,2972.36
19104,3.2777,3.7074,10.72,1460,2972.36
19109,-0.6871,0.085,13.3058,1452,2972.36
19114,-5.6982,-0.4046,11.1306,1455,2972.36
19119,-0.7949,2.7713,8.0134,1483,2972.36
19124,3.1951,3.7792,10.6482,1453,2972.36
19129,-0.5195,0.2526,13.2016,1451,2972.36
19134,-5.6479,-0.595,11.3318,1455,2972.36
19139,-1.1157,2.6767,7.9116,1484,2972.8
19144,3.055,3.8654,10.5237,1455,2972.8
19149,-0.316,0.4609,13.1873,1452,2972.8
19154,-5.4947,-0.7171,11.5867,1452,2972.8
19159,-1.4186,2.6348,7.9966,1478,2972.95
19164,3.0155,3.8475,10.4327,1461,2972.95
19169,-0.067,0.5806,13.0975,1451,2972.95
19174,-5.3307,-0.8691,11.6502,1460,2972.95
19179,-1.6975,2.636,7.9416,1500,2973.39
19184,2.9221,3.9085,10.3609,1461,2973.39
19189,0.1413,0.6716,13.0903,1451,2973.39
19194,-5.1415,-1.0379,11.8513,1455,2973.39
19199,-2.0195,2.4936,7.9416,1498,2973.24
19204,2.8084,3.8834,10.2316,1453,2973.24
19209,0.4046,0.7614,12.9945,1463,2973.24
19214,-5.0757,-1.1684,11.9375,1455,2973.24
19219,-2.2936,2.484,7.9116,1487,2973.39
19224,2.6983,3.8559,10.1287,1455,2973.39
19229,0.6452,0.8954,12.9586,1455,2973.39
19234,-4.9033,-1.306,12.1135,1453,2973.39
19239,-2.6444,2.381,7.9763,1503,2973.39
19244,2.5522,3.8319,10.0724,1455,2973.39
19249,0.8224,1.0331,12.8856,1455,2973.39
19254,-4.7812,-1.4784,12.1518,1453,2973.39
19259,-2.9688,2.399,7.9978,1507,2973.39
19264,2.4624,3.8822,9.9982,1463,2973.39
19269,1.1025,1.221,12.8628,1453,2973.39
19274,-4.5598,-1.5479,12.3924,1450,2973.39
19279,-3.2501,2.3403,8.1151,1508,2973.54
19284,2.2877,3.8355,9.8342,1463,2973.54
19289,1.3252,1.2725,12.7898,1453,2973.54
19294,-4.4065,-1.5658,12.5229,1451,2973.54
19299,-3.5769,2.2924,8.169,1507,2973.68
19304,2.2565,3.8463,9.7612,1461,2973.68
19309,1.6137,1.4497,12.7108,1455,2973.68
19314,-4.2329,-1.6161,12.5636,1453,2973.68
19319,-3.8642,2.217,8.2636,1509,2973.54
19324,2.2122,3.8188,9.6414,1453,2973.54
19329,1.9022,1.5431,12.6426,1455,2973.54
19334,-4.0211,-1.6269,12.7455,1457,2973.54
19339,-4.1168,2.1883,8.4108,1480,2973.39
19344,2.0937,3.8008,9.5756,1455,2973.39
19349,2.1584,1.7406,12.5767,1453,2973.39
19354,-3.8379,-1.6688,12.8018,1461,2973.39
19359,-4.4137,2.0674,8.4479,1501,2973.68
19364,2.0195,3.7134,9.4619,1459,2973.68
19369,2.3966,1.8268,12.5348,1454,2973.68
19374,-3.65,-1.6735,12.9957,1463,2973.68
19379,-4.6555,2.0698,8.6383,1464,2973.68
19384,1.9417,3.6966,9.3793,1459,2973.68
19389,2.6396,1.992,12.3469,1453,2973.68
19394,-3.4213,-1.6568,13.0496,1461,2973.68
19399,-4.9368,1.9034,8.7376,1508,2973.54
19404,1.822,3.6117,9.3278,1453,2973.54
19409,2.8766,2.1416,12.323,1461,2973.54
19414,-3.2705,-1.5993,13.0999,1459,2973.54
19419,-5.1571,1.8711,8.9004,1486,2973.24
19424,1.7442,3.5781,9.2009,1449,2973.24
19429,3.0406,2.3296,12.1853,1471,2973.24
19434,-3.055,-1.5347,13.1382,1449,2973.24
19439,-5.3546,1.7502,8.9902,1501,2972.95
19444,1.5502,3.4884,9.1459,1451,2972.95
19449,3.2022,2.4636,12.1123,1466,2972.95
19454,-2.873,-1.4521,13.2363,1449,2972.95
19459,-5.5198,1.658,9.1554,1459,2972.95
19464,1.4401,3.4405,8.9711,1471,2973.24
19469,3.3698,2.6205,11.9686,1460,2973.24
19474,-2.6564,-1.2582,13.283,1453,2973.24
19479,-5.6647,1.5251,9.4128,1452,2973.24
19484,1.3791,3.3686,8.9016,1480,2973.09
19489,3.468,2.7234,11.825,1455,2973.09
19494,-2.4289,-1.227,13.2818,1451,2973.09
19499,-5.7437,1.3862,9.5014,1461,2973.09
19504,1.2127,3.3267,8.7795,1477,2972.95
19509,3.5901,2.8814,11.7388,1459,2972.95
19514,-2.1751,-1.0678,13.3321,1451,2972.95
19519,-5.8335,1.2246,9.7145,1466,2972.95
19524,1.1109,3.2777,8.6802,1479,2973.09
19529,3.6559,2.988,11.5472,1459,2973.09
19534,-1.9573,-0.9756,13.3776,1451,2973.09
19539,-5.9149,1.0175,9.8318,1463,2973.09
19544,0.9577,3.2118,8.5688,1479,2973.24
19549,3.7026,3.0837,11.4862,1455,2973.24
19554,-1.7741,-0.8559,13.3848,1452,2973.24
19559,-5.9568,0.8475,10.0616,1463,2973.24
19564,0.7554,3.1328,8.4491,1481,2973.39
19569,3.7134,3.1771,11.327,1453,2973.39
19574,-1.5981,-0.7051,13.3561,1459,2973.39
19579,-6.037,0.6871,10.1742,1455,2973.39
19584,0.5519,3.0754,8.3522,1478,2973.24
19589,3.6536,3.3232,11.2791,1455,2973.24
19594,-1.4724,-0.5531,13.4075,1459,2973.24
19599,-5.9735,0.4872,10.3489,1458,2973.24
19604,0.3448,2.9844,8.2373,1480,2972.95
19609,3.5662,3.3962,11.1354,1455,2972.95
19614,-1.2605,-0.3807,13.4267,1447,2972.95
19619,-5.9711,0.3531,10.5536,1451,2972.95
19624,0.1053,3.0131,8.2217,1479,2972.5
19629,3.5183,3.5542,10.9978,1461,2972.5
19634,-1.1013,-0.2191,13.38,1447,2972.5
19639,-5.8634,0.0874,10.7428,1459,2972.5
19644,-0.1496,2.8838,8.0709,1481,2972.21
19649,3.4369,3.5973,10.902,1463,2972.21
19654,-0.9086,-0.0994,13.3848,1455,2972.21
19659,-5.8191,-0.0922,10.9786,1454,2972.21
19664,-0.3831,2.8527,8.0756,1492,2972.21
19669,3.3914,3.699,10.7356,1455,2972.21
19674,-0.6943,0.0539,13.2651,1455,2972.21
19679,-5.6958,-0.3196,11.0708,1458,2972.21
19684,-0.6524,2.7761,7.9464,1493,2972.06
19689,3.3136,3.7254,10.6315,1453,2972.06
19694,-0.5016,0.2155,13.3082,1449,2972.06
19699,-5.5976,-0.4908,11.2683,1452,2972.06
19704,-0.9122,2.715,7.9476,1485,2972.06
19709,3.1208,3.735,10.5153,1459,2972.06
19714,-0.316,0.3412,13.1873,1449,2972.06
19719,-5.5091,-0.7111,11.4203,1463,2972.06
19724,-1.3024,2.6157,7.9296,1503,2972.06
19729,3.0191,3.8044,10.471,1459,2972.06
19734,-0.1221,0.4501,13.1873,1453,2972.06
19739,-5.4097,-0.8727,11.5724,1464,2972.06
19744,-1.579,2.6013,7.9188,1503,2972.21
19749,2.8431,3.8487,10.3465,1456,2972.21
19754,0.0144,0.6081,13.1154,1455,2972.21
19759,-5.2792,-1.0307,11.7926,1455,2972.21
19764,-1.9465,2.5426,7.938,1509,2972.36
19769,2.7366,3.8942,10.246,1453,2972.36
19774,0.3017,0.747,13.1011,1461,2972.36
19779,-5.1583,-1.1085,11.9279,1455,2972.36
19784,-2.2889,2.4888,7.9416,1507,2972.5
19789,2.6755,3.9157,10.1394,1455,2972.5
19794,0.4513,0.8703,13.0185,1455,2972.5
19799,-4.9273,-1.2917,12.0656,1453,2972.5
19804,-2.5558,2.4337,8.0254,1501,2972.8
19809,2.569,3.899,10.1215,1463,2972.8
19814,0.7709,1.0139,12.9036,1454,2972.8
19819,-4.8231,-1.3707,12.1685,1453,2972.8
19824,-2.8754,2.4002,8.0864,1509,2972.8
19829,2.5175,3.8738,9.9826,1461,2972.8
19834,1.0523,1.142,12.876,1449,2972.8
19839,-4.5717,-1.5227,12.2942,1454,2972.8
19844,-3.1759,2.3547,8.1451,1511,2972.65
19849,2.3858,3.808,9.8474,1464,2972.65
19854,1.3372,1.2749,12.7791,1450,2972.65
19859,-4.3742,-1.5538,12.3972,1456,2972.65
19864,-3.4895,2.2805,8.1822,1511,2972.65
19869,2.2936,3.8044,9.7624,1459,2972.65
19874,1.5766,1.3958,12.7144,1453,2972.65
19879,-4.203,-1.6544,12.5672,1454,2972.65
19884,-3.8068,2.1943,8.2588,1487,2972.5
19889,2.1668,3.7697,9.6618,1459,2972.5
19894,1.8232,1.5107,12.6486,1451,2972.5
19899,-4.0905,-1.6305,12.6845,1460,2972.5
19904,-4.0977,2.1907,8.4025,1519,2972.65
19909,2.0446,3.7242,9.6498,1461,2972.65
19914,2.1189,1.7095,12.6139,1454,2972.65
19919,-3.8882,-1.6819,12.7719,1466,2972.65
19924,-4.3862,2.1093,8.491,1499,2972.95
19929,1.9321,3.6823,9.4834,1455,2972.95
19934,2.3906,1.8471,12.451,1451,2972.95
19939,-3.7134,-1.634,12.9215,1463,2972.95
19944,-4.6651,2.0973,8.6251,1483,2972.8
19949,1.8998,3.7182,9.4224,1455,2972.8
19954,2.5893,2.0674,12.4666,1462,2972.8
19959,-3.4333,-1.6137,13.0245,1461,2972.8
19964,-4.883,2.0243,8.691,1503,2972.8
19969,1.7849,3.638,9.2488,1453,2972.8
19974,2.8706,2.1009,12.2727,1467,2972.8
19979,-3.2154,-1.5838,13.0676,1449,2972.8
19984,-5.1056,1.8842,8.9328,1510,2972.8
19989,1.7573,3.614,9.1614,1454,2972.8
19994,3.1161,2.2841,12.1494,1467,2972.8
19999,-2.9844,-1.5179,13.1334,1451,2972.8
20004,-5.3427,1.7549,9.0321,1455,2972.8
20009,1.6364,3.4704,9.0429,1487,2972.65
20014,3.2801,2.405,12.1039,1461,2972.65
20019,-2.7557,-1.5024,13.2148,1455,2972.65
20024,-5.4923,1.6436,9.2512,1459,2972.65
20029,1.5215,3.4488,8.9795,1483,2972.8
20034,3.4357,2.5774,11.9363,1453,2972.8
20039,-2.5666,-1.3886,13.2495,1455,2972.8
20044,-5.6515,1.4509,9.2895,1460,2972.8
20049,1.4198,3.3363,8.8609,1478,2972.5
20054,3.5183,2.7725,11.8824,1461,2972.5
20059,-2.4289,-1.2546,13.2914,1451,2972.5
20064,-5.7916,1.3862,9.5253,1467,2972.5
20069,1.2306,3.3375,8.7209,1477,2972.21
20074,3.5554,2.9197,11.6574,1459,2972.21
20079,-2.2098,-1.1061,13.3094,1453,2972.21
20084,-5.8622,1.1947,9.7264,1465,2972.21
20089,1.063,3.2573,8.6239,1479,2972.21
20094,3.5961,2.97,11.6274,1453,2972.21
20099,-1.9884,-0.9505,13.3608,1463,2972.21
20104,-5.9484,1.081,9.8857,1461,2972.21
20109,0.9589,3.2202,8.5138,1483,2971.92
20114,3.6799,3.1687,11.4179,1451,2971.92
20119,-1.7909,-0.7661,13.368,1463,2971.92
20124,-5.9424,0.8715,10.1119,1460,2971.92
20129,0.6955,3.134,8.4503,1490,2972.06
20134,3.6775,3.2298,11.309,1455,2972.06
20139,-1.5431,-0.6237,13.3668,1459,2972.06
20144,-5.9328,0.6847,10.258,1455,2972.06
20149,0.5255,3.049,8.3187,1472,2971.92
20154,3.6763,3.3507,11.2288,1454,2971.92
20159,-1.3192,-0.5016,13.3656,1452,2971.92
20164,-5.8849,0.3879,10.3908,1455,2971.92
20169,0.2957,2.9724,8.2313,1472,2972.06
20174,3.5829,3.4117,11.0528,1459,2972.06
20179,-1.1732,-0.3412,13.3261,1453,2972.06
20184,-5.8754,0.2071,10.5441,1455,2972.06
20189,0.0455,2.9149,8.1151,1479,2972.06
20194,3.5386,3.5171,10.975,1461,2972.06
20199,-1.0163,-0.1604,13.3118,1455,2972.06
20204,-5.8802,0.006,10.8038,1451,2972.06
20209,-0.2059,2.8527,8.0804,1493,2972.36
20214,3.3866,3.614,10.829,1461,2972.36
20219,-0.8715,-0.0527,13.2555,1448,2972.36
20224,-5.8035,-0.2035,10.9188,1455,2972.36
20229,-0.4932,2.7916,8.0517,1487,2972.65
20234,3.3028,3.6919,10.8014,1455,2972.65
20239,-0.6871,0.1209,13.3225,1449,2972.65
20244,-5.7197,-0.3436,11.1306,1455,2972.65
20249,-0.7219,2.7821,7.993,1485,2972.36
20254,3.1915,3.7972,10.6255,1461,2972.36
20259,-0.5626,0.2622,13.2328,1451,2972.36
20264,-5.6288,-0.5148,11.2671,1463,2972.36
20269,-1.0379,2.7186,7.9679,1503,2972.06
20274,3.0837,3.8391,10.6039,1461,2972.06
20279,-0.3328,0.3903,13.1741,1451,2972.06
20284,-5.4624,-0.7051,11.4646,1465,2972.06
20289,-1.3396,2.6264,7.8829,1501,2971.92
20294,3.0682,3.8211,10.4064,1461,2971.92
20299,-0.0646,0.51,13.131,1455,2971.92
20304,-5.3127,-0.8906,11.643,1455,2971.92
20309,-1.6233,2.5893,7.9847,1501,2971.62
20314,2.891,3.8487,10.3513,1455,2971.62
20319,0.1257,0.6632,13.0556,1463,2971.62
20324,-5.1595,-1.0965,11.7555,1451,2971.62
20329,-2.0195,2.4804,7.9152,1511,2971.47
20334,2.7473,3.8343,10.2268,1459,2971.47
20339,0.4166,0.7901,13.0041,1459,2971.47
20344,-5.017,-1.2378,11.9507,1455,2971.47
20349,-2.326,2.4445,7.9895,1503,2971.62
20354,2.6564,3.8666,10.0999,1463,2971.62
20359,0.6177,0.9146,12.9323,1453,2971.62
20364,-4.8961,-1.3479,12.0943,1453,2971.62
20369,-2.6959,2.4457,7.9715,1513,2971.62
20374,2.4648,3.8666,10.0628,1463,2971.62
20379,0.8344,1.0511,12.9024,1451,2971.62
20384,-4.7142,-1.4641,12.305,1456,2971.62
20389,-3.0227,2.4062,8.0445,1512,2971.62
20394,2.381,3.9014,9.9826,1463,2971.62
20399,1.1372,1.2198,12.8269,1455,2971.62
20404,-4.5645,-1.5526,12.4211,1451,2971.62
20409,-3.3651,2.3475,8.1451,1515,2971.77
20414,2.2805,3.893,9.8689,1461,2971.77
20419,1.4006,1.3372,12.8078,1452,2971.77
20424,-4.3311,-1.5838,12.5672,1449,2971.77
20429,-3.6356,2.3008,8.2109,1471,2971.62
20434,2.2242,3.8666,9.748,1460,2971.62
20439,1.7334,1.4736,12.645,1455,2971.62
20444,-4.1001,-1.6316,12.6174,1461,2971.62
20449,-3.978,2.2302,8.2983,1513,2972.06
20454,2.1691,3.7792,9.6618,1461,2972.06
20459,2.0734,1.6257,12.6031,1452,2972.06
20464,-3.9157,-1.6676,12.736,1461,2972.06
20469,-4.2748,2.1308,8.3977,1496,2971.77
20474,2.0913,3.7146,9.5648,1455,2971.77
20479,2.3535,1.7825,12.4834,1459,2971.77
20484,-3.7074,-1.7286,12.8617,1459,2971.77
20489,-4.5873,2.0315,8.5293,1503,2971.47
20494,1.9345,3.6476,9.4535,1453,2971.47
20499,2.5271,1.9345,12.3972,1464,2971.47
20504,-3.4967,-1.6771,12.9706,1459,2971.47
20509,-4.7908,1.9884,8.6945,1509,2971.18
20514,1.8256,3.632,9.3673,1455,2971.18
20519,2.7785,2.1129,12.3397,1459,2971.18
20524,-3.3112,-1.6257,13.1071,1451,2971.18
20529,-5.0709,1.8603,8.8597,1477,2971.18
20534,1.7011,3.5733,9.2237,1453,2971.18
20539,2.9317,2.2529,12.1805,1465,2971.18
20544,-3.0682,-1.5191,13.1178,1453,2971.18
20549,-5.2756,1.8136,9.0597,1459,2971.18
20554,1.5622,3.5135,9.1758,1482,2971.18
20559,3.1615,2.4684,12.0967,1455,2971.18
20564,-2.8491,-1.4473,13.2112,1453,2971.18
20569,-5.4899,1.6951,9.1913,1455,2971.18
20574,1.5311,3.48,8.9747,1485,2971.33
20579,3.3734,2.5726,11.9375,1458,2971.33
20584,-2.5929,-1.3384,13.2268,1459,2971.33
20589,-5.5809,1.5526,9.3841,1465,2971.33
20594,1.3743,3.4058,8.928,1478,2971.33
20599,3.5446,2.7246,11.8561,1460,2971.33
20604,-2.3583,-1.2438,13.283,1452,2971.33
20609,-5.7557,1.3491,9.4966,1465,2971.33
20614,1.245,3.3543,8.746,1479,2971.77
20619,3.6296,2.8706,11.6789,1459,2971.77
20624,-2.1835,-1.0666,13.3154,1453,2971.77
20629,-5.8227,1.2055,9.7121,1463,2971.77
20634,1.0965,3.2741,8.6646,1485,2972.06
20639,3.6619,3.0143,11.6478,1453,2972.06
20644,-1.9225,-0.9697,13.2639,1459,2972.06
20649,-5.873,0.9864,9.8306,1461,2972.06
20654,0.9002,3.1675,8.5269,1481,2972.21
20659,3.6512,3.0861,11.461,1453,2972.21
20664,-1.7418,-0.8176,13.3956,1461,2972.21
20669,-5.9723,0.8428,10.1035,1452,2972.21
20674,0.7446,3.1424,8.4455,1481,2972.06
20679,3.6536,3.2441,11.3174,1451,2972.06
20684,-1.6137,-0.6752,13.3991,1459,2972.06
20689,-5.9723,0.644,10.2244,1459,2972.06
20694,0.504,3.0718,8.3594,1484,2971.92
20699,3.5973,3.3531,11.2504,1460,2971.92
20704,-1.421,-0.4848,13.4051,1451,2971.92
20709,-5.9759,0.4465,10.4339,1465,2971.92
20714,0.2981,3.0335,8.278,1481,2971.92
20719,3.6045,3.486,11.0684,1465,2971.92
20724,-1.2019,-0.3148,13.3608,1455,2971.92
20729,-5.8838,0.231,10.5896,1455,2971.92
20734,0.073,2.8934,8.1738,1491,2971.92
20739,3.5027,3.5434,10.999,1461,2971.92
20744,-1.0642,-0.1748,13.3094,1453,2971.92
20749,-5.8215,0.0658,10.7703,1455,2971.92
20754,-0.1856,2.8898,8.0888,1493,2971.62
20759,3.5087,3.6392,10.829,1454,2971.62
20764,-0.7973,-0.0227,13.2782,1451,2971.62
20769,-5.7401,-0.1951,10.9367,1460,2971.62
20774,-0.4573,2.7533,8.023,1485,2971.62
20779,3.3662,3.6296,10.75,1461,2971.62
20784,-0.6105,0.0838,13.2579,1451,2971.62
20789,-5.6767,-0.3879,11.133,1459,2971.62
20794,-0.747,2.7414,8.005,1487,2971.62
20799,3.207,3.7421,10.6267,1461,2971.62
20804,-0.4477,0.2083,13.2232,1453,2971.62
20809,-5.5438,-0.5914,11.3198,1465,2971.62
20814,-1.081,2.7054,7.9727,1480,2971.62
20819,3.0466,3.7745,10.5572,1461,2971.62
20824,-0.2921,0.3771,13.1621,1452,2971.62
20829,-5.4743,-0.7697,11.4958,1462,2971.62
20834,-1.3815,2.6492,7.9404,1513,2971.47
20839,2.9449,3.881,10.4351,1459,2971.47
20844,-0.0874,0.595,13.1298,1462,2971.47
20849,-5.3451,-0.9026,11.7041,1455,2971.47
20854,-1.7382,2.569,7.9559,1510,2971.47
20859,2.8108,3.881,10.3238,1459,2971.47
20864,0.1329,0.6512,13.058,1459,2971.47
20869,-5.2134,-1.0546,11.8573,1451,2971.47
20874,-2.0183,2.5738,7.9368,1503,2971.33
20879,2.7294,3.948,10.2244,1459,2971.33
20884,0.3328,0.8727,12.9826,1459,2971.33
20889,-5.047,-1.1983,11.9914,1455,2971.33
20894,-2.3786,2.5031,7.9895,1509,2971.62
20899,2.6719,3.9049,10.1011,1464,2971.62
20904,0.6213,0.9325,12.985,1453,2971.62
20909,-4.8554,-1.3072,12.1829,1459,2971.62
20914,-2.6959,2.4157,8.084,1513,2971.62
20919,2.6348,3.8451,10.0461,1461,2971.62
20924,0.8966,1.0882,12.8198,1453,2971.62
20929,-4.6579,-1.4473,12.2559,1455,2971.62
20934,-3.0071,2.3583,8.0732,1513,2971.47
20939,2.4553,3.7996,9.8809,1460,2971.47
20944,1.1624,1.2103,12.803,1452,2971.47
20949,-4.5167,-1.5455,12.4235,1459,2971.47
20954,-3.3722,2.308,8.1403,1509,2971.47
20959,2.3104,3.8188,9.8521,1462,2971.47
20964,1.3934,1.3827,12.7479,1459,2971.47
20969,-4.3155,-1.6352,12.5121,1456,2971.47
20974,-3.711,2.2541,8.2097,1484,2971.18
20979,2.1883,3.7529,9.7025,1461,2971.18
20984,1.6999,1.5071,12.6593,1455,2971.18
20989,-4.1192,-1.6245,12.633,1464,2971.18
20994,-4.0151,2.223,8.3905,1501,2971.92
20999,2.0435,3.8008,9.6594,1460,2971.92
21004,1.974,1.6879,12.5923,1454,2971.92
21009,-3.9073,-1.6532,12.7024,1463,2971.92
21014,-4.3335,2.1811,8.3917,1503,2972.5
21019,1.98,3.7182,9.5361,1453,2972.5
21024,2.2924,1.8076,12.5181,1465,2972.5
21029,-3.711,-1.6364,12.9227,1461,2972.5
21034,-4.6364,2.0985,8.5593,1491,2972.06
21039,1.8986,3.7074,9.4164,1451,2972.06
21044,2.6037,1.9824,12.3397,1465,2972.06
21049,-3.4477,-1.64,12.9071,1449,2972.06
21054,-4.8387,1.9704,8.7317,1491,2971.92
21059,1.8352,3.6404,9.341,1455,2971.92
21064,2.8742,2.0842,12.317,1465,2971.92
21069,-3.2525,-1.5874,13.0173,1453,2971.92
21074,-5.0697,1.8962,8.8573,1455,2971.92
21079,1.798,3.5841,9.1925,1477,2972.8
21084,3.0897,2.2398,12.2643,1459,2972.8
21089,-3.0323,-1.5622,13.0999,1459,2972.8
21094,-5.272,1.7502,9.0022,1455,2972.8
21099,1.6568,3.5099,9.1219,1479,2973.09
21104,3.2274,2.3846,12.0883,1455,2973.09
21109,-2.8323,-1.4772,13.1573,1451,2973.09
21114,-5.4612,1.6436,9.159,1463,2973.09
21119,1.5275,3.4309,9.0237,1479,2973.09
21124,3.3914,2.5558,11.9507,1459,2973.09
21129,-2.6564,-1.4198,13.2292,1453,2973.09
21134,-5.6479,1.5299,9.3649,1469,2973.09
21139,1.4138,3.4034,8.8585,1481,2973.68
21144,3.4692,2.7258,11.8561,1455,2973.68
21149,-2.4744,-1.2737,13.2603,1451,2973.68
21154,-5.7341,1.4341,9.4535,1465,2973.68
21159,1.2797,3.3303,8.746,1479,2973.24
21164,3.5626,2.897,11.7831,1459,2973.24
21169,-2.2494,-1.1779,13.386,1459,2973.24
21174,-5.855,1.2725,9.6965,1467,2973.24
21179,1.1528,3.2537,8.6526,1483,2972.8
21184,3.638,2.964,11.6023,1455,2972.8
21189,-2.0722,-1.0247,13.3429,1455,2972.8
21194,-5.9053,1.0953,9.8438,1459,2972.8
21199,0.9996,3.2561,8.5724,1483,2972.5
21204,3.6296,3.1161,11.5149,1453,2972.5
21209,-1.8423,-0.8499,13.3836,1453,2972.5
21214,-5.9065,0.8894,10.0461,1455,2972.5
21219,0.7937,3.1256,8.3953,1479,2972.06
21224,3.6883,3.1699,11.309,1455,2972.06
21229,-1.6245,-0.6812,13.3549,1449,2972.06
21234,-5.9328,0.7123,10.2376,1453,2972.06
21239,0.6273,3.1244,8.3653,1481,2972.06
21244,3.6739,3.3543,11.248,1462,2972.06
21249,-1.4198,-0.5351,13.3812,1448,2972.06
21254,-5.9316,0.4932,10.319,1460,2972.06
21259,0.4106,3.0011,8.2193,1485,2972.65
21264,3.6236,3.4429,11.1247,1461,2972.65
21269,-1.2414,-0.3747,13.3896,1454,2972.65
21274,-5.928,0.3364,10.6015,1451,2972.65
21279,0.152,2.9712,8.2277,1495,2972.95
21284,3.5039,3.5458,11.0109,1459,2972.95
21289,-1.087,-0.267,13.3584,1454,2972.95
21294,-5.9472,0.0838,10.6865,1455,2972.95
21299,-0.073,2.8742,8.0924,1494,2973.24
21304,3.4848,3.6021,10.9092,1456,2973.24
21309,-0.9325,-0.091,13.3261,1453,2973.24
21314,-5.8909,-0.0479,10.9283,1459,2973.24
21319,-0.3136,2.8419,8.0936,1503,2973.39
21324,3.3698,3.6931,10.7811,1461,2973.39
21329,-0.7985,0.0718,13.2459,1453,2973.39
21334,-5.7652,-0.2334,11.0504,1463,2973.39
21339,-0.6249,2.7665,8.0732,1502,2973.54
21344,3.2597,3.7038,10.6662,1459,2973.54
21349,-0.5962,0.1592,13.3225,1452,2973.54
21354,-5.6862,-0.4118,11.218,1464,2973.54
21359,-0.8416,2.7713,7.9775,1501,2973.24
21364,3.1963,3.814,10.6015,1459,2973.24
21369,-0.4381,0.3184,13.2148,1453,2973.24
21374,-5.539,-0.6009,11.388,1464,2973.24
21379,-1.1708,2.6671,7.9571,1511,2973.24
21384,3.0861,3.802,10.489,1453,2973.24
21389,-0.2119,0.3962,13.1921,1460,2973.24
21394,-5.3977,-0.814,11.5772,1454,2973.24
21399,-1.4246,2.6552,7.9224,1509,2973.24
21404,2.988,3.8463,10.3525,1455,2973.24
21409,-0.0036,-0.6165,-0.6165,1459,2973.24
21414,-5.3008,-0.9589,11.6909,1455,2973.24
21419,-1.7466,2.5917,8.0098,1503,2973.24
21424,2.8192,3.8319,10.3609,1460,2973.24
21429,0.1927,0.7003,13.0352,1459,2973.24
21434,-5.1882,-1.1372,11.7914,1455,2973.24
21439,-2.0279,2.5319,7.9057,1511,2973.09
21444,2.745,3.9073,10.1885,1463,2973.09
21449,0.4082,0.7925,13.0257,1452,2973.09
21454,-5.0889,-1.257,12.0129,1455,2973.09
21459,-2.4146,2.4912,8.0134,1507,2973.24
21464,2.5845,3.8978,10.1047,1465,2973.24
21469,0.6548,0.8918,12.9323,1459,2973.24
21474,-4.8698,-1.3779,12.1218,1455,2973.24
21479,-2.7162,2.4373,7.9823,1509,2973.24
21484,2.5007,3.9157,10.0006,1463,2973.24
21489,0.9026,1.1085,12.9323,1449,2973.24
21494,-4.7477,-1.4437,12.2547,1454,2973.24
21499,-3.0598,2.3379,8.0625,1481,2972.95
21504,2.4098,3.8439,9.9192,1455,2972.95
21509,1.1193,1.1923,12.8473,1455,2972.95
21514,-4.5478,-1.5263,12.4235,1455,2972.95
21519,-3.3782,2.3379,8.1666,1512,2972.95
21524,2.3463,3.8978,9.8222,1461,2972.95
21529,1.391,1.4281,12.8198,1451,2972.95
21534,-4.3323,-1.5874,12.536,1463,2972.95
21539,-3.6416,2.2661,8.2684,1503,2972.65
21544,2.2853,3.8618,9.6929,1456,2972.65
21549,1.7286,1.4557,12.6821,1453,2972.65
21554,-4.1288,-1.6424,12.6174,1463,2972.65
21559,-3.972,2.235,8.3414,1497,2972.36
21564,2.1608,3.7996,9.6355,1455,2972.36
21569,1.9812,1.6185,12.6282,1459,2972.36
21574,-3.9193,-1.6556,12.7671,1453,2972.36
21579,-4.2605,2.0794,8.3761,1499,2973.09
21584,2.053,3.6859,9.5241,1453,2973.09
21589,2.2553,1.7047,12.5528,1466,2973.09
21594,-3.7649,-1.6963,12.8712,1453,2973.09
21599,-4.5346,2.0686,8.5377,1483,2972.06
21604,1.907,3.6727,9.4403,1451,2972.06
21609,2.563,1.9345,12.4163,1465,2972.06
21614,-3.5434,-1.6017,12.9311,1448,2972.06
21619,-4.7752,2.0063,8.655,2475,2970.15
21624,1.7921,3.5865,9.3314,1460,2970.15
21629,2.7629,2.0818,12.3206,1461,2970.15
21634,-3.3423,-1.6173,13.0496,1451,2970.15
21639,-5.0601,1.9285,8.8633,1461,2970.15
21644,1.7083,3.547,9.2117,1483,2972.65
21649,2.9939,2.2314,12.2224,1453,2972.65
21654,-3.0969,-1.5383,13.064,1453,2972.65
21659,-5.2684,1.804,8.934,1462,2972.65
21664,1.6077,3.5039,9.1207,1478,2970.59
21669,3.1951,2.4157,12.1135,1461,2970.59
21674,-2.8395,-1.4174,13.1825,1448,2970.59
21679,-5.4708,1.6963,9.1459,1467,2970.59
21684,1.5227,3.5003,9.0369,1483,2970.3
21689,3.3698,2.5821,11.9722,1461,2970.3
21694,-2.5917,-1.3204,13.1741,1453,2970.3
21699,-5.6395,1.5407,9.3039,1467,2970.3
21704,1.4234,3.4105,8.8526,1483,2970.15
21709,3.6272,3.3651,11.1905,1452,2970.15
21714,-1.2821,-0.4489,13.3417,1453,2970.15
21719,-5.9268,0.3472,10.5129,1463,2970.15
21724,1.239,3.2848,8.7604,1483,2969.86
21729,3.5805,3.4632,11.0468,1453,2969.86
21734,-1.1121,-0.2993,13.2806,1454,2969.86
21739,-5.8814,0.1293,10.7224,1455,2969.86
21744,-0.1257,2.8766,8.2121,1485,2969.56
21749,3.4524,3.5398,10.8972,1455,2969.56
21754,-0.9278,-0.0838,13.2687,1455,2969.56
21759,-5.8371,-0.0599,10.896,1456,2969.56
21764,-0.3388,2.8455,8.0469,1479,2969.42
21769,3.3483,3.6978,10.8206,1456,2969.42
21774,-0.7757,0.0778,13.2567,1451,2969.42
21779,-5.7006,-0.2682,11.1486,1458,2969.42
21784,-0.6812,2.7701,8.023,1484,2969.27
21789,3.1843,3.784,10.6398,1463,2969.27
21794,-0.5938,0.2442,13.1909,1455,2969.27
21799,-5.6024,-0.4848,11.2803,1455,2969.27
21804,-0.9984,2.7473,8.029,1492,2969.12
21809,3.1424,3.8056,10.5477,1463,2969.12
21814,-0.3352,0.3663,13.2016,1460,2969.12
21819,-5.4277,-0.6895,11.4874,1455,2969.12
21824,-1.3324,2.6276,7.9667,1490,2969.12
21829,3.0071,3.8379,10.4291,1453,2969.12
21834,-0.1041,0.4896,13.0807,1455,2969.12
21839,-5.2409,-0.9074,11.6274,1459,2969.12
21844,-1.6604,2.5618,7.92,1485,2969.27
21849,2.8695,3.8403,10.3011,1453,2969.27
21854,0.164,0.6656,13.0532,1453,2969.27
21859,-5.1511,-1.1325,11.8621,1459,2969.27
21864,-2.0506,2.4792,7.9344,1503,2969.27
21869,2.721,3.8259,10.2376,1463,2969.27
21874,0.3926,0.8152,12.979,1455,2969.27
21879,-4.9895,-1.2965,11.9255,1463,2969.27
21884,-2.411,2.4756,7.9763,1503,2969.56
21889,2.5343,3.8822,10.1107,1459,2969.56
21894,0.6261,0.9625,12.9634,1455,2969.56
21899,-4.8231,-1.3862,12.1721,1456,2969.56
21904,-2.824,2.3906,8.0218,1513,2969.86
21909,2.4409,3.8798,10.0568,1459,2969.86
21914,0.9577,1.1061,12.8724,1451,2969.86
21919,-4.7118,-1.4401,12.299,1452,2969.86
21924,-3.1496,2.3858,8.1499,1514,2970.15
21929,2.3296,3.9085,9.9479,1455,2970.15
21934,1.1636,1.2342,12.797,1459,2970.15
21939,-4.4017,-1.5119,12.451,1451,2970.15
21944,-3.4967,2.3116,8.1965,1510,2970.3
21949,2.2757,3.8415,9.8653,1465,2970.3
21954,1.5048,1.4174,12.6701,1455,2970.3
21959,-4.197,-1.6041,12.6067,1454,2970.3
21964,-3.8247,2.2972,8.266,1514,2970.44
21969,2.1727,3.8607,9.7085,1471,2970.44
21974,1.9058,1.5754,12.5612,1453,2970.44
21979,-3.9696,-1.6568,12.6546,1456,2970.44
21984,-4.1312,2.1703,8.3426,1515,2970.74
21989,2.1261,3.7242,9.6283,1461,2970.74
21994,2.1979,1.6843,12.5049,1455,2970.74
21999,-3.7936,-1.6903,12.8341,1455,2970.74
22004,-4.4101,2.1033,8.5377,1508,2970.59
22009,1.9968,3.6811,9.4655,1455,2970.59
22014,2.4828,1.8806,12.3625,1455,2970.59
22019,-3.5494,-1.6891,12.8533,1455,2970.59
22024,-4.719,1.9573,8.6718,1483,2970.59
22029,1.828,3.6105,9.335,1463,2970.59
22034,2.6624,1.9848,12.3553,1453,2970.59
22039,-3.4249,-1.6939,12.9718,1464,2970.59
22044,-4.9704,1.9225,8.7676,1483,2970.44
22049,1.7131,3.5314,9.2476,1464,2970.44
22054,2.8395,2.217,12.2056,1461,2970.44
22059,-3.2034,-1.5886,13.0532,1463,2970.44
22064,-5.2289,1.8387,8.9998,1471,2970.15
22069,1.6305,3.4895,9.1698,1455,2970.15
22074,3.0754,2.3822,12.123,1461,2970.15
22079,-2.9628,-1.4796,13.1609,1461,2970.15
22084,-5.4265,1.7274,9.098,1515,2970.59
22089,1.5383,3.5063,9.0082,1453,2970.59
22094,3.2848,2.5809,12.0261,1465,2970.59
22099,-2.7066,-1.3288,13.2543,1453,2970.59
22104,-5.5677,1.5838,9.3027,1515,2970.3
22109,1.4413,3.4189,8.934,1453,2970.3
22114,3.4848,2.6899,11.8693,1467,2970.3
22119,-2.3906,-1.2163,13.2735,1449,2970.3
22124,-5.6563,1.4329,9.4128,1455,2970.3
22129,1.318,3.3794,8.7903,1481,2970.3
22134,3.6248,2.8659,11.7483,1463,2970.3
22139,-2.15,-1.1049,13.3273,1453,2970.3
22144,-5.8227,1.2007,9.6331,1454,2970.3
22149,1.1193,3.237,8.6407,1483,2970.3
22154,3.6392,2.9485,11.6538,1459,2970.3
22159,-1.9453,-0.9984,13.3034,1449,2970.3
22164,-5.8622,1.0415,9.8007,1459,2970.3
22169,0.917,3.2453,8.5916,1479,2970.15
22174,3.6452,3.0933,11.4898,1461,2970.15
22179,-1.7549,-0.844,13.3417,1453,2970.15
22184,-5.9508,0.8272,10.0006,1469,2970.15
22189,0.7147,3.1113,8.4503,1481,2970.3
22194,3.6081,3.2058,11.3964,1461,2970.3
22199,-1.658,-0.6967,13.3405,1450,2970.3
22204,-5.9592,0.6644,10.1945,1467,2970.3
22209,0.5124,3.0969,8.3773,1484,2970.3
22214,3.5542,3.3531,11.2575,1456,2970.3
22219,-1.3946,-0.5016,13.3668,1459,2970.3
22224,-5.958,0.4597,10.4519,1465,2970.3
22229,0.2777,3.0179,8.2863,1483,2970.3
22234,3.5087,3.4872,11.0468,1453,2970.3
22239,-1.2438,-0.2753,13.3453,1461,2970.3
22244,-5.928,0.2658,10.6099,1454,2970.3
22249,0.0072,2.9592,8.1834,1483,2970.3
22254,3.5003,3.5698,10.9475,1461,2970.3
22259,-1.002,-0.146,13.3237,1453,2970.3
22264,-5.8035,0.018,10.805,1453,2970.3
22269,-0.1891,2.8467,8.0625,1479,2970.44
22274,3.4405,3.6117,10.7607,1459,2970.44
22279,-0.7745,0.0024,13.3034,1448,2970.44
22284,-5.7221,-0.231,11.0349,1461,2970.44
22289,-0.5351,2.806,8.0721,1479,2970.59
22294,3.3279,3.6619,10.6769,1463,2970.59
22299,-0.6105,0.152,13.2519,1453,2970.59
22304,-5.6371,-0.4585,11.139,1456,2970.59
22309,-0.8416,2.7174,7.9476,1491,2970.59
22314,3.1663,3.6835,10.5692,1461,2970.59
22319,-0.4022,0.2729,13.2004,1455,2970.59
22324,-5.5522,-0.6428,11.3617,1455,2970.59
22329,-1.1648,2.6552,7.9523,1493,2970.74
22334,3.0418,3.7661,10.4914,1455,2970.74
22339,-0.2478,0.4298,13.2004,1455,2970.74
22344,-5.4708,-0.82,11.5293,1460,2970.74
22349,-1.4952,2.6205,7.9859,1491,2970.44
22354,2.8695,3.8475,10.4256,1461,2970.44
22359,-0.0778,0.5555,13.1466,1451,2970.44
22364,-5.3044,-0.9565,11.7388,1459,2970.44
22369,-1.8387,2.6061,7.9332,1496,2970.3
22374,2.7725,3.9468,10.2759,1459,2970.3
22379,0.1664,0.7458,13.0903,1453,2970.3
22384,-5.1308,-1.081,11.8585,1465,2970.3
22389,-2.162,2.5247,7.9452,1507,2970.44
22394,2.7054,3.9217,10.2556,1461,2970.44
22399,0.4046,0.8475,13.0209,1454,2970.44
22404,-4.8902,-1.239,12.0632,1461,2970.44
22409,-2.478,2.4409,7.9787,1511,2970.15
22414,2.6013,3.9313,10.1191,1455,2970.15
22419,0.759,1.0558,12.9227,1459,2970.15
22424,-4.7082,-1.3958,12.1685,1451,2970.15
22429,-2.8575,2.3846,8.0673,1507,2970.15
22434,2.496,3.8642,9.9898,1459,2970.15
22439,1.075,1.136,12.7886,1461,2970.15
22444,-4.5262,-1.4988,12.2631,1453,2970.15
22449,-3.1843,2.3248,8.0685,1507,2970.3
22454,2.3727,3.8319,9.9096,1463,2970.3
22459,1.3635,1.324,12.7599,1455,2970.3
22464,-4.3299,-1.6197,12.4654,1455,2970.3
22469,-3.5147,2.2326,8.2456,1500,2970.15
22474,2.2122,3.7637,9.827,1464,2970.15
22479,1.6149,1.4138,12.6581,1455,2970.15
22484,-4.1515,-1.652,12.5564,1455,2970.15
22489,-3.9193,2.2374,8.3234,1510,2970.3
22494,2.1141,3.7457,9.6965,1462,2970.3
22499,1.8902,1.6233,12.6067,1454,2970.3
22504,-3.9971,-1.6819,12.6869,1453,2970.3
22509,-4.2294,2.1775,8.3941,1513,2970.74
22514,1.9956,3.7409,9.5828,1455,2970.74
22519,2.1895,1.8016,12.5025,1455,2970.74
22524,-3.7589,-1.6664,12.8724,1455,2970.74
22529,-4.5825,2.132,8.5856,1483,2970.44
22534,1.8579,3.7002,9.5193,1463,2970.44
22539,2.5007,1.968,12.4618,1455,2970.44
22544,-3.5171,-1.6328,12.9047,1463,2970.44
22549,-4.792,2.0111,8.6215,1485,2970.3
22554,1.8806,3.6919,9.3374,1463,2970.3
22559,2.8132,2.1009,12.3182,1455,2970.3
22564,-3.3232,-1.5694,13.0245,1464,2970.3
22569,-5.0625,1.9585,8.8394,1492,2970.44
22574,1.7777,3.6188,9.2129,1459,2970.44
22579,3.0574,2.2505,12.1757,1459,2970.44
22584,-2.9975,-1.5275,13.0915,1460,2970.44
22589,-5.2708,1.743,9.0237,1509,2970.74
22594,1.658,3.5326,9.1063,1452,2970.74
22599,3.2094,2.4193,12.0847,1467,2970.74
22604,-2.8407,-1.4892,13.1502,1451,2970.74
22609,-5.4265,1.6652,9.1746,1501,2970.3
22614,1.5287,3.4716,9.0225,1455,2970.3
22619,3.3591,2.5379,12.0033,1465,2970.3
22624,-2.63,-1.3862,13.2304,1449,2970.3
22629,-5.6024,1.4437,9.3063,1460,2970.3
22634,1.3731,3.3243,8.855,1485,2970.0
22639,3.5003,2.7282,11.8932,1463,2970.0
22644,-2.4181,-1.2522,13.2555,1455,2970.0
22649,-5.776,1.3575,9.5217,1455,2970.0
22654,1.2043,3.3423,8.752,1481,2970.0
22659,3.5446,2.8886,11.7076,1453,2970.0
22664,-2.2194,-1.0798,13.2998,1451,2970.0
22669,-5.8814,1.2103,9.7288,1464,2970.0
22674,1.0319,3.2777,8.6347,1479,2970.0
22679,3.5937,3.0275,11.6095,1462,2970.0
22684,-1.9752,-0.9577,13.3225,1452,2970.0
22689,-5.8897,1.0534,9.9204,1467,2970.0
22694,0.8775,3.231,8.4719,1481,2970.15
22699,3.6775,3.2406,11.4634,1459,2970.15
22704,-1.7047,-0.7673,13.362,1453,2970.15
22709,-5.8694,0.8033,10.1335,1464,2970.15
22714,0.6788,3.1244,8.3785,1483,2970.44
22719,3.6595,3.2729,11.3581,1455,2970.44
22724,-1.4533,-0.6153,13.3285,1459,2970.44
22729,-5.9041,0.571,10.2927,1464,2970.44
22734,0.48,3.0634,8.3246,1482,2970.89
22739,3.6691,3.3986,11.1737,1453,2970.89
22744,-1.2917,-0.4334,13.3213,1459,2970.89
22749,-5.8742,0.3508,10.471,1451,2970.89
22754,0.2526,2.8838,8.2133,1487,2971.03
22759,3.5961,3.4321,10.9882,1453,2971.03
22764,-1.1289,-0.3017,13.3082,1459,2971.03
22769,-5.9005,0.1401,10.6662,1455,2971.03
22774,-0.0826,2.8491,8.1116,1483,2970.89
22779,3.4656,3.5578,10.9415,1459,2970.89
22784,-0.9242,-0.146,13.2842,1453,2970.89
22789,-5.8395,-0.0539,10.8781,1454,2970.89
22794,-0.2969,2.818,8.0816,1483,2971.47
22799,3.3267,3.6416,10.8074,1464,2971.47
22804,-0.7973,0.0012,13.2866,1455,2971.47
22809,-5.7604,-0.2574,11.0887,1460,2971.47
22814,-0.6177,2.7809,8.1175,1484,2971.03
22819,3.2082,3.7397,10.7607,1461,2971.03
22824,-0.6428,0.2227,13.2579,1455,2971.03
22829,-5.6623,-0.4334,11.2719,1453,2971.03
22834,-0.9194,2.739,8.0433,1493,2970.89
22839,3.1328,3.8068,10.5752,1455,2970.89
22844,-0.4417,0.3591,13.1298,1451,2970.89
22849,-5.5222,-0.6045,11.4311,1459,2970.89
22854,-1.2354,2.7629,7.9715,1490,2971.03
22859,3.1005,3.8654,10.4794,1455,2971.03
22864,-0.2394,0.4908,13.1059,1448,2971.03
22869,-5.3594,-0.7853,11.5748,1453,2971.03
22874,-1.47,2.5738,7.9212,1483,2970.89
22879,2.976,3.8116,10.3537,1461,2970.89
22884,0.0227,0.5698,13.1083,1452,2970.89
22889,-5.193,-0.9744,11.7519,1463,2970.89
22894,-1.8375,2.563,7.9224,1493,2970.89
22899,2.8503,3.9014,10.2963,1460,2970.89
22904,0.2646,0.7889,13.0269,1453,2970.89
22909,-5.0554,-1.1516,11.9052,1463,2970.89
22914,-2.1775,2.4493,7.9368,1511,2970.89
22919,2.66,3.8188,10.1813,1459,2970.89
22924,0.4884,0.8655,12.9873,1461,2970.89
22929,-4.883,-1.3168,12.0129,1453,2970.89
22934,-2.551,2.4708,7.9895,1509,2970.59
22939,2.5139,3.8822,10.0987,1459,2970.59
22944,0.7506,1.0199,12.8545,1455,2970.59
22949,-4.7393,-1.409,12.1697,1453,2970.59
22954,-2.9341,2.375,7.9906,1509,2970.44
22959,2.3595,3.8511,10.0365,1461,2970.44
22964,1.0247,1.1325,12.8652,1463,2970.44
22969,-4.5657,-1.494,12.3804,1461,2970.44
22974,-3.31,2.3727,8.0996,1511,2970.44
22979,2.3164,3.8786,9.8653,1461,2970.44
22984,1.33,1.33,12.7324,1453,2970.44
22989,-4.3347,-1.5933,12.4534,1455,2970.44
22994,-3.6021,2.2865,8.2145,1511,2970.3
22999,2.2422,3.8666,9.8402,1461,2970.3
23004,1.6556,1.4581,12.6558,1455,2970.3
23009,-4.124,-1.652,12.5743,1455,2970.3
23014,-3.9073,2.2458,8.2516,1509,2970.89
23019,2.1608,3.8547,9.6941,1459,2970.89
23024,1.968,1.6448,12.5791,1453,2970.89
23029,-3.9217,-1.652,12.7647,1452,2970.89
23034,-4.2258,2.1608,8.4192,1484,2970.59
23039,2.0626,3.7373,9.6379,1462,2970.59
23044,2.2817,1.7538,12.5001,1451,2970.59
23049,-3.6667,-1.7286,12.8054,1461,2970.59
23054,-4.5023,2.0602,8.4994,1503,2971.03
23059,1.9872,3.6524,9.4403,1455,2971.03
23064,2.551,1.901,12.402,1455,2971.03
23069,-3.4848,-1.6819,12.9095,1465,2971.03
23074,-4.8207,1.9345,8.7113,1501,2970.3
23079,1.8519,3.6248,9.3889,1459,2970.3
23084,2.7749,2.0782,12.2858,1455,2970.3
23089,-3.3303,-1.6137,13.0328,1455,2970.3
23094,-5.0853,1.8747,8.8693,1507,2970.89
23099,1.7047,3.5554,9.1626,1455,2970.89
23104,2.9999,2.2517,12.1338,1471,2970.89
23109,-3.1005,-1.5646,13.1298,1455,2970.89
23114,-5.3044,1.7861,9.098,1512,2970.89
23119,1.5886,3.4788,9.1363,1453,2970.89
23124,3.1831,2.4349,12.0536,1465,2970.89
23129,-2.8706,-1.4784,13.1478,1451,2970.89
23134,-5.4803,1.6664,9.1782,1483,2970.59
23139,1.4653,3.4752,8.9842,1453,2970.59
23144,3.3591,2.5821,12.0093,1463,2970.59
23149,-2.6372,-1.3036,13.2974,1455,2970.59
23154,-5.6336,1.5514,9.3673,1451,2970.59
23159,1.391,3.3962,8.8633,1485,2970.3
23164,3.4848,2.7258,11.8082,1469,2970.3
23169,-2.3655,-1.1983,13.2782,1453,2970.3
23174,-5.7365,1.3719,9.5445,1459,2970.3
23179,1.2306,3.3315,8.7364,1483,2970.59
23184,3.571,2.8754,11.7244,1461,2970.59
23189,-2.0925,-1.0104,13.3393,1451,2970.59
23194,-5.8275,1.1791,9.7432,1468,2970.59
23199,1.0858,3.2262,8.6227,1484,2970.44
23204,3.6416,3.0059,11.5209,1459,2970.44
23209,-1.9154,-0.9014,13.3225,1453,2970.44
23214,-5.8885,0.9529,9.9276,1469,2970.44
23219,0.8703,3.1675,8.5186,1480,2970.44
23224,3.65,3.1424,11.4515,1453,2970.44
23229,-1.6891,-0.7805,13.3716,1455,2970.44
23234,-5.9185,0.7949,10.1035,1461,2970.44
23239,0.6476,3.0538,8.4432,1483,2970.44
23244,3.6224,3.2453,11.3449,1455,2970.44
23249,-1.5407,-0.6237,13.3429,1459,2970.44
23254,-5.9783,0.5938,10.3118,1459,2970.44
23259,0.4525,3.0227,8.3342,1481,2970.74
23264,3.5674,3.3998,11.2025,1454,2970.74
23269,-1.3551,-0.4322,13.3106,1459,2970.74
23274,-5.9556,0.3998,10.4423,1453,2970.74
23279,0.1832,2.9975,8.2037,1483,2971.18
23284,3.4907,3.5255,11.0768,1461,2971.18
23289,-1.1911,-0.2586,13.3142,1455,2971.18
23294,-5.8849,0.1951,10.6769,1449,2971.18
23299,-0.0682,2.9676,8.1439,1485,2971.62
23304,3.4644,3.6069,10.8793,1459,2971.62
23309,-0.9756,-0.1065,13.3261,1451,2971.62
23314,-5.8215,-0.0084,10.835,1461,2971.62
23319,-0.2969,2.8515,8.0876,1482,2972.06
23324,3.4369,3.6643,10.7823,1461,2972.06
23329,-0.753,0.0108,13.3106,1455,2972.06
23334,-5.7521,-0.1832,11.0696,1461,2972.06
23339,-0.5698,2.8287,7.9883,1487,2972.36
23344,3.2825,3.7625,10.6626,1459,2972.36
23349,-0.5806,0.1664,13.2854,1459,2972.36
23354,-5.6443,-0.4465,11.2468,1451,2972.36
23359,-0.8368,2.7557,7.9559,1493,2972.36
23364,3.2118,3.7625,10.6231,1455,2972.36
23369,-0.413,0.2801,13.204,1452,2972.36
23374,-5.5474,-0.6859,11.3557,1465,2972.36
23379,-1.1061,2.7019,7.8817,1487,2972.65
23384,3.0897,3.8427,10.4675,1455,2972.65
23389,-0.2382,0.425,13.204,1451,2972.65
23394,-5.4348,-0.8475,11.564,1459,2972.65
23399,-1.4473,2.6264,7.9942,1503,2972.95
23404,2.9269,3.8391,10.343,1459,2972.95
23409,-0.0503,0.5794,13.0951,1453,2972.95
23414,-5.3666,-0.9708,11.6945,1466,2972.95
23419,-1.7597,2.5917,7.9057,1507,2973.39
23424,2.8395,3.9049,10.2604,1455,2973.39
23429,0.1496,0.7003,13.1226,1459,2973.39
23434,-5.2026,-1.1504,11.9088,1461,2973.39
23439,-2.071,2.4983,7.9308,1504,2973.54
23444,2.7126,3.8942,10.161,1453,2973.54
23449,0.3328,0.8212,13.0532,1459,2973.54
23454,-5.0159,-1.1803,12.0201,1455,2973.54
23459,-2.3882,2.5079,7.9835,1497,2973.83
23464,2.6755,3.9516,10.0856,1455,2973.83
23469,0.595,0.9864,12.9706,1459,2973.83
23474,-4.883,-1.3096,12.1386,1454,2973.83
23479,-2.6647,2.4565,8.0254,1504,2974.27
23484,2.5881,3.8642,10.0341,1461,2974.27
23489,0.8595,1.0834,12.9538,1461,2974.27
23494,-4.7214,-1.4593,12.2368,1455,2974.27
23499,-2.9772,2.3954,8.0266,1508,2974.42
23504,2.4804,3.9145,9.9228,1463,2974.42
23509,1.1301,1.2043,12.9095,1452,2974.42
23514,-4.5286,-1.5263,12.3649,1459,2974.42
23519,-3.2944,2.2865,8.1008,1507,2974.86
23524,2.3595,3.8343,9.8426,1453,2974.86
23529,1.4042,1.2665,12.7934,1453,2974.86
23534,-4.3934,-1.5766,12.469,1455,2974.86
23539,-3.5769,2.2972,8.2145,1511,2975.16
23544,2.2374,3.8008,9.8509,1461,2975.16
23549,1.6592,1.4329,12.7383,1451,2975.16
23554,-4.2401,-1.64,12.6043,1431,2975.16
23559,-3.8571,2.2374,8.2732,1513,2975.16
23564,2.1153,3.7254,9.7001,1455,2975.16
23569,1.9201,1.5443,12.6067,1456,2975.16
23574,-4.0929,-1.646,12.7012,1456,2975.16
23579,-4.148,2.229,8.4048,1472,2975.3
23584,2.0638,3.7445,9.6307,1461,2975.3
23589,2.1464,1.719,12.5815,1453,2975.3
23594,-3.9193,-1.652,12.8066,1463,2975.3
23599,-4.4197,2.1524,8.4659,1512,2975.01
23604,2.0195,3.7146,9.5158,1462,2975.01
23609,2.393,1.8543,12.5516,1455,2975.01
23614,-3.7589,-1.634,12.9526,1463,2975.01
23619,-4.6711,2.0985,8.6598,1469,2975.16
23624,1.9273,3.705,9.3673,1453,2975.16
23629,2.6372,1.9752,12.3613,1457,2975.16
23634,-3.5039,-1.6352,12.9718,1465,2975.16
23639,-4.8339,2.0171,8.7029,1487,2975.3
23644,1.8567,3.6559,9.2967,1453,2975.3
23649,2.8802,2.0889,12.3218,1463,2975.3
23654,-3.3196,-1.5814,13.0903,1459,2975.3
23659,-5.0434,1.9345,8.8262,1514,2975.3
23664,1.8016,3.6129,9.1315,1452,2975.3
23669,3.0837,2.241,12.2032,1470,2975.3
23674,-3.152,-1.5981,13.113,1451,2975.3
23679,-5.2074,1.8244,9.0214,1512,2974.71
23684,1.6807,3.4907,9.0896,1452,2974.71
23689,3.2034,2.3559,12.1386,1467,2974.71
23694,-2.9485,-1.5071,13.1944,1451,2974.71
23699,-5.3846,1.6867,9.159,1459,2974.57
23704,1.6017,3.4656,8.9675,1485,2974.57
23709,3.3291,2.5031,11.959,1461,2974.57
23714,-2.7785,-1.4389,13.2184,1455,2974.57
23719,-5.5917,1.5838,9.2979,1459,2974.57
23724,1.4844,3.377,8.8609,1483,2974.71
23729,3.4548,2.6276,11.898,1455,2974.71
23734,-2.5965,-1.3144,13.3094,1453,2974.71
23739,-5.7341,1.4293,9.426,1459,2974.71
23744,1.3324,3.3399,8.7664,1478,2974.71
23749,3.541,2.8276,11.7974,1463,2974.71
23754,-2.4421,-1.1911,13.368,1455,2974.71
23759,-5.8227,1.3324,9.572,1466,2974.71
23764,1.2091,3.2765,8.691,1477,2975.3
23769,3.6248,2.9137,11.6646,1453,2975.3
23774,-2.2482,-1.063,13.3704,1453,2975.3
23779,-5.9041,1.2163,9.7671,1466,2975.3
23784,1.0798,3.2633,8.6048,1481,2975.3
23789,3.6547,3.0478,11.6167,1460,2975.3
23794,-2.0171,-0.9134,13.4482,1451,2975.3
23799,-5.8933,1.0343,9.906,1461,2975.3
23804,0.9577,3.1999,8.4647,1481,2975.3
23809,3.7134,3.122,11.485,1455,2975.3
23814,-1.8244,-0.7889,13.3932,1455,2975.3
23819,-5.9556,0.8595,10.0796,1464,2975.3
23824,0.7877,3.1436,8.4108,1484,2975.16
23829,3.7242,3.2094,11.3641,1451,2975.16
23834,-1.5694,-0.6644,13.4039,1461,2975.16
23839,-5.9723,0.6393,10.2232,1455,2975.16
23844,0.6069,3.0143,8.3175,1483,2974.86
23849,3.6536,3.2753,11.2156,1460,2974.86
23854,-1.3922,-0.5854,13.3788,1455,2974.86
23859,-5.9616,0.4693,10.3453,1455,2974.86
23864,0.3723,2.9509,8.272,1481,2974.27
23869,3.6045,3.3914,11.1546,1455,2974.27
23874,-1.2965,-0.4142,13.4039,1453,2974.27
23879,-5.9771,0.2897,10.5141,1455,2974.27
23884,0.1389,2.9341,8.187,1479,2973.83
23889,3.5063,3.4656,11.0301,1455,2973.83
23894,-1.1684,-0.2897,13.4422,1449,2973.83
23899,-5.9185,0.1197,10.75,1459,2973.83
23904,-0.0982,2.8922,8.0673,1481,2973.98
23909,3.395,3.6595,10.9188,1461,2973.98
23914,-1.0283,-0.1257,13.3608,1450,2973.98
23919,-5.8634,-0.0527,10.8685,1451,2973.98
23924,-0.2933,2.8132,8.0661,1493,2973.98
23929,3.3148,3.6859,10.7883,1461,2973.98
23934,-0.8464,0.0407,13.3417,1454,2973.98
23939,-5.7856,-0.2634,11.1318,1459,2973.98
23944,-0.5543,2.8132,7.9918,1487,2973.98
23949,3.322,3.784,10.6901,1453,2973.98
23954,-0.68,0.2155,13.301,1453,2973.98
23959,-5.6695,-0.3795,11.169,1461,2973.98
23964,-0.7757,2.7545,7.9308,1492,2974.13
23969,3.1903,3.8283,10.5465,1461,2974.13
23974,-0.4645,0.2526,13.3082,1451,2974.13
23979,-5.5569,-0.6153,11.4335,1461,2974.13
23984,-1.0834,2.6252,7.8961,1481,2974.13
23989,3.1544,3.8008,10.5082,1463,2974.13
23994,-0.231,0.419,13.2232,1453,2974.13
23999,-5.4229,-0.8021,11.5125,1459,2974.13
24004,-1.3862,2.6085,7.8937,1503,2973.98
24009,2.9832,3.8439,10.3813,1461,2973.98
24014,-0.0718,0.5567,13.2004,1453,2973.98
24019,-5.2888,-0.9278,11.6873,1463,2973.98
24024,-1.6436,2.5678,7.8398,1512,2974.42
24029,2.8216,3.8559,10.2963,1455,2974.42
24034,0.1269,0.6943,13.0628,1463,2974.42
24039,-5.2074,-1.148,11.8034,1459,2974.42
24044,-2.0375,2.484,7.8673,1497,2974.13
24049,2.6863,3.8798,10.2005,1453,2974.13
24054,0.3184,0.7925,13.0915,1459,2974.13
24059,-5.0793,-1.2306,11.9554,1456,2974.13
24064,-2.2996,2.4912,8.0134,1509,2973.83
24069,2.6432,3.9468,10.1502,1459,2973.83
24074,0.5375,0.9349,13.0771,1456,2973.83
24079,-4.9201,-1.3132,12.0871,1451,2973.83
24084,-2.6288,2.4696,8.0266,1507,2973.68
24089,2.563,3.9097,10.064,1467,2973.68
24094,0.7973,1.057,12.9359,1453,2973.68
24099,-4.7704,-1.4425,12.2392,1455,2973.68
24104,-2.9449,2.4181,8.0469,1510,2973.54
24109,2.4756,3.9325,9.9563,1465,2973.54
24114,1.0798,1.2127,12.8557,1449,2973.54
24119,-4.5538,-1.5263,12.3804,1453,2973.54
24124,-3.2549,2.3284,8.1044,1513,2973.54
24129,2.3631,3.8439,9.8689,1461,2973.54
24134,1.391,1.2953,12.7922,1453,2973.54
24139,-4.3826,-1.5862,12.39,1453,2973.54
24144,-3.5422,2.2901,8.1762,1511,2973.39
24149,2.3092,3.8188,9.7815,1455,2973.39
24154,1.6939,1.3886,12.7312,1455,2973.39
24159,-4.1539,-1.6831,12.5875,1456,2973.39
24164,-3.8164,2.1931,8.2624,1481,2972.8
24169,2.1644,3.7457,9.6271,1461,2972.8
24174,1.9166,1.5443,12.6043,1453,2972.8
24179,-3.9433,-1.7023,12.6246,1463,2972.8
24184,-4.1683,2.1548,8.3546,1511,2972.65
24189,2.0626,3.7206,9.5804,1463,2972.65
24194,2.1943,1.7226,12.5612,1453,2972.65
24199,-3.8487,-1.7202,12.8221,1465,2972.65
24204,-4.4472,2.0889,8.5497,1501,2972.65
24209,1.9225,3.6488,9.5014,1461,2972.65
24214,2.4289,1.8723,12.4642,1463,2972.65
24219,-3.6428,-1.6652,12.8509,1464,2972.65
24224,-4.7309,2.0889,8.6143,1512,2972.65
24229,1.8471,3.6703,9.4116,1453,2972.65
24234,2.6145,2.1129,12.4044,1464,2972.65
24239,-3.4477,-1.6376,12.9969,1460,2972.65
24244,-4.9536,1.9609,8.7855,1512,2972.65
24249,1.7657,3.5925,9.2524,1452,2972.65
24254,2.8611,2.1835,12.2823,1467,2972.65
24259,-3.1987,-1.5455,13.137,1449,2972.65
24264,-5.1427,1.9046,8.9088,1472,2972.36
24269,1.6867,3.5698,9.1315,1455,2972.36
24274,3.0825,2.3631,12.1841,1463,2972.36
24279,-2.9461,-1.4796,13.0723,1455,2972.36
24284,-5.3546,1.7442,9.0633,1458,2972.36
24289,1.6293,3.4836,8.9962,1482,2972.65
24294,3.2741,2.466,12.0644,1456,2972.65
24299,-2.727,-1.4018,13.2579,1455,2972.65
24304,-5.4839,1.5897,9.2261,1459,2972.65
24309,1.5143,3.4153,8.9052,1485,2973.09
24314,3.474,2.6085,11.8848,1444,2973.09
24319,-2.5845,-1.3515,13.2914,1449,2973.09
24324,-5.6886,1.4341,9.3326,1463,2973.09
24329,1.3886,3.3184,8.8454,1479,2972.95
24334,3.5255,2.7306,11.8453,1460,2972.95
24339,-2.4169,-1.1935,13.3034,1451,2972.95
24344,-5.7461,1.3036,9.6127,1468,2972.95
24349,1.221,3.2872,8.6933,1482,2972.06
24354,3.5805,2.9305,11.6538,1459,2972.06
24359,-2.1787,-1.0953,13.3824,1453,2972.06
24364,-5.8742,1.1779,9.7516,1461,2972.06
24369,1.0582,3.2262,8.6275,1481,2971.62
24374,3.5434,3.0502,11.5664,1454,2971.62
24379,-1.9956,-0.9218,13.3393,1454,2971.62
24384,-5.958,1.0008,9.918,1463,2971.62
24389,0.9002,3.1987,8.4922,1485,2971.33
24394,3.6069,3.1987,11.3988,1455,2971.33
24399,-1.7873,-0.741,13.386,1455,2971.33
24404,-5.9831,0.8356,10.1514,1453,2971.33
24409,0.6979,3.1184,8.4611,1483,2971.33
24414,3.632,3.2884,11.303,1454,2971.33
24419,-1.5287,-0.5938,13.3357,1455,2971.33
24424,-5.9472,0.6345,10.2568,1460,2971.33
24429,0.4693,3.0718,8.3067,1479,2971.03
24434,3.6428,3.4189,11.1546,1462,2971.03
24439,-1.2905,-0.4345,13.3608,1451,2971.03
24444,-5.9053,0.3819,10.5141,1455,2971.03
24449,0.2562,2.9844,8.2468,1483,2971.03
24454,3.5829,3.4572,11.0061,1462,2971.03
24459,-1.0965,-0.2921,13.3225,1455,2971.03
24464,-5.8263,0.1712,10.6195,1455,2971.03
24469,-0.0012,2.9042,8.1511,1495,2971.18
24474,3.4895,3.547,10.9595,1463,2971.18
24479,-0.8966,-0.1484,13.362,1454,2971.18
24484,-5.8454,-0.0479,10.8469,1460,2971.18
